PacketCounter_femur,SampleTimeFine_femur,Quat_W_femur,Quat_X_femur,Quat_Y_femur,Quat_Z_femur,FreeAcc_X_femur,FreeAcc_Y_femur,FreeAcc_Z_femur,PacketCounter_tibia,SampleTimeFine_tibia,Quat_W_tibia,Quat_X_tibia,Quat_Y_tibia,Quat_Z_tibia,FreeAcc_X_tibia,FreeAcc_Y_tibia,FreeAcc_Z_tibia
1.0,994078535.0,-0.41655117,-0.6036858,0.350217,-0.5825779999999999,-0.014032143,-0.036695685,0.08229828,3,994078535,0.51181406,-0.15887147,-0.7824886,-0.31704623,0.015713856000000002,0.0035590527000000003,0.12232876
2.0,994095202.0,-0.41651446,-0.6036892,0.35021058,-0.5826044,-0.06328199,-0.009164031999999999,0.12355995,4,994095202,0.511821,-0.15886129999999998,-0.78249073,-0.3170348,0.03612461,-0.00823567,0.11725521
3.0,994111869.0,-0.41651446,-0.6037235,0.35022554,-0.5825599,-0.07242636,-0.0008455495,0.075118065,5,994111869,0.5117908,-0.15896179,-0.7824656999999999,-0.3170948,0.026672695,-0.026068987000000002,0.10609245
4.0,994128536.0,-0.41650784,-0.6037906999999999,0.35026982,-0.5824683,-0.04719029,0.01033658,0.071243286,6,994128536,0.5118045999999999,-0.1589734,-0.78245044,-0.31710422,0.028114353999999998,-0.012785668,0.12436104
5.0,994145203.0,-0.41648054,-0.6038564999999999,0.35029572,-0.5824041,-0.06496527,-0.0206821,0.12223816,7,994145203,0.51185185,-0.15892385,-0.7824348000000001,-0.31709155,0.00909653,-0.016755704,0.13031769
6.0,994161870.0,-0.41645519999999997,-0.6038944,0.35033906,-0.58235675,-0.063548535,-0.016722346000000003,0.103307724,8,994161870,0.51185966,-0.15894894,-0.7824038000000001,-0.31714296,0.038937743999999996,-0.014277561000000001,0.11873531
7.0,994178537.0,-0.41652286,-0.60388833,0.35041323,-0.58227015,-0.044772327,-0.022503508,0.07830429,9,994178537,0.5118798,-0.15897289,-0.7823661999999999,-0.31719148,-0.0023014273,0.0007896067999999999,0.1158514
8.0,994195204.0,-0.41662443,-0.6038518,0.35047925,-0.5821957,-0.015474584,-0.03393977,0.11194134,10,994195204,0.51189613,-0.15900275,-0.7823253000000001,-0.3172509,-0.010969568999999998,5.7554585e-06,0.11753273
9.0,994211871.0,-0.41666704,-0.6038018,0.35048320000000005,-0.58221465,-0.034044266000000004,-0.039427462999999996,0.11545277,11,994211871,0.51185966,-0.15915403,-0.7822597,-0.31739584,-0.031070089,0.018144503,0.126297
10.0,994228538.0,-0.41670066,-0.60370773,0.35046765,-0.58229744,-0.014243587,-0.008231983,0.09972477,12,994228538,0.51186,-0.15917662,-0.7822265,-0.31746548,-0.0073254136,0.012250745,0.11906433
11.0,994245205.0,-0.41666916,-0.60368025,0.35039696,-0.58239096,-0.008720246,-0.061663873,0.07506847400000001,13,994245205,0.51190597,-0.15907879999999996,-0.7822300999999999,-0.31743178,0.015754534,0.013262811999999999,0.12132739999999999
12.0,994261872.0,-0.41672304,-0.60367656,0.35044608,-0.5823267,-0.023927063,0.0012952576,0.066337585,14,994261872,0.51188964,-0.15913159,-0.78220016,-0.31750515,-0.025745563,-0.0045649726,0.12947845
13.0,994278539.0,-0.41680187,-0.60369754,0.350485,-0.5822251,0.007962425,-0.025424152999999998,0.09640789,15,994278539,0.51190794,-0.15912417,-0.78217953,-0.31753000000000003,-0.035736144,-0.018518608,0.11362839
14.0,994295206.0,-0.41687766,-0.60370463,0.35056108,-0.5821177,0.018951664,-0.027577251,0.07191944,16,994295206,0.5119007999999999,-0.15914178,-0.78215873,-0.31758400000000003,-0.0030026732,0.020936571,0.13217545
15.0,994311873.0,-0.41703013,-0.603683,0.3506804,-0.58195907,-0.03755722,0.0012556958,0.10754204,17,994311873,0.5118518,-0.15925887,-0.7821176,-0.31770554,-0.044181358,0.016925743,0.10027313
16.0,994328540.0,-0.41699369999999997,-0.60371953,0.35068938,-0.5819419,-0.011387762,-0.053681552,0.06612968400000001,18,994328540,0.5118175,-0.15931231,-0.78210276,-0.31777057,-0.035891265,0.031607136,0.11266518
17.0,994345207.0,-0.41694415,-0.6037754,0.350657,-0.5819389,0.055083204000000004,-0.0377196,0.10096264,19,994345207,0.51178896,-0.15932502,-0.78209895,-0.31781974,-0.038403995,0.03026114,0.10909271
18.0,994361874.0,-0.41698897,-0.6037515,0.35064328,-0.58193994,-0.0024600953,-0.03987404,0.14662075,20,994361874,0.5117425999999999,-0.15938744,-0.78209275,-0.3178783,-0.046399052999999996,-0.006568710300000001,0.11817455
19.0,994378541.0,-0.41706195,-0.603641,0.35061312,-0.5820204000000001,-0.060934212,0.02864162,0.10376072,21,994378541,0.5117474,-0.15934616,-0.78210104,-0.31787103,-0.0028256509,0.0069047622,0.12470913
20.0,994395208.0,-0.41705190000000003,-0.60358393,0.35051787,-0.58214414,-0.09792617,-0.06172556,0.094573975,22,994395208,0.5117229,-0.15935504,-0.7820971999999999,-0.31791532,0.069221966,-0.01244386,0.14173412
21.0,994411875.0,-0.41708517,-0.6036057,0.3505626,-0.58207077,-0.061746348,-0.010952581999999999,0.086634636,23,994411875,0.5116839,-0.15941884,-0.7820676999999999,-0.31801847,0.055526875,-0.034805994,0.13596725
22.0,994428542.0,-0.4172076,-0.60362905,0.35068408,-0.58188564,-0.050701342999999996,-0.0047036065000000005,0.08797741,24,994428542,0.5116169,-0.15959685,-0.7820098000000001,-0.31817964,0.022147005,-0.017745309,0.11386776
23.0,994445209.0,-0.41730267,-0.6036746000000001,0.35075396,-0.5817281,0.019829845,0.009257683499999999,0.06929969999999999,25,994445209,0.5115310000000001,-0.15980697,-0.78194356,-0.31837514,-0.02323596,-0.0052675856,0.11072159
24.0,994461876.0,-0.41735697,-0.60367256,0.35081697,-0.5816533,-0.082717896,-0.067488395,0.09396362,26,994461876,0.51154226,-0.15975063,-0.78194046,-0.3183925,-0.0051437886,0.03003194,0.10660267
25.0,994478543.0,-0.41731372,-0.6037444000000001,0.35081375,-0.58161163,-0.007415265999999999,-0.03640892,0.100131035,27,994478543,0.51157683,-0.15964088,-0.7819472,-0.31837547,0.01513451,0.025028646,0.119888306
26.0,994495210.0,-0.4173814,-0.60374254,0.35090283,-0.5815111999999999,-0.007566249000000001,-0.026986955,0.100494385,28,994495210,0.51154584,-0.15969725,-0.78192246,-0.3184577,-0.034409374,0.02753769,0.11518383
27.0,994511877.0,-0.4173715,-0.6037979,0.35091123,-0.58145565,0.050405412999999996,-0.035424568,0.08851814,29,994511877,0.5115282999999999,-0.15971118,-0.78191304,-0.31850186,-0.034057114,0.048506614,0.09298515
28.0,994528544.0,-0.4173254,-0.6038842,0.35090244,-0.5814045,0.024013002999999998,-0.094205126,0.09237957,30,994528544,0.5114962000000001,-0.15973894,-0.78191155,-0.31854355,-0.059255965,0.044563062,0.10588932
29.0,994545211.0,-0.417401,-0.6039059,0.35097474,-0.58128405,-0.032870263,-0.04350255,0.1417036,31,994545211,0.5114479999999999,-0.15978557,-0.78191376,-0.3185921,-0.023083525,0.057695567999999996,0.12493515
30.0,994561878.0,-0.41755244,-0.6038239000000001,0.35107282,-0.5812013,-0.06383798,-0.07226129,0.10424518599999999,32,994561878,0.51139104,-0.1598636,-0.7819065,-0.31866209999999995,0.020049112,0.008648611,0.10894394
31.0,994578545.0,-0.4176907,-0.6037603,0.35119238,-0.5810959,-0.010415704,-0.0061378893,0.058338165,33,994578545,0.51131696,-0.15995399999999999,-0.78190446,-0.31874067,0.00065310486,-0.012989791,0.11645985
32.0,994595212.0,-0.41777724,-0.6037358,0.35121295,-0.5810466,-0.034033983999999996,0.0112214675,0.08810234,34,994595212,0.51125014,-0.16005887,-0.7818939,-0.318821,0.016784482,-0.023251662000000003,0.1164999
33.0,994611879.0,-0.41778833,-0.60375184,0.3512139,-0.58102125,-0.06734457,-0.014317793,0.09689236,35,994611879,0.5111939,-0.16012807,-0.781895,-0.31887418,0.027760755,-0.0046991366,0.10902977
34.0,994628546.0,-0.41777653,-0.6037728,0.35117847,-0.58102953,-0.009595076,-0.044940855,0.08976078,36,994628546,0.5111914000000001,-0.16008365,-0.7819159000000001,-0.31884876,0.009120669,-0.00039690314,0.10931206
35.0,994645213.0,-0.41776365,-0.60378295,0.35108579999999995,-0.58108413,0.061873302000000005,-0.016113271999999998,0.104034424,37,994645213,0.511181,-0.16007338,-0.7819286999999999,-0.31883920000000004,-0.049496945,0.0018182779000000002,0.12240982
36.0,994661880.0,-0.41774532,-0.60376364,0.35103306,-0.5811491999999999,-0.06275193400000001,-0.05477319,0.104911804,38,994661880,0.5112153,-0.15994883,-0.78197414,-0.3187353,0.009945433,0.0151248425,0.11223698
37.0,994678547.0,-0.41766846,-0.6037939999999999,0.35097876,-0.58120567,-0.072198264,-0.11083337,0.085840225,39,994678547,0.51121914,-0.15989318,-0.7820064,-0.31867832,0.027438004,0.032614786,0.12555218
38.0,994695214.0,-0.41761509999999996,-0.60385364,0.35095018,-0.58119935,-0.037969153,-0.04264381,0.08847046,40,994695214,0.51122403,-0.15983637,-0.7820371,-0.31862345,0.0017585998999999999,-0.009044899,0.13013744
39.0,994711881.0,-0.4176469,-0.6038553000000001,0.35098997,-0.5811508000000001,-0.02002229,-0.012649938999999999,0.11045456,41,994711881,0.511213,-0.15983206,-0.7820571,-0.31859416,0.024859112000000003,0.00038695682,0.12201309
40.0,994728548.0,-0.41770519999999994,-0.6038411,0.35105065,-0.58108705,-0.066651,0.009959514000000001,0.08998489400000001,42,994728548,0.51121974,-0.15979186,-0.78207314,-0.31856388,0.017471561,-0.025724944,0.10101986
41.0,994745215.0,-0.41773987,-0.6038115,0.35105348,-0.58109105,-0.08417006,-0.021491665,0.102622986,43,994745215,0.511202,-0.15983772,-0.78206754,-0.3185833,0.022060711,-0.0065727364,0.1344614
42.0,994761882.0,-0.41773814,-0.60379577,0.35107344,-0.58109653,-0.024871515,-0.055709932000000004,0.08712292,44,994761882,0.5112035,-0.15983902,-0.7820744000000001,-0.31856334,0.00645416,0.010319705,0.11699104
43.0,994778549.0,-0.41767567,-0.6038576999999999,0.35106623,-0.5810816,-0.009817471999999999,-0.084058754,0.082704544,45,994778549,0.51118594,-0.15986416,-0.78208745,-0.31854686,-0.008899839,0.04526025400000001,0.11164284
44.0,994795216.0,-0.4176897,-0.603866,0.3510808,-0.58105403,0.017974688,-0.079318486,0.11361789999999998,46,994795216,0.5111651,-0.15988854,-0.7821054000000001,-0.31852397,-0.056768715,0.06181586,0.10308933
45.0,994811883.0,-0.41767466,-0.6038686,0.35105413,-0.58107823,0.00076072634,-0.033526495,0.10062027,47,994811883,0.5111101,-0.15999860000000002,-0.7821146,-0.31853455,-0.040039215,0.035575382,0.11095238
46.0,994828550.0,-0.41768503,-0.60383385,0.351055,-0.5811063,-0.004442208400000001,-0.035231452,0.11136055,48,994828550,0.51109326,-0.16000703,-0.78215456,-0.31845912,0.011438499,0.058762003,0.104696274
47.0,994845217.0,-0.41764215,-0.60385805,0.35098445,-0.5811546999999999,0.02995733,-0.024067428,0.08207989,49,994845217,0.51114243,-0.15982655,-0.7822263,-0.31829447,-0.036033865,-0.00856239,0.11987877
48.0,994861884.0,-0.41756877,-0.60391116,0.35095240000000005,-0.5811715999999999,-0.02588146,-0.0077167847,0.08970260599999999,50,994861884,0.51113945,-0.15977729999999998,-0.78227943,-0.31819376,-0.018954346,-0.031608757,0.11784744
49.0,994878551.0,-0.41753653,-0.6039287,0.35094762,-0.58117944,-0.12401337,-0.029767903,0.09200859,51,994878551,0.51115805,-0.15967824,-0.7823376,-0.31807005,0.05148934,0.021887057999999997,0.11897564
50.0,994895218.0,-0.417533,-0.6039303,0.35092548,-0.5811935,-0.08136475,-0.0900299,0.07886314400000001,52,994895218,0.51110053,-0.15975513,-0.78235745,-0.31807512,0.021459926,-0.010349879000000001,0.12458134
51.0,994911885.0,-0.4175185,-0.60396457,0.35096428,-0.5811449000000001,0.015880931,-0.039119907,0.07797527,53,994911885,0.5110543,-0.15980065,-0.78238046,-0.31806985,-0.024001269,-0.014915131000000002,0.12227726
52.0,994928552.0,-0.41752395,-0.60400736,0.35102457,-0.5810602,0.001427689,0.023841232,0.12128925,54,994928552,0.5110041000000001,-0.15985192,-0.78241444,-0.3180413,-0.00020205571,0.014923513000000001,0.12718105
53.0,994945219.0,-0.41747922,-0.60404474,0.3509978,-0.58106977,0.014231293,-0.022020272999999996,0.12811089,55,994945219,0.5109305000000001,-0.15994623,-0.7824327,-0.31806725,-0.042752665,0.006028200500000001,0.12998009
54.0,994961886.0,-0.41748467,-0.604043,0.35101312,-0.5810584,0.015520963,-0.007224385600000001,0.08800506599999999,56,994961886,0.5109505,-0.15982346,-0.7824993,-0.31793299999999997,-0.036908247000000005,-0.0032888254999999997,0.10291958
55.0,994978553.0,-0.41741756,-0.6040553000000001,0.35098179999999995,-0.58111274,-0.042690862,-0.036868013,0.06640339,57,994978553,0.5109155,-0.1598138,-0.78255355,-0.31786040000000004,0.021441597000000003,0.0053297783999999996,0.12702751
56.0,994995220.0,-0.41735762,-0.60410273,0.35095054,-0.5811254,-0.077088386,-0.10300371,0.084114075,58,994995220,0.51086986,-0.15985778,-0.7825880000000001,-0.31782672,0.01920468,0.0071836505,0.12364006
57.0,995011887.0,-0.41734573,-0.6041263000000001,0.35092357,-0.5811255999999999,-0.02797421,-0.06369828400000001,0.08853817,59,995011887,0.5108349,-0.15985022,-0.7826399,-0.3177594,-0.028375864,0.017546326,0.11924839
58.0,995028554.0,-0.41730870000000003,-0.6041324,0.35091975,-0.58114827,-0.0029755163,-0.05198397,0.10108566,60,995028554,0.5107904999999999,-0.1598493,-0.78269815,-0.31768745,-0.0045972145,0.023034183,0.10765648
59.0,995045221.0,-0.41737935,-0.6040904,0.35099825,-0.5810938,-0.033575334,0.026339214,0.08329296,61,995045221,0.5107275,-0.15990466,-0.7827374,-0.31766406,0.0006906964699999999,-0.010421245,0.14715958
60.0,995061888.0,-0.41733274,-0.6041347,0.3510072,-0.5810757,-0.08347784,-0.0062664090000000006,0.089157104,62,995061888,0.5106423,-0.16000503,-0.78276443,-0.31768388,0.067734264,-0.051160607000000004,0.13136292
61.0,995078555.0,-0.4173411,-0.6042114000000001,0.35107046,-0.5809517,-0.019804478,0.04899404,0.09432697,63,995078555,0.51057744,-0.1600885,-0.78278154,-0.31770375,0.02264678,-0.050590314000000004,0.12250519
62.0,995095222.0,-0.41727594,-0.60431314,0.35105413,-0.5809024,-0.0051973467,0.053882714000000005,0.07583332,64,995095222,0.5105746,-0.16005002,-0.7828144,-0.31764734,-0.0062901014,-0.042106822,0.11201286
63.0,995111889.0,-0.41724727,-0.6043881,0.35103777,-0.58085495,-0.080169514,-0.040280387,0.118852615,65,995111889,0.5105159,-0.1601568,-0.78281194,-0.31769386,0.029979792999999998,0.012628091000000001,0.14035225
64.0,995128556.0,-0.41724372,-0.6044191999999999,0.35097566,-0.58086264,-0.08667911,-0.042725842,0.12410927,66,995128556,0.51044196,-0.16027409,-0.78280544,-0.3177693,0.0013357134,-0.011443584,0.13233757
65.0,995145223.0,-0.41718102,-0.60450816,0.35097986,-0.5808126,-0.0014832320000000001,-0.039183833,0.06542015,67,995145223,0.5104198,-0.16028345,-0.7828214,-0.31776103,0.017829182,-0.018583817,0.12132549
66.0,995161890.0,-0.41710344,-0.6046416,0.35097152,-0.5807344,-0.0034167308,-0.024695499,0.10977268,68,995161890,0.5104183,-0.16024327,-0.78284293,-0.31773029999999997,-0.02582871,-0.00036991392999999995,0.12058830000000001
67.0,995178557.0,-0.41703933,-0.6047418999999999,0.3509329,-0.5806995,0.0024842347,-0.023473552999999998,0.0889225,69,995178557,0.51041496,-0.16020064,-0.7828683000000001,-0.31769454,-0.04210224,0.01967674,0.11939525599999999
68.0,995195224.0,-0.41699502,-0.6047858,0.35091048,-0.5806991,-0.037272796000000004,-0.026776629,0.10559654,70,995195224,0.5103884,-0.16022238,-0.78287584,-0.31770796,-0.020288719,0.028648213999999998,0.11619091
69.0,995211891.0,-0.41698265,-0.6048276,0.35093904,-0.5806472,-0.013445646,-0.08031178,0.09573555,71,995211891,0.510337,-0.1602516,-0.78288835,-0.31774473,-0.004278932,0.03124605,0.10032558400000001
70.0,995228558.0,-0.41699833,-0.60491896,0.35099423,-0.58050734,0.023703326,-0.0726274,0.09554005,72,995228558,0.5102879,-0.16029234,-0.7828928,-0.31779240000000003,-0.019907406000000002,0.012957772,0.11363219999999999
71.0,995245225.0,-0.41707996,-0.60496706,0.35105595,-0.58036125,0.017271405,-0.029294055,0.113637924,73,995245225,0.51024234,-0.16030896,-0.78291255,-0.31780842,-0.04839726,0.026622238,0.11192608
72.0,995261892.0,-0.41712773,-0.60496014,0.35109776,-0.5803088000000001,-0.04831702,-0.06736479,0.13381767,74,995261892,0.51018715,-0.16035897,-0.78292805,-0.3178336,0.010223036,0.016465921,0.12245941
73.0,995278559.0,-0.41720918,-0.6049334,0.35120508,-0.5802134,-0.05722401,-0.029076799999999996,0.07620239,75,995278559,0.51018417,-0.16028796,-0.78297013,-0.31777033,0.03691674,-0.0128973685,0.11755943
74.0,995295226.0,-0.41726768,-0.60495645,0.35128194,-0.58010066,-0.034496654,0.017713849,0.080010414,76,995295226,0.5101371,-0.16035451,-0.78296614,-0.31782255,0.013903846999999999,-0.047251813,0.13035393
75.0,995311893.0,-0.41733733,-0.60501146,0.35133693,-0.5799598000000001,0.019917352,0.041526693999999996,0.09393501,77,995311893,0.5101581000000001,-0.16027912,-0.7829835999999999,-0.3177835,-0.0030728561999999997,-0.05464372,0.109583855
76.0,995328560.0,-0.41733587,-0.6050388000000001,0.35133913,-0.57993096,-0.09755324,0.039819952,0.09270668,78,995328560,0.5101997,-0.16018264,-0.7829883000000001,-0.31775385,0.042482078,-0.04765325,0.11785029999999999
77.0,995345227.0,-0.41722998,-0.6051316999999999,0.35130146,-0.5799331,-0.14064609,-0.032285552,0.109983444,79,995345227,0.51021636,-0.16018339,-0.7829649999999999,-0.317784,0.07335024,-0.037776317000000004,0.13394928
78.0,995361894.0,-0.41721058,-0.6051754,0.3513472,-0.5798738,-0.104345344,-0.024184773,0.08739376,80,995361894,0.5102339,-0.16016191,-0.78294307,-0.3178212,0.100405596,-0.00080565247,0.13275910000000002
79.0,995378561.0,-0.41717324,-0.6052357,0.35133487,-0.5798452,-0.08837456,-0.018300794,0.10378933,81,995378561,0.5102184000000001,-0.16026872,-0.78288466,-0.317936,0.034688316000000004,-0.020710543,0.12563992
80.0,995395228.0,-0.41712314,-0.60529566,0.35130495,-0.57983685,-0.07237774,-0.0049865740000000006,0.08061695,82,995395228,0.51028645,-0.16020057,-0.78286296,-0.31791437,0.014172062,-0.019793693,0.11534214
81.0,995411895.0,-0.41702867,-0.6053535,0.3512224,-0.5798944,-0.06845196,-0.046926323,0.097813606,83,995411895,0.51029634,-0.16027416,-0.78281426,-0.31798127,0.07312226,0.042341847,0.12135601
82.0,995428562.0,-0.41695628,-0.60542274,0.35115466,-0.5799152,-0.06777147,-0.04611318,0.10214996,84,995428562,0.5103392,-0.16024825,-0.78278416,-0.31799993,0.008769306999999999,0.009459739,0.13261127
83.0,995445229.0,-0.41692945,-0.60549515,0.35110268,-0.57989013,-0.012201907,-0.04848957,0.1021204,85,995445229,0.5104175999999999,-0.16018775,-0.78275555,-0.3179748,-0.011942297,-0.0007175325,0.11832999999999999
84.0,995461896.0,-0.41688973,-0.6055659999999999,0.35107335,-0.5798626,-0.012949111000000001,-0.036936857000000003,0.07897663,86,995461896,0.5105537,-0.15998292,-0.78276217,-0.31784309999999993,-0.032603834,0.018053643,0.11047554
85.0,995478563.0,-0.41674954,-0.6056534,0.35096553,-0.57993734,-0.031688884,-0.07250135,0.124611855,87,995478563,0.51062715,-0.15993623,-0.78274256,-0.31779715,-0.012808633,0.06468694,0.11186218
86.0,995495230.0,-0.4166142,-0.6056895999999999,0.3508853,-0.5800454,0.0026906490000000003,-0.09808799,0.104584694,88,995495230,0.5106338,-0.16001944,-0.7827059000000001,-0.31783473,-0.029543495,0.034638527999999995,0.106407166
87.0,995511897.0,-0.41649947,-0.60567516,0.3507869,-0.58020216,-0.06529618,-0.015356011000000001,0.09818554,89,995511897,0.5107352,-0.15986826,-0.7827246,-0.31770155,-0.0072382437,0.01783516,0.11859131
88.0,995528564.0,-0.41638032,-0.6057084,0.35069713,-0.5803073000000001,-0.0018501285,-0.070022136,0.056713104,90,995528564,0.5107508,-0.15989469,-0.78271294,-0.31769186,0.029210461,0.03745686,0.10114574400000001
89.0,995545231.0,-0.41636363,-0.6057456,0.35063618,-0.58031726,0.03218229,-0.063406155,0.12306689999999999,91,995545231,0.5107722,-0.15991333,-0.7826978,-0.31768559999999996,-0.033699493999999997,0.01948692,0.12255573
90.0,995561898.0,-0.41634160000000003,-0.60576576,0.35060337,-0.58033186,-0.008239358,-0.0033488946999999996,0.10631943,92,995561898,0.51078904,-0.15994568,-0.78268135,-0.31768270000000004,-0.04204457599999999,-0.008665932,0.12585545
91.0,995578565.0,-0.41637778,-0.6057248000000001,0.35060240000000004,-0.5803491999999999,-0.06813155,-0.05842137,0.1017704,93,995578565,0.5108143,-0.1599627,-0.7826655,-0.31767258,0.038416512,0.024304017,0.12409687
92.0,995595232.0,-0.41643962,-0.60566187,0.35065943,-0.5803361,-0.07545864599999999,-0.06398461,0.06267071,94,995595232,0.51083297,-0.15997621,-0.7826489000000001,-0.31767678,0.024446952999999997,-0.013370545,0.11532402
93.0,995611899.0,-0.41648826,-0.6056786999999999,0.3508058,-0.58019525,-0.003583695,-0.019275533,0.06527519,95,995611899,0.5108267,-0.16004056,-0.78262216,-0.31772035,-0.010015769,-0.017959282,0.12612152
94.0,995628566.0,-0.4164710999999999,-0.6057465999999999,0.3508834,-0.5800897,0.03671558,0.0053345836,0.08708954,96,995628566,0.5108560000000001,-0.16002525,-0.78261,-0.317711,-0.02295791,0.025306807999999997,0.12519646
95.0,995645233.0,-0.41643456,-0.6058170999999999,0.35093012,-0.58001405,0.058204338,-0.025587092999999998,0.092020035,97,995645233,0.5108760999999999,-0.16001892,-0.7826063,-0.317691,-0.07370563599999999,0.05298408,0.10303783400000001
96.0,995661900.0,-0.41630125,-0.605896,0.35086668,-0.58006585,0.10487239,-0.06452394,0.1371336,98,995661900,0.51083785,-0.16012588,-0.78259254,-0.3177321,-0.09954149,0.04423081,0.118335724
97.0,995678567.0,-0.41619784,-0.6058866999999999,0.35072538,-0.5802352,0.023065085,-0.03771513,0.13871956,99,995678567,0.5108649000000001,-0.16004619,-0.78263044,-0.31763545,-0.062830836,0.047701072000000004,0.12846565
98.0,995695234.0,-0.41618776,-0.6057513000000001,0.35060972,-0.58045346,-0.17994726,-0.01700442,0.11897850000000001,100,995695234,0.5108308,-0.16010217,-0.78263885,-0.31764132,0.06444325,0.0010102227,0.11650562
99.0,995711901.0,-0.41625145,-0.6056436,0.3506442,-0.5804994000000001,-0.17177016,-0.069025494,0.07635689,101,995711901,0.5107625,-0.16022593,-0.782621,-0.31773278,0.11236354,-0.046812217999999996,0.13117504
100.0,995728568.0,-0.41636923,-0.6055971,0.35077566,-0.5803841,-0.007328431,0.044088826,0.050135612,102,995728568,0.5107169,-0.16034289,-0.7825821999999999,-0.31784275,0.022311063,-0.028074624,0.12634563
101.0,995745235.0,-0.41640016,-0.60561913,0.35083342,-0.58030385,0.06580959,0.019436017,0.09250355,103,995745235,0.51077867,-0.16023923,-0.7825829000000001,-0.3177943,-0.09079186,0.06555473,0.1016798
102.0,995761902.0,-0.41634828,-0.60556006,0.35077035,-0.5804406999999999,0.12899067,-0.015455921000000001,0.19867420000000002,104,995761902,0.5108055,-0.16028647,-0.7825523,-0.31780273,-0.16641925,0.12993188,0.09156227
103.0,995778569.0,-0.41616115,-0.60542893,0.35048535,-0.5808840000000001,0.013153626000000002,-0.17078803,0.22640705,105,995778569,0.5108758,-0.16021277,-0.7825677,-0.31768894,-0.12800677,0.10509478,0.11957264
104.0,995795236.0,-0.41602498,-0.6051006,0.35035548,-0.5814019,-0.17762955,-0.0626404,0.11594105,106,995795236,0.51089656,-0.16020079,-0.78258365,-0.31762224,0.13614398,0.058174945,0.16465950000000001
105.0,995811903.0,-0.41605005,-0.60467184,0.35020036,-0.58192295,-0.51537895,-0.016062982,0.063129425,107,995811903,0.5109319999999999,-0.16026619,-0.7825513000000001,-0.31761178,0.36514887,-0.11161013,0.14540291
106.0,995828570.0,-0.41621554,-0.6042886,0.3501745,-0.5822183000000001,-0.55049366,0.14597318,0.048524857000000005,108,995828570,0.510948,-0.16047508,-0.78243303,-0.31777209999999995,0.439173,-0.24442220000000003,0.14182949
107.0,995845237.0,-0.41636819999999997,-0.6039786,0.35014978,-0.5824455,-0.4497179,0.31703794,0.016030311999999998,109,995845237,0.51113695,-0.16046779,-0.78227603,-0.31785822,0.32284725,-0.4055291,0.17701340000000002
108.0,995861904.0,-0.4164544,-0.6038137,0.3500713,-0.5826020000000001,-0.3777178,0.41203114,0.060289382999999995,110,995861904,0.51140904,-0.16047885,-0.78203577,-0.31800625,0.30189827,-0.31423670000000004,0.14658642
109.0,995878571.0,-0.41632262,-0.6037170999999999,0.3498651,-0.5829201,-0.1416291,0.22475502,0.10254383,111,995878571,0.51170534,-0.16053118,-0.7817271,-0.318262,0.16675363,-0.14858001,0.16234589
110.0,995895238.0,-0.4160701,-0.60368156,0.3495512,-0.58332545,-0.026211363999999997,0.09838548,0.09870052,112,995895238,0.51207477,-0.16051745,-0.7813952,-0.31848955,-0.015720561,-0.07482688,0.15274525
111.0,995911905.0,-0.4158067,-0.6036597,0.34920812,-0.5837412,0.006995173,-0.011284721999999999,0.10898113,113,995911905,0.5125112000000001,-0.16037819,-0.781099,-0.31858435,-0.009888359000000001,0.025941296000000003,0.086707115
112.0,995928572.0,-0.41539332,-0.60364854,0.34879023,-0.58429664,0.03281807,-0.09210142,0.07215023,114,995928572,0.5129421,-0.16024369,-0.7808096,-0.31866795,-0.055002514,0.040680923,0.07550526
113.0,995945239.0,-0.41498850000000004,-0.603599,0.34830365,-0.58492523,0.0008249863000000001,-0.069769345,0.10276604,115,995945239,0.5134166,-0.1600336,-0.7805469,-0.31865293,-0.09175743,0.042532895,0.0925293
114.0,995961906.0,-0.4145687,-0.60353845,0.34789324,-0.5855293,-0.041831568,-0.11014093,0.06142330000000001,116,995961906,0.51391524,-0.15976034,-0.78032327,-0.31853402,-0.014474698999999999,0.10687641,0.09893036
115.0,995978573.0,-0.41414317,-0.6035285,0.34754738,-0.586046,-0.038600800000000005,-0.21273941,0.13537598,117,995978573,0.5143095,-0.15966432,-0.7800748000000001,-0.31855437,-0.014558293,0.16656186,0.12095356
116.0,995995240.0,-0.41394949999999997,-0.6034223000000001,0.34742606,-0.58636403,0.036675345,-0.12625755,0.12770557,118,995995240,0.5146822,-0.15958789,-0.77983356,-0.31858116,-0.10905197,0.11722578,0.10780811
117.0,996011907.0,-0.41392088,-0.603179,0.3474232,-0.5866361,-0.014411333,-0.122427434,0.12284565,119,996011907,0.51503044,-0.15956728,-0.7795995,-0.3186015,-0.09719774,0.11079425,0.11807632400000001
118.0,996028574.0,-0.4139768,-0.6028479,0.34757257,-0.5868485999999999,-0.01276706,-0.09224,0.11693859,120,996028574,0.51538146,-0.15947828,-0.7793911,-0.31858844,-0.03476163,0.089631714,0.09649181
119.0,996045241.0,-0.41402802,-0.60251373,0.34780708,-0.5870167,-0.08651214,-0.1510818,0.06516838,121,996045241,0.51569605,-0.159445,-0.7791885000000001,-0.3185912,0.00796466,0.10158273,0.08062649
120.0,996061908.0,-0.414184,-0.6021485,0.3480822,-0.5871183000000001,0.0008824291,-0.08888015,0.09720802,122,996061908,0.515921,-0.15960439999999998,-0.7789574,-0.31871253,-0.035846114,0.05799865,0.11166954
121.0,996078575.0,-0.41435745,-0.60174185,0.34826290000000004,-0.5873056999999999,0.04067187,-0.012562321999999999,0.15626144,123,996078575,0.51622474,-0.15959257,-0.7787651,-0.31869698,-0.09527821,-0.036541853,0.13300991
122.0,996095242.0,-0.4143465,-0.6013575,0.34834114,-0.5876606,-0.06081016400000001,0.12054523,0.078261375,124,996095242,0.5166182,-0.15940766,-0.7785999,-0.31855544,0.025940914,-0.10671347,0.13889217
123.0,996111909.0,-0.41416702,-0.60105413,0.34831178,-0.5881148,-0.23627119,0.10653544,0.061177254,125,996111909,0.5170021,-0.15924446,-0.77841395,-0.31846890000000005,0.24662241,-0.071161665,0.13477325
124.0,996128576.0,-0.41383982,-0.6009462,0.34813979999999994,-0.5885570999999999,-0.22835504,-0.021798323999999997,-0.002251625,126,996128576,0.5173236,-0.15923399,-0.7781785,-0.31852707,0.18034723,-0.08676259,0.14271641
125.0,996145243.0,-0.41364129999999993,-0.6008353,0.34804565,-0.58886534,0.06115102,0.06363145,0.11102486,127,996145243,0.51781315,-0.15889816,-0.77799815,-0.31833994,-0.09749367,-0.07116272,0.06010914
126.0,996161910.0,-0.41333517,-0.6007560000000001,0.34786752,-0.58926666,0.17251433,0.10915099,0.05094433,128,996161910,0.5183873,-0.15837955,-0.7778694,-0.31797826,-0.13561603,0.016121373999999997,0.116371155
127.0,996178577.0,-0.41267982,-0.6008453,0.34743917,-0.58988696,0.06435028,-0.06465537,0.13013268,129,996178577,0.5189269,-0.15794845,-0.77774173,-0.31762472,-0.061131686,0.13143545,0.06753731
128.0,996195244.0,-0.41209534,-0.6008866999999999,0.34706408,-0.5904739,0.12605348,-0.1391053,0.08053398,130,996195244,0.51934224,-0.15774347,-0.7776111,-0.31736735,-0.14433499,0.19898552,0.08675289
129.0,996211911.0,-0.41160329999999995,-0.6008361999999999,0.3466641,-0.5911031,0.20483778,-0.21489608,0.12524414,131,996211911,0.5197622000000001,-0.15739441,-0.77757,-0.31695375,-0.34089749999999996,0.20316479,0.025295257999999998
130.0,996228578.0,-0.41099880000000005,-0.60083395,0.34622565,-0.59178257,0.22995952,-0.22332498,0.021899223,132,996228578,0.5202104999999999,-0.15684836,-0.7776566,-0.31627566,-0.24797243,0.32854438,-0.00041961669999999996
131.0,996245245.0,-0.41031566,-0.600785,0.34570609999999996,-0.59260964,0.10645084,-0.3934798,0.11919212,133,996245245,0.5205142,-0.15657392,-0.77773315,-0.31572318,-0.12677342,0.37274775,0.1048193
132.0,996261912.0,-0.40986140000000004,-0.60065335,0.34549645,-0.5931794,-0.06505948,-0.28790748,0.17536736,134,996261912,0.52070504,-0.15650578,-0.7777746,-0.31534009999999996,-0.023665997999999997,0.20121793,0.22184277
133.0,996278579.0,-0.4097053,-0.60044944,0.34553698,-0.5934699999999999,-0.13023195,-0.12014805,0.14734364,135,996278579,0.5208669,-0.15648322,-0.7778065,-0.31500486,0.07445663,-0.07346597,0.18126678
134.0,996295246.0,-0.40989032,-0.6001484,0.34590104,-0.59343475,-0.18406202,0.25620976,0.101792336,136,996295246,0.52104133,-0.15648076,-0.7777689,-0.31481028,0.108953625,-0.33324608,0.18268585
135.0,996311913.0,-0.41022974,-0.59977955,0.3463171,-0.5933303000000001,-0.18686801,0.45440096,0.04113865,137,996311913,0.521308,-0.15639370000000002,-0.7776793000000001,-0.31463359999999996,0.15499595,-0.35182136,0.15220165
136.0,996328580.0,-0.41029218,-0.59958225,0.34645888,-0.5934038,-0.23647447,0.34376806,0.099432945,138,996328580,0.52157205,-0.15640374,-0.7775024,-0.31462870000000004,0.25629425,-0.23357914,0.1757164
137.0,996345247.0,-0.41008702,-0.5995314,0.34647232,-0.5935891,-0.19677946,0.14493944,0.05669880000000001,139,996345247,0.5218397,-0.15647349,-0.7772669,-0.31473204,0.18704279,-0.09360561,0.17834854
138.0,996361914.0,-0.40974987,-0.5996005999999999,0.34634316,-0.5938272,-0.0092280675,0.08082921,0.08146,140,996361914,0.5221774,-0.15650071,-0.77700657,-0.31480086,0.0028444258,0.014090033,0.13711071
139.0,996378581.0,-0.40931007,-0.5996921,0.34605929999999996,-0.5942038000000001,0.108560465,-0.024802785,0.12490082,141,996378581,0.52254826,-0.15644059999999999,-0.7767708999999999,-0.31479722,-0.13691778,0.07716802,0.097756386
140.0,996395248.0,-0.4088265,-0.5997496,0.3457916,-0.59463435,0.016028337,-0.042078547,0.1742382,142,996395248,0.5230294,-0.1561881,-0.77658015,-0.31459388,-0.11421019999999998,0.10827554,0.12729359
141.0,996411915.0,-0.40834296,-0.5997022,0.34551679999999996,-0.595174,-0.15038924,-0.11587314,0.17979431,143,996411915,0.5234405,-0.15611897,-0.77636236,-0.31448212,0.09143468,0.16834308,0.11842251
142.0,996428582.0,-0.40801570000000004,-0.59948206,0.34535570000000004,-0.5957131999999999,-0.29467109999999996,-0.062041162999999996,0.14931870000000003,144,996428582,0.52377087,-0.15623213,-0.7761053000000001,-0.3145099,0.070535325,0.018378353,0.13260460000000002
143.0,996445249.0,-0.40790975,-0.5991122,0.34535387,-0.59615874,-0.22785135,0.0034331590000000003,0.15400505,145,996445249,0.52412015,-0.15634736,-0.77583206,-0.31454507,0.07353666,-0.044428173,0.09355545
144.0,996461916.0,-0.40789834,-0.5986476,0.34544662,-0.59657955,-0.13801154,0.11543796,0.13305855,146,996461916,0.5245227,-0.15639971,-0.7755496999999999,-0.3145443,0.025390625,-0.029711578,0.10216522
145.0,996478583.0,-0.40786546,-0.5980634,0.34543216,-0.5971959,-0.22724171,-0.007281605,0.18657494,147,996478583,0.5249433000000001,-0.15642065,-0.775266,-0.3145315,0.06473338,0.052315499999999994,0.088944435
146.0,996495250.0,-0.40791163,-0.5972198000000001,0.34552208,-0.59795594,-0.36242872,0.016533254,0.17376232,148,996495250,0.5253401999999999,-0.15654007,-0.77493906,-0.31461495,0.116825156,0.021823717000000003,0.14756775
147.0,996511917.0,-0.40814677,-0.5962015,0.34566632,-0.5987279999999999,-0.37950733,0.077169634,0.12686157,149,996511917,0.52578443,-0.15657447,-0.77460635,-0.31467518,0.23109362,-0.09448675,0.17410088
148.0,996528584.0,-0.40828317,-0.5952148,0.34567365,-0.59961194,-0.53641737,0.11311946,0.09247398400000001,150,996528584,0.5262927,-0.15660459,-0.77423584,-0.31472259999999996,0.42079085,-0.11986994,0.16204739
149.0,996545251.0,-0.40842998,-0.5941944,0.34561290000000006,-0.60055804,-0.50059336,0.23309317,0.13519382,151,996545251,0.5267970999999999,-0.15679204,-0.7737708999999999,-0.31492898,0.32137007,-0.24973522,0.17471981
150.0,996561918.0,-0.40839776,-0.5931941,0.3453949,-0.6016933000000001,-0.19511028,0.34102222,0.12409496,152,996561918,0.52747864,-0.15685242,-0.7732498999999999,-0.31503755,0.15944877,-0.25472,0.1267767
151.0,996578585.0,-0.40816095,-0.5921613,0.34492388,-0.60314006,-0.11396613,0.42603916,0.1671114,153,996578585,0.5283353,-0.15670744,-0.77269816,-0.31502807,0.06925772,-0.22104464,0.15119553
152.0,996595252.0,-0.40758374,-0.59104645,0.3440627,-0.60511225,-0.35924825,0.25228086,0.13974094,154,996595252,0.5293273000000001,-0.15642703,-0.77213204,-0.31489012,0.2272045,-0.052068684000000004,0.112158775
153.0,996611919.0,-0.40677240000000003,-0.58981514,0.342897,-0.6075166,-0.56580013,0.046249077,0.13535786,155,996611919,0.5303331,-0.15632488,-0.7714779,-0.3148523,0.3136164,0.07195586,0.089095116
154.0,996628586.0,-0.40597737,-0.5883264,0.34163362,-0.6101977,-0.557462,-0.038821742,0.15855885,156,996628586,0.5313939000000001,-0.15626904,-0.77080566,-0.31473807,0.08179457,0.12323906,0.020567894
155.0,996645253.0,-0.40518883,-0.58648795,0.3401161,-0.61333126,-0.32089296,-0.15285581,0.28818893,157,996645253,0.53256464,-0.15611127,-0.7701706,-0.31439123,-0.10539217,0.28823587,0.04165268
156.0,996661920.0,-0.40426102,-0.5843098000000001,0.33847407,-0.6169205,-0.1956286,-0.2335308,0.39337635,158,996661920,0.53383815,-0.1559077,-0.7695753000000001,-0.31378943,-0.1827348,0.48285872,0.07690334
157.0,996678587.0,-0.4028364,-0.5817793000000001,0.33639967,-0.62136245,-0.015892666,-0.53588057,0.40089798,159,996678587,0.5351943,-0.1556435,-0.76912534,-0.3127123,-0.15961775,0.8678976999999999,0.014634132
158.0,996695254.0,-0.40063584,-0.5790826,0.33343244,-0.6268789,-0.004995514600000001,-1.0559764999999999,0.44360542,160,996695254,0.53654045,-0.15558194,-0.7688019,-0.31122822,-0.12282305,1.3123038,-0.07227421
159.0,996711921.0,-0.39801216,-0.57592696,0.32978544,-0.6333533,0.11690868,-1.2041295,0.41261864,161,996711921,0.53772986,-0.15576489999999998,-0.7686850000000001,-0.30936679999999994,-0.49232304,1.4058708,-0.10970783
160.0,996728588.0,-0.39542893,-0.5721837,0.32644826,-0.6400574,0.32898703,-1.0516202,0.32480717,162,996728588,0.53894734,-0.1556525,-0.76887584,-0.30682042,-0.70153743,1.147455,-0.12697506
161.0,996745255.0,-0.39279264,-0.5681516,0.32386595,-0.64655155,0.004440085,-0.99443394,0.12027836,163,996745255,0.5401883000000001,-0.15537855,-0.76933277,-0.30361462,-0.24358487,1.275173,-0.18536186
162.0,996761922.0,-0.39030504,-0.5634989,0.32148140000000003,-0.6532846999999999,-0.3862982,-1.2315435,0.2150774,164,996761922,0.54104,-0.15583216,-0.7699261,-0.30034432,0.07494568,1.7389653000000003,-0.11189556
163.0,996778589.0,-0.38751227,-0.55844015,0.3186343,-0.6606446,0.16406007,-1.7689801,0.20347404,165,996778589,0.5412931,-0.15718248,-0.77071774,-0.29713625,-0.24100254,1.8963807000000001,-0.04248047
164.0,996795256.0,-0.38581908,-0.55191535,0.31703794,-0.66784745,-0.013707491,-1.9019107,0.28043556,166,996795256,0.5411894,-0.15885618,-0.7718651999999999,-0.29343379999999997,-0.36936948,2.1642785,-0.33572006
165.0,996811923.0,-0.38470986,-0.544324,0.31684604,-0.6747729,-0.19665922,-2.7768705000000002,0.37581729999999997,167,996811923,0.54045063,-0.16145056,-0.7732266999999999,-0.28977203,-0.40785483,2.518671,-0.37814617
166.0,996828590.0,-0.3863475,-0.53517914,0.3181163,-0.68053025,-0.9274898000000001,-2.9780066,-0.11961841599999999,168,996828590,0.5389768,-0.1647491,-0.7748433000000001,-0.28632176,-0.6783529,1.6521581000000003,-0.5140648
167.0,996845257.0,-0.39024684,-0.5229929,0.32134536,-0.68623847,-1.8369526000000003,-2.6187258,-0.22728062,169,996845257,0.5375778,-0.16814259,-0.77685314,-0.28149253,0.18476385,1.5775857,-0.7263775
168.0,996861924.0,-0.39604118,-0.5096385,0.3263298,-0.69060063,-1.0594671,-1.7829143,-0.9453601999999999,170,996861924,0.535311,-0.17310338,-0.7789238,-0.2770479,1.0236657,1.7088093,-0.58428764
169.0,996878591.0,-0.4019812,-0.49631935,0.33224666,-0.6940396,-0.7804616999999999,-0.6549842,-0.7233391,171,996878591,0.5325331999999999,-0.17939681,-0.7805664999999999,-0.27375424,0.5523778,0.0965885,0.35771179999999997
170.0,996895258.0,-0.40836313,-0.48255575,0.338074,-0.6971984999999999,-0.86176515,0.09113942,-0.15479851,172,996895258,0.5305694000000001,-0.18531829,-0.7819965999999999,-0.26950932,0.49184808,-0.20241557,-0.13316345
171.0,996911925.0,-0.41470635,-0.46891084,0.34359598,-0.7000596,0.48993146,-0.32066554,-0.73816013,173,996911925,0.5279235,-0.19252901,-0.78333753,-0.26572937,0.37624517,1.0903121999999998,-0.4389267
172.0,996928592.0,-0.41924629999999996,-0.45643944,0.3484773,-0.70317817,0.208896,0.71034485,-1.0648928,174,996928592,0.5246236,-0.20055643,-0.7844116,-0.26314676,-0.6621285,0.49121499999999996,-0.1636591
173.0,996945259.0,-0.42472154,-0.44440407,0.3536158,-0.705034,-0.74176586,2.2740562,-0.28588772,175,996945259,0.5223715999999999,-0.20706792,-0.78528696,-0.25995353,-1.2766168,-0.27264234,-0.36436272
174.0,996961926.0,-0.42734563,-0.43155023,0.35553136,-0.71044904,1.7261727999999998,0.7204729999999999,-0.02070427,176,996961926,0.5212407,-0.21163769,-0.78637236,-0.25521883,-0.72087777,-1.191619,0.055243492000000005
175.0,996978593.0,-0.42787156,-0.42163783,0.35613979999999995,-0.7157599,1.1982226,0.043178905,-1.1068153,177,996978593,0.5208393,-0.21480802,-0.78784597,-0.2487637,0.37639603,-0.64223576,-0.18514538
176.0,996995260.0,-0.42706448,-0.41201679999999996,0.35561612,-0.72207725,-0.33572270000000004,-0.6054033000000001,-0.50798607,178,996995260,0.5196748999999999,-0.21869929999999999,-0.78953904,-0.2423573,1.0843823000000001,1.1825675,-0.42289162
177.0,997011927.0,-0.42635638,-0.4018899,0.35315633,-0.72937363,-1.2057493000000001,-0.04341605,-0.5846471999999999,179,997011927,0.5171079000000001,-0.22444046,-0.7911946999999999,-0.23714401,0.82426167,1.9694272000000002,-0.58004665
178.0,997028594.0,-0.42764243,-0.3903178,0.34947643,-0.73664147,-1.2075261,0.18146424,-1.3364496000000001,180,997028594,0.5139421,-0.23145166,-0.7925133000000001,-0.23284484,0.0132426955,0.9428835999999999,-0.9142027
179.0,997045261.0,-0.43050647,-0.37799174,0.34654856,-0.7427590000000001,-0.32858026,-0.6578793000000001,-1.6811866999999998,181,997045261,0.51187795,-0.23768531,-0.79328024,-0.22845899,-0.5320866999999999,-1.0920994,-0.32931328
180.0,997061928.0,-0.4328642,-0.36667859999999997,0.34537435,-0.7475911999999999,0.13854517,-0.13075463,-0.94607925,182,997061928,0.511365,-0.24215646,-0.79399884,-0.22233416,-0.8007899,-1.7993681000000001,0.6997576
181.0,997078595.0,-0.43405554,-0.35525477,0.34494346,-0.75259835,0.40845729999999997,1.3793171999999998,-0.1402235,183,997078595,0.51069474,-0.24561374,-0.7953326999999999,-0.21520065,-0.011234208,-0.8205346,-0.046452522
182.0,997095262.0,-0.43422872,-0.34333524,0.34442934,-0.7582446999999999,0.5319366,1.1528368999999998,-0.7437649000000001,184,997095262,0.5090983,-0.2497723,-0.79673594,-0.20891446,-0.11941269,0.39771202,-0.72757435
183.0,997111929.0,-0.43425244,-0.33105573,0.34160897,-0.76493824,0.74591523,0.70589423,-0.5688734000000001,185,997111929,0.50756323,-0.25430548,-0.79775584,-0.20321,-0.74186563,0.35862362,-0.17547035
184.0,997128596.0,-0.43508717,-0.3182952,0.33804056,-0.77143776,1.109112,0.42153370000000007,-0.26151943,186,997128596,0.5067649000000001,-0.25817937,-0.79867315,-0.1966071,-0.6808598000000001,-0.14308707,0.041604996
185.0,997145263.0,-0.43568262,-0.30641153,0.33428624,-0.7775255,0.70957595,0.6392983,-0.29454422,187,997145263,0.5063077,-0.26135749999999996,-0.7994868,-0.19017376,-0.51936096,-1.518282,0.35979176
186.0,997161930.0,-0.43585157,-0.2949203,0.33054247,-0.78345233,0.8276173000000001,1.636876,0.39565563,188,997161930,0.5064619,-0.26347223,-0.8003537,-0.1830662,-0.46415594,-2.1224258,0.6410055
187.0,997178597.0,-0.43533275,-0.28452802,0.32578388,-0.78955334,1.6837214,1.8355179,0.49864674,189,997178597,0.5064279,-0.26478657,-0.80152404,-0.17600788,-0.27354320000000004,-1.5377768,0.6212568
188.0,997195264.0,-0.43380478,-0.27492097,0.31993523,-0.796162,0.3265265,0.95420533,-0.11134148,190,997195264,0.50620514,-0.26591456,-0.8027036999999999,-0.16944999,-0.41988159999999997,-0.9285723,0.6096201
189.0,997211931.0,-0.43277073,-0.26476356,0.31460540000000004,-0.80226773,-0.074611306,0.9602835,-0.020401955,191,997211931,0.50621855,-0.26701984,-0.8035798000000001,-0.16341145,-0.25831527,-0.47768217,0.17924118
190.0,997228598.0,-0.4317602,-0.25466496,0.31027722,-0.80774814,-0.29978776,0.63812,0.85560894,192,997228598,0.50650084,-0.26833406,-0.80395085,-0.15848511,-0.26599607,-0.9034452,1.0469599
191.0,997245265.0,-0.43035144,-0.24524546,0.30643845,-0.8128641,0.25155622,1.2940943,1.0235100000000001,193,997245265,0.5068758,-0.26917902,-0.80442446,-0.1533669,0.053749055,-1.2082531,0.9622116
192.0,997261932.0,-0.428784,-0.23698935,0.30230835,-0.81767386,0.108068064,0.44795886,0.49016953,194,997261932,0.50676906,-0.26979342,-0.8051470000000001,-0.14878015,0.83241546,-1.1569530000000001,0.37487888
193.0,997278599.0,-0.4271232,-0.22897948,0.29762852,-0.82252765,-0.44911709999999994,0.27731174,0.081088066,195,997278599,0.5066764,-0.2706317,-0.8057623,-0.14417094,1.0652335,-0.35090974,0.32333755
194.0,997295266.0,-0.42623568,-0.22068524,0.29262486,-0.8270382,-0.21605422,0.28695533,0.41787624,196,997295266,0.5063154000000001,-0.27187514,-0.8062108,-0.14054692,0.6700789,0.32046908,0.34399128
195.0,997311933.0,-0.42593947,-0.21218209999999998,0.28842363,-0.830883,-1.0617944,-0.32723927,0.3115759,197,997311933,0.50639915,-0.27319032,-0.80625,-0.13743636,0.04747192,-0.99846804,0.9495344000000001
196.0,997328600.0,-0.42539254,-0.20425598,0.28560334,-0.8341174000000001,0.08834081,0.23959254,0.64008236,198,997328600,0.5069769000000001,-0.274158,-0.80613613,-0.13400386,0.44805652,-1.1129471000000002,0.6534462
197.0,997345267.0,-0.42446306,-0.19728210000000002,0.28298488,-0.8371564,0.626282,0.48618069999999997,1.0679722,199,997345267,0.5070279000000001,-0.27507952,-0.8061758000000001,-0.1316619,0.19806154,-0.92732364,0.9090976999999999
198.0,997361934.0,-0.42294145,-0.19082186,0.28010136,-0.84038746,0.1838878,0.75570536,0.99375725,200,997361934,0.50722873,-0.27534109999999995,-0.8063773,-0.12908253,-0.0018177163000000001,-1.0950874,0.8322048000000001
199.0,997378601.0,-0.4214161,-0.18440525,0.27706435,-0.8435870000000001,0.25782084,0.8473562,0.37534904,201,997378601,0.50731266,-0.27550974,-0.8066858,-0.12643865,0.40209377,-0.7439707,0.174407
200.0,997395268.0,-0.42027890000000007,-0.17777157,0.27415827,-0.8465226999999999,0.06076155,0.34532103,0.48822020000000005,202,997395268,0.5072712,-0.27565035,-0.80694747,-0.12461596,0.09525675,-0.42872265,0.56052303
201.0,997411935.0,-0.41904122,-0.17168361,0.27214155,-0.8490398000000001,-0.09238081,-0.17887916,0.68410397,203,997411935,0.5075505,-0.27557775,-0.8070608,-0.12289482,0.18075895,-0.6346871999999999,0.7945385
202.0,997428602.0,-0.41772538,-0.16655286,0.27068388,-0.8511735,0.10931616,0.34748453,0.64030457,204,997428602,0.5077728,-0.2756716,-0.80709153,-0.12155613,0.41246367,-0.014016163,0.3300228
203.0,997445269.0,-0.41644147,-0.1619082,0.26923448,-0.8531563,0.19494453,0.35793978,0.5552349,205,997445269,0.50775486,-0.27601620000000004,-0.8071003999999999,-0.120788395,-0.18535662,-0.20576190000000003,0.46436882
204.0,997461936.0,-0.41527176,-0.15752879999999997,0.26768106,-0.8550329,0.6169024999999999,0.29280314,0.5176916,206,997461936,0.5078419,-0.27604988,-0.80718756,-0.119757526,-0.20346831,-0.7725595999999999,0.3985138
205.0,997478603.0,-0.41422036,-0.15357281,0.2659087,-0.8568139000000001,0.8873631999999999,0.5554943,0.52126694,207,997478603,0.5078817,-0.27561358,-0.80744827,-0.11883289999999999,-0.047745943,-1.0345117,0.49523258
206.0,997495270.0,-0.41273132,-0.15032619,0.26380724,-0.8587556000000001,0.46441376,0.49057803,0.7234811999999999,208,997495270,0.5077944000000001,-0.274914,-0.8078717,-0.11794432,0.3333242,-0.91547185,0.3562765
207.0,997511937.0,-0.41081595,-0.1477771,0.26094514,-0.8609880999999999,0.89626884,0.6059343,0.7191868,209,997511937,0.5069358,-0.27509898,-0.80836016,-0.117861174,-0.14402996,0.3754281,0.24076366
208.0,997528604.0,-0.4092462,-0.1449365,0.25849992,-0.86295396,0.9513610999999998,0.1528385,-0.09108639,210,997528604,0.5049544,-0.2757788,-0.8091782,-0.11915759,-1.8612965,0.2928525,0.3403368
209.0,997545271.0,-0.40755898,-0.14165077,0.25660348,-0.8648617000000001,1.5113882,-0.30241963,0.41375923,211,997545271,0.50355476,-0.27491388,-0.8102202,-0.11999492,-1.731902,-0.55387205,0.84640217
210.0,997561938.0,-0.40563309999999997,-0.1388064,0.25416592,-0.86694556,1.6936053,0.5908428000000001,0.38342,212,997561938,0.5026132999999999,-0.27333784,-0.8113408000000001,-0.11997006,-0.50995463,-0.50522184,0.20813656
211.0,997578605.0,-0.4037107,-0.13672362,0.25101653,-0.8690888000000001,0.9432761000000001,1.00203,0.16052341,213,997578605,0.5012832,-0.27180582,-0.81261253,-0.12040684,-0.04476562,-0.7688344,-0.22005844
212.0,997595272.0,-0.40167895,-0.13530634,0.24742414,-0.8712796,0.302371,0.6241802,0.21039581,214,997595272,0.50030243,-0.26994440000000003,-0.8138119,-0.12057419999999999,0.021484066,-0.48210559999999997,-0.04928875
213.0,997611939.0,-0.3997521,-0.13428941,0.24362086,-0.87339216,-0.04769118,0.06762066,0.31290722,215,997611939,0.49920002,-0.26860120000000004,-0.8148703,-0.12099431,0.21860327,0.28767616,0.3243208
214.0,997628606.0,-0.39816073,-0.1329979,0.24031089,-0.87523186,-0.56809705,-0.40325946,0.1325159,216,997628606,0.49793968,-0.26755035,-0.8158880999999999,-0.12165519,0.45150290000000004,0.33211747,0.2134552
215.0,997645273.0,-0.3967155,-0.13151132,0.23769452,-0.87682563,-0.7898274000000001,-0.8768157,-0.16640472,217,997645273,0.49668720000000005,-0.26674896,-0.8168129,-0.122328185,0.8391666999999999,0.2595132,-0.0078020096
216.0,997661940.0,-0.3955214,-0.12990059,0.23546442,-0.87820584,-0.8213205,-0.43110514,0.01924324,218,997661940,0.49539408,-0.26614538,-0.81767285,-0.123137854,0.7717889,0.311648,0.06393623
217.0,997678607.0,-0.39448985,-0.12834883,0.23321767,-0.8794966000000001,-0.7583428000000001,-0.008300824,0.12798786,219,997678607,0.49427020000000005,-0.26550690000000005,-0.81843615,-0.12395917599999999,0.68043154,0.37988138,0.19451714
218.0,997695274.0,-0.39364970000000005,-0.12722446,0.23082156,-0.8806676,-0.5992105,-0.19476941,0.02855587,220,997695274,0.4935744000000001,-0.26476657,-0.8190286999999999,-0.12440094,0.7501403,0.062302447999999996,-0.052466393
219.0,997711941.0,-0.39299682,-0.12613773,0.22857766,-0.8817002,-0.74919325,-0.59220374,-0.29502392,221,997711941,0.49325544,-0.26424232,-0.8194113000000001,-0.12426195,0.92782396,0.11216472,-0.19457531
220.0,997728608.0,-0.39263254,-0.12497039,0.22661245,-0.88253564,-0.6273333000000001,-0.52738804,0.01146698,222,997728608,0.49282086,-0.26442114,-0.81959987,-0.1243605,0.7524656999999999,0.51340264,0.075855255
221.0,997745275.0,-0.39251426,-0.12379649999999999,0.22483209999999998,-0.8832088,-0.6177438000000001,-0.29850590000000005,0.15961361,223,997745275,0.49203455,-0.26503077,-0.8197621999999999,-0.12510484,0.42776042,0.43874642,0.23450184
222.0,997761942.0,-0.3924738,-0.12254432,0.22329599,-0.8837908999999999,-0.16906056,-0.07906279,0.032349586,224,997761942,0.4911365,-0.2658526,-0.81988794,-0.12606294,0.17287922,0.20814767,0.13861275
223.0,997778609.0,-0.39244288,-0.12138627,0.22176066,-0.88435084,-0.002071518,-0.057910475999999995,0.15799141,225,997778609,0.4905044,-0.26633102,-0.81999785,-0.12679702,-0.014428656000000002,-0.11954088,0.13930988
224.0,997795276.0,-0.39227890000000004,-0.120340146,0.22026944,-0.8849389999999999,-0.21630354,-0.03400476,0.055864334,226,997795276,0.49025893,-0.26630040000000005,-0.8201152,-0.12705013,0.14265491,-0.16956364,0.099658966
225.0,997811943.0,-0.39197272,-0.11932550000000001,0.21878379999999997,-0.8855805,-0.19337569,0.07392428,0.08760357,227,997811943,0.49001852,-0.26616204,-0.8202621999999999,-0.12731832,0.32354462,-0.09602709,0.10257149
226.0,997828610.0,-0.39163065,-0.11833622,0.21725821,-0.88623995,-0.17189929,0.16740869,0.18156433,228,997828610,0.48959273,-0.2661344,-0.8204341,-0.12790623,0.25256607,-0.0066403463,0.24611378
227.0,997845277.0,-0.39121500000000003,-0.11742847,0.21560100000000001,-0.88694865,0.034732964,0.11361745,0.24373436,229,997845277,0.4891288,-0.2660533,-0.8206325000000001,-0.12857470000000001,0.07929122400000001,-0.049052153,0.2748747
228.0,997861944.0,-0.39079887,-0.11668479400000001,0.21378562,-0.88766927,0.22026017,0.19342266,0.18278408,230,997861944,0.48870057,-0.26586398,-0.8208523999999999,-0.12918977,-0.045068704,-0.066085294,0.22380638
229.0,997878611.0,-0.3904041,-0.11598834,0.21177554,-0.888416,0.17428339,0.1328547,-0.02641964,231,997878611,0.48837040000000004,-0.26544312,-0.821111,-0.12965958,-0.15082788,-0.060492665,0.042373657
230.0,997895278.0,-0.3899893,-0.11513617,0.20979048,-0.8891795,0.05131578,-0.04083945,-0.13404655,232,997895278,0.48808113,-0.26493746,-0.8213780999999999,-0.1300895,-0.0928589,0.047779024,-0.045376778
231.0,997911945.0,-0.38942540000000003,-0.11431249,0.20793203,-0.88996917,0.063329324,-0.089668505,0.032479286,233,997911945,0.48770050000000004,-0.26456824,-0.8216438,-0.13059081,-0.107921444,0.004999985,0.082219124
232.0,997928612.0,-0.3885815,-0.11369646,0.2061521,-0.8908306999999999,0.22133169,0.30608952,0.20152473,234,997928612,0.48729068,-0.26423365,-0.82193255,-0.13098001,-0.28823456,-0.025034392000000003,0.18972969
233.0,997945279.0,-0.38751575,-0.11322783,0.20415479,-0.891814,0.26861888,0.27862254,0.11802387,235,997945279,0.48678069999999996,-0.26361224,-0.82236975,-0.13138385,-0.25648558,0.08364011,0.13627720000000001
234.0,997961946.0,-0.38624826,-0.112870514,0.20190243,-0.8929212,0.03832426,-0.15993363,-0.005865097,236,997961946,0.48614759999999996,-0.26291955,-0.8228793,-0.1319234,-0.1243872,0.15927209,-0.009628296
235.0,997978613.0,-0.38474524,-0.11240180599999999,0.19985384,-0.89408946,-0.23057261,-0.52031803,-0.14753819,237,997978613,0.4855208,-0.2622386,-0.823393,-0.13238184,0.022743337000000002,0.2266456,-0.056973457000000005
236.0,997995280.0,-0.38320982,-0.11174021,0.19817,-0.89520586,-0.18199117,-0.72013175,-0.075250626,238,997995280,0.4849662,-0.26162836,-0.8238675999999999,-0.13266893,0.25660583,0.32125628,-0.015507698
237.0,998011947.0,-0.38205963,-0.111022405,0.19674203,-0.89610124,0.0072167865,-0.77129376,0.036188126,239,998011947,0.48437893,-0.26119164,-0.82430756,-0.13294205,0.41730985,0.44967799999999997,0.025556564
238.0,998028614.0,-0.38163695,-0.110292666,0.19555179999999997,-0.89663184,0.03235652,-0.63347983,0.018982887,240,998028614,0.48369223,-0.2610128,-0.82469827,-0.13336954,0.3942489,0.40466517,0.013149261499999999
239.0,998045281.0,-0.3817932,-0.109710716,0.19446312,-0.8968733,-0.0024863582,-0.51107806,0.00807476,241,998045281,0.48306499999999997,-0.26088575,-0.82505506,-0.13368426,0.34572917,0.34831253,-0.040358543
240.0,998061948.0,-0.38211745,-0.10949953,0.19320004,-0.8970341000000001,-0.13482319,-0.5170895999999999,0.0050563809999999995,242,998061948,0.48247933,-0.26085737,-0.8253773000000001,-0.13386527,0.37224877,0.40385035,-0.06249237
241.0,998078615.0,-0.38248768,-0.10968313,0.1918194,-0.8971503000000001,-0.2084869,-0.49392128,-0.11735821,243,998078615,0.48193073,-0.26094627,-0.8256538,-0.13396275,0.30945703,0.37332118,-0.12484741
242.0,998095282.0,-0.38292998,-0.10976404,0.19069326,-0.8971918,-0.36817703,-0.59414506,-0.27257824,244,998095282,0.4815267,-0.26117837,-0.82583433,-0.13385029,0.22057576,0.30152357,-0.2002039
243.0,998111949.0,-0.38333190000000006,-0.10977328,0.18984957,-0.89719796,-0.37485602,-0.6811067,-0.0986166,245,998111949,0.48118767,-0.26154494,-0.8259414,-0.13369344,0.17571293,0.30079257,-0.057113647000000003
244.0,998128616.0,-0.3835676,-0.10975370000000001,0.18944053,-0.8971859000000001,-0.37398875,-0.44441277,0.035001755,246,998128616,0.48083732,-0.26202172,-0.8260141,-0.13357161,0.18917511,0.26987076,0.17154217
245.0,998145283.0,-0.38371485,-0.10971267,0.18928820000000002,-0.8971601,-0.3113787,-0.18820257,-0.005590439,247,998145283,0.480462,-0.26259112,-0.82607013,-0.13345793,0.23988752,0.28320834,0.13488483
246.0,998161950.0,-0.3838452,-0.10970673,0.18931238,-0.8970999,-0.3286442,-0.25885075,0.030538559,248,998161950,0.48009409999999997,-0.26319036,-0.82610726,-0.13337061,0.24626277,0.090042755,0.030691147000000002
247.0,998178617.0,-0.38398355,-0.10966709,0.18979029999999997,-0.8969446,-0.33952412,-0.24400099,0.06076336,249,998178617,0.47982759999999997,-0.26381662,-0.82609123,-0.13319242,0.32287854,0.020039948000000002,0.062812805
248.0,998195284.0,-0.38412157,-0.10945258,0.19040008,-0.8967824000000001,-0.43444269999999996,-0.05308905,0.04924774,250,998195284,0.47959653,-0.26447254,-0.82604206,-0.13302954,0.4139393,0.10522252,0.19849586
249.0,998211951.0,-0.3843251,-0.10909282,0.19097811,-0.8966162,-0.45168465,0.07714536,0.13432503,251,998211951,0.47934863,-0.26523063,-0.82594895,-0.13299042,0.4366748,0.050662227000000004,0.17835331
250.0,998228618.0,-0.38462540000000006,-0.10875182,0.19141313,-0.89643604,-0.37518185,0.17431416,0.16147709,252,998228618,0.4791674,-0.2660493,-0.8257909,-0.13299021,0.37238464,-0.0045660846,0.20290375
251.0,998245285.0,-0.38497615,-0.10843791,0.19158139999999999,-0.89628756,-0.26748314,0.21649966,0.11150074,253,998245285,0.47908490000000004,-0.26676136,-0.825614,-0.13296032,0.3399518,-0.09816957,0.16099072
252.0,998261952.0,-0.38532063,-0.10807984,0.19160852,-0.8961769,-0.28616533,0.07751527400000001,0.120248795,254,998261952,0.47903413,-0.26744416,-0.8254142,-0.13301098,0.3055277,-0.10821268,0.18314075
253.0,998278619.0,-0.38558537,-0.107613675,0.19162348,-0.896116,-0.29803547,-0.025109977000000002,0.18381786,255,998278619,0.47909009999999996,-0.26801175,-0.82519174,-0.13304754,0.24801489999999998,-0.064024724,0.26285934
254.0,998295286.0,-0.38584274,-0.10703782,0.19182543,-0.8960311,-0.28925500000000004,-0.07224676,0.1734066,256,998295286,0.47933787,-0.2684645,-0.8249112,-0.1329823,0.22239584,-0.012027679,0.2557974
255.0,998311953.0,-0.38614145,-0.106318556,0.19218475,-0.895911,-0.19185536,-0.13009407,0.08656788,257,998311953,0.47962388,-0.26893625,-0.82459754,-0.13294208,0.23629476,0.042161696,0.13716888
256.0,998328620.0,-0.3865597,-0.1055327,0.1927286,-0.8957068000000001,-0.09623987,-0.05461902,0.10106373,258,998328620,0.47987640000000004,-0.26948518,-0.8242521,-0.13306098,0.16936962,0.09706788,0.1427517
257.0,998345287.0,-0.38708028,-0.104706936,0.19328022,-0.89545983,0.015046724,-0.019213174,0.12340164,259,998345287,0.4801103,-0.27005553,-0.82390356,-0.13321953,0.07169536,0.023495346,0.12599182
258.0,998361954.0,-0.38764778,-0.10394699,0.19370228,-0.8952118,0.20026739,0.09181055,0.12762642,260,998361954,0.48033607,-0.27059796,-0.82356536,-0.13339595,-0.0002346886,-0.021073919,0.11994934
259.0,998378621.0,-0.38822415,-0.103304446,0.19401331,-0.894969,0.27922598,0.1393078,0.09144497,261,998378621,0.48057443,-0.271007,-0.82326955,-0.13353312,-0.13344215,-0.06672633,0.077264786
260.0,998395288.0,-0.3887335,-0.10285756,0.19408561,-0.8947835,0.3942565,0.117496684,0.06908417,262,998395288,0.48075864,-0.27135086,-0.8230228999999999,-0.13369182,-0.19305573,-0.08072439,0.02798748
261.0,998411955.0,-0.3891353,-0.10258131,0.19397709,-0.89466417,0.40797886,0.085823804,0.12648582,263,998411955,0.48086733,-0.27160308,-0.822846,-0.13387771,-0.2571968,-0.04558245,0.10920143
262.0,998428622.0,-0.38942242,-0.102392994,0.19383642,-0.8945914,0.37201944,0.040245995,0.12330246,264,998428622,0.48094609999999993,-0.27174285,-0.8227283999999999,-0.13403402,-0.27244663,-0.041226964,0.15309048
263.0,998445289.0,-0.38959208,-0.10228259,0.1936361,-0.8945735999999999,0.30097982,0.042403314000000004,0.11332321,265,998445289,0.48096716,-0.2717728,-0.82268196,-0.1341826,-0.22857642,0.04349037,0.1296215
264.0,998461956.0,-0.38965900000000003,-0.102239594,0.1933891,-0.8946027,0.3173277,-0.07935554,0.060297012000000004,266,998461956,0.48090917,-0.27175802,-0.82269675,-0.13432983,-0.18161948,0.048188277,0.054327965
265.0,998478623.0,-0.3896402,-0.10222117,0.19306947,-0.8946821,0.23824883,-0.058580317,0.041685104,267,998478623,0.48078936,-0.27168176,-0.82276666,-0.13448521,-0.17378534,0.051362943,0.06868172
266.0,998495290.0,-0.38957506,-0.10224918,0.19271296,-0.8947839,0.20936805,-0.10296004,0.030106544,268,998495290,0.48059973,-0.271566,-0.82288647,-0.13466258,-0.08897649,0.060415215999999994,0.052490234000000004
267.0,998511957.0,-0.38944098,-0.10231542,0.19236203,-0.8949103,0.045724493,-0.104639515,-0.0023174286,269,998511957,0.480407,-0.27143148,-0.8230173000000001,-0.13482231,-0.027602823,0.09161463,0.06389046
268.0,998528624.0,-0.3892071,-0.10239926,0.19197443,-0.89508563,-0.0055900030000000005,-0.08352707,0.0018072128,270,998528624,0.4802215,-0.27124324,-0.8231708000000001,-0.13492467,0.01950374,0.03350068,0.059365272999999996
269.0,998545291.0,-0.3889416,-0.10257417,0.19169368,-0.8952413,-0.024605703,-0.08365054,0.04766178,271,998545291,0.48007604,-0.2710031,-0.82332677,-0.13497406,0.08429836,0.04863474,0.059604645
270.0,998561958.0,-0.38870457,-0.10263132,0.19132190000000002,-0.8954171000000001,-0.044111345,-0.044878997000000004,0.0057249069999999996,272,998561958,0.47993606,-0.27076936,-0.8234766,-0.13502645,0.11844980000000001,0.07433203,0.11739731
271.0,998578625.0,-0.38854188,-0.10258232,0.19091421,-0.8955805,-0.10100523,-0.09112914,0.15515614,273,998578625,0.47978420000000005,-0.2705242,-0.82363504,-0.13509189,0.14040995,0.09198017,0.18041801
272.0,998595292.0,-0.38833964,-0.10265399,0.19071577,-0.895702,-0.19417448,-0.281688,0.16400051,274,998595292,0.47963884,-0.27030790000000005,-0.82377934,-0.13516155,0.17394717,0.08520839,0.15733528
273.0,998611959.0,-0.38817754,-0.10269123,0.19085768,-0.8957379999999999,-0.29165268,-0.11897645,0.06019211,275,998611959,0.47951433,-0.27011657,-0.82390124,-0.13524136,0.24898627,0.090340585,0.0879879
274.0,998628626.0,-0.38802454,-0.10269905,0.19110854,-0.8957497999999999,-0.2320521,-0.15435757,-0.012833595,276,998628626,0.47942603,-0.27000844,-0.82396936,-0.13535541,0.26138118,0.08516917,0.07977486
275.0,998645293.0,-0.3879229,-0.10254983599999999,0.19127423,-0.89577544,-0.15257558,-0.111954905,-0.025558472000000002,277,998645293,0.47935572,-0.2699342,-0.8240152000000001,-0.13547376,0.26638340000000005,0.09755346,0.05348205599999999
276.0,998661960.0,-0.38787058,-0.10245379,0.19142443,-0.8957771000000001,-0.19875023,-0.06275399999999999,0.08389282,278,998661960,0.47929493,-0.269875,-0.8240484,-0.13560392,0.23452902,0.14935179999999998,0.104094505
277.0,998678627.0,-0.38788092,-0.10230423,0.19146229999999997,-0.89578164,-0.18368775,-0.17999461,0.050070763,279,998678627,0.4792513,-0.26984373,-0.8240625,-0.13573425,0.21683885,0.123192854,0.12627316
278.0,998695294.0,-0.38791707,-0.10216532,0.19146934,-0.89578027,-0.15205257,-0.18188573,0.077923775,280,998695294,0.47925165,-0.2698272,-0.8240581,-0.13579297,0.17216800000000002,0.14581907,0.11672974
279.0,998711961.0,-0.38794616,-0.1020656,0.19149628,-0.8957734,-0.15024552,-0.2125764,0.08642197,281,998711961,0.4792252,-0.26986778,-0.8240453999999999,-0.13588344,0.17660831,0.13620746,0.09706783
280.0,998728628.0,-0.38799167,-0.10196892,0.19170853,-0.89571923,-0.20002343,-0.20957820000000002,0.024970055,282,998728628,0.47922444,-0.26993263,-0.82401353,-0.13595025,0.15649393,0.11440644400000001,0.08449364
281.0,998745295.0,-0.3880721,-0.101818964,0.19196835,-0.8956458,-0.103737675,-0.092319705,0.005676269499999999,283,998745295,0.47927296,-0.27003095,-0.82395,-0.13596909,0.14820070000000002,0.11055510000000002,0.020961761000000002
282.0,998761962.0,-0.38821352,-0.10165915,0.19215420000000002,-0.8955629,-0.034866624,-0.0556072,0.07110596,284,998761962,0.47927314,-0.27019927,-0.8238840000000001,-0.13603398,0.1346089,0.08586887,0.08994007
283.0,998778629.0,-0.38837119999999997,-0.10151297599999999,0.19227259,-0.8954857,-0.011662961999999999,0.026134755,0.09714222,285,998778629,0.47922862,-0.27037108,-0.8238333000000001,-0.13615674,0.08073154,0.09437812,0.18668175
284.0,998795296.0,-0.38847798,-0.10142050000000001,0.19222783,-0.8954593000000001,0.022307208,-0.041388117,0.10042763,286,998795296,0.47917694,-0.2704822,-0.8238082,-0.13626882,0.028745042000000002,0.07847943,0.10378647
285.0,998811963.0,-0.38855225,-0.10136529,0.19218668,-0.89544225,-0.0036430936,-0.11344339,-0.0107584,287,998811963,0.47921923,-0.27047798,-0.82379067,-0.13623498,0.012236888000000001,0.026898778999999998,0.0013198853
286.0,998828630.0,-0.38860798,-0.10131443,0.19220622,-0.8954196,-0.031401727000000004,-0.120743036,-0.042658805999999994,288,998828630,0.47929174,-0.27049336,-0.8237578000000001,-0.1361487,0.091939375,0.05516579,-0.00730896
287.0,998845297.0,-0.38867095,-0.101259634,0.19222724,-0.89539397,-0.024166387999999997,-0.049596325,0.069499016,289,998845297,0.47931165,-0.27055553,-0.8237360999999999,-0.1360866,0.054088347,0.07800412,0.13231087
288.0,998861964.0,-0.38872984,-0.101235285,0.19215746,-0.8953860999999999,-0.007893416,0.021104848,0.10899925,290,998861964,0.47936645,-0.27056465,-0.8237216999999999,-0.13596253,0.08896665,0.06443286,0.1629219
289.0,998878631.0,-0.38876492,-0.10125877,0.19194852,-0.89541304,-0.014300247,-0.0017128356,0.039016723999999996,291,998878631,0.47940552,-0.2705361,-0.8237242,-0.13586602,0.11506224,0.045958175999999996,0.110630035
290.0,998895298.0,-0.38879818,-0.10123862,0.19161135,-0.89547306,-0.060390405,-0.06705556,0.08626366,292,998895298,0.4794186,-0.27051273,-0.82372916,-0.13583666,0.12634249,0.060724225,0.1292324
291.0,998911965.0,-0.38879976,-0.10124751,0.19131942,-0.8955337999999999,-0.1031585,-0.12790962,0.072481155,293,998911965,0.47948042,-0.2704426,-0.82373405,-0.13572814,0.09842348,0.047660787,0.100382805
292.0,998928632.0,-0.388802,-0.10124021,0.19112885,-0.8955744000000001,-0.10931589,-0.11966543,-0.010751723999999999,294,998928632,0.47961090000000006,-0.27034163,-0.8237275,-0.1355083,0.13728881,-0.01500353,0.039488792
293.0,998945299.0,-0.3888178,-0.10119724,0.190985,-0.8956030999999999,-0.06665028,-0.06560287,0.044299125999999994,295,998945299,0.4797443,-0.27024448,-0.8237136,-0.13531409,0.18087205,0.0061490647,0.08068466
294.0,998961966.0,-0.38886896,-0.10114481,0.19077724,-0.8956311,-0.08486575,-0.02530949,0.16210938,296,998961966,0.47984964,-0.27019164,-0.823686,-0.13521285,0.16758017,0.09075062,0.23378277
295.0,998978633.0,-0.3889469,-0.10109428,0.19050367,-0.89566123,-0.14657477,-0.06263839,0.12068844,297,998978633,0.47994682,-0.27014837,-0.82365996,-0.13511318,0.17795566,0.10863814,0.17597485
296.0,998995300.0,-0.3890357,-0.101035975,0.19024344,-0.89568466,-0.14537779999999997,-0.18154655,-0.00886631,298,998995300,0.48006186,-0.27013353,-0.8236201999999999,-0.13497652,0.17657791,0.14713891,0.00121212
297.0,999011967.0,-0.38919666,-0.10095618,0.19006503,-0.8956615,-0.07044743,-0.24219154,-0.034391403,299,999011967,0.48012330000000003,-0.27019948,-0.8235796999999999,-0.13487276,0.17037857,0.18597496,-0.015318871000000001
298.0,999028634.0,-0.38943857,-0.10089837,0.18992768,-0.8955919,-0.034001797,-0.20416138,0.017798424,300,999028634,0.48010197,-0.27040035,-0.8235243,-0.13488494,0.10440916,0.22947964,0.07953739
299.0,999045301.0,-0.38973343,-0.10082588,0.18985638,-0.895487,-0.03544245,-0.23578142,0.08230114,301,999045301,0.4800688,-0.2706466,-0.82347065,-0.13483708,0.025390625,0.17369069,0.14352322
300.0,999061968.0,-0.39004920000000004,-0.10077917,0.18985598,-0.89535487,0.06928684,-0.10173611,0.082214355,302,999061968,0.48006898,-0.2708988,-0.82340753,-0.13471618,-0.0012597189999999999,0.12319139999999999,0.13092613
301.0,999078635.0,-0.39038253,-0.10082134599999999,0.18981023,-0.8952144000000001,0.1528918,-0.016243609,0.094548225,303,999078635,0.48006606,-0.27107513,-0.82337254,-0.1345843,-0.033940442,-0.008869106,0.09951687
302.0,999095302.0,-0.39059746,-0.10099535400000001,0.18957238,-0.8951514000000002,0.10930476,-0.016269257,0.09343624,304,999095302,0.48008019999999996,-0.27117792,-0.82334846,-0.13447395,-0.042330973,-0.073938385,0.15692520000000001
303.0,999111969.0,-0.3907042,-0.101113364,0.18944955,-0.8951174999999999,0.029457777999999997,0.021599927999999997,0.104584694,305,999111969,0.4801455,-0.27113137,-0.8233523000000001,-0.13431193,-0.011058527,-0.062833406,0.17103863
304.0,999128636.0,-0.39073536,-0.101168476,0.18931992,-0.89512515,0.04377652,0.015336676499999998,0.0050554276,306,999128636,0.48018232,-0.27104834,-0.82338125,-0.13416992,0.0735599,-0.07177314,0.04983902
305.0,999145303.0,-0.39071867,-0.10119057,0.18921998,-0.89515114,0.039182156,0.01832133,0.056684494,307,999145303,0.48012936,-0.27104490000000003,-0.82341266,-0.13417308,0.09826613,-0.061653256,0.0666914
306.0,999161970.0,-0.39066535,-0.101249866,0.18903431,-0.89520705,0.06740564,0.08986277,0.1595993,308,999161970,0.48003736,-0.27108106,-0.8234358,-0.1342875,0.0380352,-0.055470664,0.18870544
307.0,999178637.0,-0.39057073,-0.10136829,0.18871129,-0.89530295,0.056983512,0.12870656,0.18705654,309,999178637,0.48001350000000004,-0.27101058,-0.8234620999999999,-0.13435374,0.038390137000000005,-0.11273189,0.23534489
308.0,999195304.0,-0.39043587,-0.10150983,0.18832119,-0.8954280000000001,-0.023757862,0.14458832,0.11830139,310,999195304,0.48006450000000006,-0.27086318,-0.8234781999999999,-0.13437003,0.12993881,-0.17108129,0.15997314
309.0,999211971.0,-0.39026123,-0.10161545,0.18793976,-0.8955723,-0.16846697,0.1478164,0.09149647,311,999211971,0.48013327,-0.27072874,-0.82346755,-0.13446064,0.20708185,-0.27847388,0.14725399
310.0,999228638.0,-0.38999164,-0.10165018599999999,0.18772008,-0.8957316999999999,-0.21980694,0.21014073,0.19738293,312,999228638,0.48026450000000004,-0.2705681,-0.82340777,-0.1346809,0.19179378,-0.340771,0.29398823
311.0,999245305.0,-0.38959520000000003,-0.10161500400000001,0.18765968,-0.895921,-0.31605262,0.2661048,0.23490334,313,999245305,0.4805075,-0.27039745,-0.82328075,-0.13493297,0.28190213,-0.3536621,0.32358359999999997
312.0,999261972.0,-0.38909520000000003,-0.101578794,0.18776391,-0.8961203999999999,-0.30432758,0.22861321,0.24215317,314,999261972,0.48085052,-0.27019554,-0.82309353,-0.13525732,0.28856686,-0.30501437,0.29544926
313.0,999278639.0,-0.38848248,-0.10161666,0.18802839999999998,-0.8963264000000001,-0.40770093,0.31060228,0.3080387,315,999278639,0.4813121,-0.26989132,-0.8228537,-0.13568239,0.21770340000000002,-0.34592798,0.34636116
314.0,999295306.0,-0.38761207,-0.10174237,0.18843533,-0.8966033999999999,-0.57382584,0.36642116,0.38826942,316,999295306,0.4820874,-0.26923522,-0.8225621999999999,-0.13600065,0.16452253,-0.33156314,0.5290575
315.0,999311973.0,-0.38653377,-0.101937994,0.18908161,-0.89691067,-0.41157934,0.07513111,0.23454094,317,999311973,0.48329884,-0.26798913,-0.8222905999999999,-0.13580395,0.40668765,-0.18309186,0.30310535
316.0,999328640.0,-0.38533816,-0.10244557,0.18956165,-0.897266,-0.23844804,-0.26790559999999997,0.008922577,318,999328640,0.48477954,-0.26641595,-0.8220154000000001,-0.13528673,0.66192377,0.23187111,-0.18435001
317.0,999345307.0,-0.38458923,-0.10318655,0.18972574,-0.8974675999999999,-0.32950252,-0.49948826,-0.24776077,319,999345307,0.48595790000000005,-0.26518065,-0.82174355,-0.13513762,0.7326022,0.718418,-0.27271557
318.0,999361974.0,-0.38445807,-0.10361029,0.19026126,-0.89736164,-0.59593374,-0.71677667,-0.55254745,320,999361974,0.48680969999999996,-0.26441967,-0.8214621999999999,-0.13527386,0.5234671,0.7420908,-0.19995499
319.0,999378641.0,-0.38448688,-0.10370559,0.1908683,-0.8972094,-0.20934442,-0.83734906,-0.46934414,321,999378641,0.4876009,-0.26397067,-0.8211645000000001,-0.13510807,0.14869376,0.51877236,-0.32975959999999993
320.0,999395308.0,-0.38417917,-0.10435029,0.19180357,-0.8970669,0.30794728,-0.8218681999999999,-0.33473109999999995,322,999395308,0.48847929999999995,-0.26349038,-0.8208985000000001,-0.13448752,-0.2602348,0.5157108,-0.3628006
321.0,999411975.0,-0.38355592,-0.10543339999999998,0.19255450000000002,-0.8970461,0.49180886,-0.7438273,-0.35973835,323,999411975,0.48963365,-0.26266396,-0.82066065,-0.13335347,-0.61646575,0.76296157,-0.2842703
322.0,999428642.0,-0.38272953,-0.10679755,0.19276565,-0.8971924000000001,0.9526679,-0.9256107,-0.26590633,324,999428642,0.49098074,-0.26147529999999997,-0.8205111999999999,-0.13164566,-0.6800841999999999,1.1140963,-0.60081005
323.0,999445309.0,-0.38233832,-0.108830124,0.1949267,-0.896648,1.4840248,-1.9299973000000001,-0.17363453,325,999445309,0.49198014,-0.26030254,-0.82052016,-0.13017419,-1.0067191,1.5121343,-0.6638364999999999
324.0,999461976.0,-0.38271365,-0.11114004,0.20026997,-0.8950253,1.4291582,-2.476338,0.10234356,326,999461976,0.49298194,-0.2589831,-0.82052076,-0.12900756,-1.7159133999999998,1.0769743999999999,-0.14785576
325.0,999478643.0,-0.38230890000000006,-0.11470607,0.20612188,-0.8934185,0.053717874000000006,-1.6694411,-0.22251892,327,999478643,0.49452728,-0.25724673,-0.8205062,-0.1266377,-0.78433156,0.7540935999999999,0.03412819
326.0,999495310.0,-0.38223884,-0.11824624,0.2108777,-0.89187574,1.5025665000000001,0.42308816,-0.056360245,328,999495310,0.4949741,-0.25666880000000003,-0.82068294,-0.12490684,0.2647522,1.1507174,-0.88460445
327.0,999511977.0,-0.38315222,-0.12374562,0.21293356,-0.89024776,3.1662822,0.29131383,0.7199869000000001,329,999511977,0.49411285,-0.2572123,-0.8210392,-0.124857515,-1.2367696000000001,-0.030009296,0.13656807
328.0,999528644.0,-0.3846748,-0.12862194,0.21357863,-0.88874424,2.1543267000000004,-0.27108625,0.34331512,330,999528644,0.49383888,-0.25645608,-0.8216317,-0.12359184,-1.7648096000000002,-0.9161083000000001,0.5664215
329.0,999545311.0,-0.3856599,-0.13325404,0.21573864,-0.8871118,0.34066537,-1.1918626,-0.29183865,331,999545311,0.49362466,-0.25533718,-0.8224306999999998,-0.12143333,-0.368787,-0.06418454,-0.33916855
330.0,999561978.0,-0.3860413,-0.13813682,0.21938512,-0.88530266,1.2713188,-0.18599024,0.39741707,332,999561978,0.49204618,-0.2553949,-0.82343674,-0.12089923,-0.29245016,0.63921016,0.042497635
331.0,999578645.0,-0.38712922,-0.14314398,0.22274488,-0.88319075,1.6584273999999997,-0.8175456,0.08967972,333,999578645,0.48961082,-0.25592628,-0.82470095,-0.12104561,-0.68597245,0.31088272,0.14880179999999998
332.0,999595312.0,-0.38865170000000004,-0.14808202,0.22585997,-0.8809138000000001,0.86517215,-0.9346258,-0.3561077,334,999595312,0.4868996,-0.25661522,-0.82612777,-0.12079239,-0.17025831,0.24838436,-0.41762733
333.0,999611979.0,-0.39036614,-0.15334354,0.22914752,-0.87840307,0.77815926,-0.8185739000000001,-0.21449375,335,999611979,0.48377517,-0.2577162,-0.8276498999999999,-0.12058246,0.24539822,0.5746230999999999,-0.36650944
334.0,999628646.0,-0.392349,-0.15925394,0.23204798,-0.87570226,0.78243566,-0.28238420000000003,0.065909386,336,999628646,0.48019629999999996,-0.25918493,-0.8292641,-0.1206492,0.123325065,0.6090033,-0.0328722
335.0,999645313.0,-0.39474094,-0.16561393,0.23472016,-0.87273043,0.04259397,-0.34000725,0.2755804,337,999645313,0.4765188,-0.26080674,-0.83085525,-0.12078753,0.21807176,0.028583842999999998,0.17015266
336.0,999661980.0,-0.39720106,-0.17236103,0.23782104,-0.86946225,-0.47543117,-0.28725459999999997,0.25750923,338,999661980,0.47288087,-0.26261914,-0.8323575000000001,-0.12081517,0.7602433000000001,-0.19472509999999998,0.22954369
337.0,999678647.0,-0.39976177,-0.17946263,0.24168216,-0.8657794,-0.78591657,-0.057045422,0.4021721,339,999678647,0.46884733,-0.2648413,-0.83384055,-0.12145688,1.1259879,-0.19163118,0.3728962
338.0,999695314.0,-0.40262637,-0.18678237,0.24602129999999997,-0.86167175,-0.96025085,0.37230733,0.39027214,340,999695314,0.46469775,-0.2673731,-0.83519775,-0.122527465,1.0865146,-0.23819932,0.45888996
339.0,999711981.0,-0.4059533,-0.19420457,0.2504244,-0.85718995,-0.91922885,0.5384399999999999,0.66329193,341,999711981,0.46052396,-0.2701663,-0.8363693000000001,-0.124156214,1.055401,-0.4754094,0.71922874
340.0,999728648.0,-0.40965363,-0.20199522,0.254677,-0.8523625,-0.84330904,0.46348059999999996,0.94042873,342,999728648,0.45640859999999994,-0.27293566,-0.8373968,-0.12635091,1.0991563,-0.48921567,0.9533844000000001
341.0,999745315.0,-0.4134906,-0.2100672,0.2590153,-0.8472359,-1.3165513999999998,0.33221692,0.7153654,343,999745315,0.45246549999999996,-0.27561748,-0.83826023,-0.12895826,1.2321508999999997,-0.52577937,0.8330145
342.0,999761982.0,-0.41740212,-0.21803424,0.26395503,-0.84176284,-1.5671183000000002,0.35722423,0.51542854,344,999761982,0.44886798,-0.27836165,-0.83884686,-0.13179114,1.4752591,-0.8515848,0.77634335
343.0,999778649.0,-0.42157573,-0.22622563,0.26920828,-0.83583695,-1.504032,0.7205252,0.5899781999999999,345,999778649,0.44560072,-0.28121734,-0.8391354,-0.13494115,1.5215061,-0.58290803,0.84789944
344.0,999795316.0,-0.42617592,-0.23446135,0.27415505,-0.82960314,-1.6393086,0.7713946,0.9647931999999999,346,999795316,0.44256845,-0.2840437,-0.83917767,-0.13868675,1.607048,-0.6359345000000001,1.151289
345.0,999811983.0,-0.4310442,-0.24287066,0.2788712,-0.82307106,-1.8001648000000001,0.74970436,1.0482616,347,999811983,0.44026735,-0.2867338,-0.83887774,-0.14224233,1.5957421,-0.7985055,1.2801056
346.0,999828650.0,-0.43619868,-0.25137717,0.28363,-0.8161461,-1.8157192,0.8869060999999999,0.997447,348,999828650,0.43853182,-0.28936902,-0.83822936,-0.14603943,1.4933782,-0.82888246,1.2769156000000002
347.0,999845317.0,-0.44157797,-0.25988656,0.2888123,-0.8087369000000001,-1.7260058,1.0836601000000001,0.88510513,349,999845317,0.43750677,-0.29183507,-0.8372275,-0.14990276,1.1788846000000002,-1.1956216999999998,1.1054068000000001
348.0,999861984.0,-0.4469366,-0.2685335,0.29409754,-0.801027,-1.0821105,1.4136379,0.7977781,350,999861984,0.4367167,-0.29433408,-0.8359615,-0.15432,1.1465222,-1.2050918,0.9604149
349.0,999878651.0,-0.4522187,-0.2773762,0.29926464,-0.7930961999999999,-0.43680725,1.4763635,0.86086845,351,999878651,0.43605357,-0.2968608,-0.83441156,-0.15965113,0.62309444,-1.7171758000000001,1.1488323
350.0,999895318.0,-0.4574147,-0.28652659999999996,0.30414155,-0.78496677,0.4583427,1.8272171000000001,0.95338535,352,999895318,0.43574968,-0.2991486,-0.83262813,-0.16541879,-0.26317490000000004,-1.8703656000000002,1.327321
351.0,999911985.0,-0.4623535,-0.2958551,0.3087426,-0.77677363,1.0088934,2.385327,0.87586594,353,999911985,0.43553123,-0.30063558,-0.8308939000000001,-0.17189158,-1.0296509,-2.1750686000000004,1.2418593999999998
352.0,999928652.0,-0.46642333,-0.30553225,0.31296325,-0.7688651999999999,1.5410979,2.6424005,0.7251996999999999,354,999928652,0.43576843,-0.30091834,-0.82925934,-0.1785601,-1.6616391,-2.4745944,1.0631046
353.0,999945319.0,-0.46926606,-0.31581277,0.3165748,-0.7614674,2.2597039,2.778925,0.68346024,355,999945319,0.43645868,-0.2998774,-0.82778406,-0.18534172,-2.0699139,-2.31557,1.0488892
354.0,999961986.0,-0.47049929999999995,-0.32718990000000003,0.31912845,-0.75480765,2.7855682,2.6137896,0.60273457,356,999961986,0.4373689,-0.29749146,-0.826575,-0.19230618,-2.2550716,-2.1529906000000003,0.87381935
355.0,999978653.0,-0.4700853,-0.33957600000000004,0.32073218,-0.74889207,2.717299,2.4931200000000002,0.29229832,357,999978653,0.43844962,-0.29365715,-0.82571024,-0.19932547,-2.333217,-1.9767225,0.7462225
356.0,999995320.0,-0.46812287,-0.35265774,0.32163435,-0.7436701,1.9213845,2.1604967,-0.06705856,358,999995320,0.440129,-0.2881459,-0.82516885,-0.20580415,-1.9102914,-1.838023,0.33778858
357.0,1000011987.0,-0.46462944,-0.36640435,0.32211825,-0.73899096,1.1266521999999999,1.6482797999999999,-0.37885952,359,1000011987,0.44233823,-0.28144598,-0.8247732,-0.21183690000000002,-1.1358714,-1.4837768999999998,0.04687214
358.0,1000028654.0,-0.46022245,-0.38012636,0.322455,-0.734658,0.62335193,1.3150077,-0.56531715,360,1000028654,0.44473022,-0.27403766,-0.82440495,-0.2178885,-0.45354602,-0.96559864,-0.061205864000000006
359.0,1000045321.0,-0.45483900000000005,-0.39404762,0.32239798,-0.73068994,-0.07458527,0.8564527,-0.67712593,361,1000045321,0.44737065,-0.26600698,-0.8240711,-0.22362316,-0.04477702,-0.8707528,-0.14495373
360.0,1000061988.0,-0.44936344,-0.4076458,0.32210898,-0.7267349,-0.55709565,0.3923114,-0.81742,362,1000061988,0.45058864,-0.25750872,-0.82366014,-0.22856848,0.68631107,-0.4653049,-0.46002007
361.0,1000078655.0,-0.44395116,-0.42090303,0.32173532,-0.72265804,-1.5035226000000002,-0.14713702,-0.97846794,363,1000078655,0.45410243,-0.24906634,-0.8230249,-0.23321052,1.3114825,0.30836874,-0.30255985
362.0,1000095322.0,-0.43906134,-0.43380713,0.32134277,-0.71817535,-2.0918653000000003,-0.7214965999999999,-0.719717,364,1000095322,0.45765984,-0.24122123,-0.82205725,-0.23786992,1.7449560000000002,0.49732129999999997,-0.360672
363.0,1000111989.0,-0.43469685,-0.44636464,0.32162199999999996,-0.7129915,-2.520536,-1.3933178,-0.8451061,365,1000111989,0.46121076,-0.23444679999999998,-0.8206308000000001,-0.24266253,1.9678433999999998,0.9284943999999999,-0.5580578
364.0,1000128656.0,-0.43198872,-0.45770818,0.32283247,-0.7068724000000001,-2.2083724,-0.7493465,-0.9242945,366,1000128656,0.4642047,-0.22901015,-0.81875986,-0.24839695,1.6146603000000002,0.7742951,-0.27690315
365.0,1000145323.0,-0.43021348,-0.46836025,0.32441708,-0.70022076,-1.7538593,-0.8833164000000001,-0.7670212,367,1000145323,0.46719357,-0.22425047,-0.8166549,-0.25400165,1.1562363000000002,0.7053664000000001,-0.47774315
366.0,1000161990.0,-0.42843118,-0.47889894,0.32548925,-0.69365686,-1.2941908000000002,-0.15494186,-0.8934479,368,1000161990,0.46994263,-0.21996076,-0.8144948000000001,-0.2595571,0.49669003,0.6026414999999999,-0.41797543
367.0,1000178657.0,-0.42644970000000004,-0.48963496,0.32671914,-0.6867701,0.004457519,-0.2672901,-0.8729229,369,1000178657,0.47259554,-0.2155969,-0.81239235,-0.26493526,-0.37677714,0.025883136,-0.71311283
368.0,1000195324.0,-0.42404708,-0.50059825,0.32804078,-0.6796876999999999,0.8735957000000001,0.3203315,-0.8778696,370,1000195324,0.47563869999999997,-0.21045098,-0.81053424,-0.26928276,-1.0113696,0.13752618,-0.37929058
369.0,1000211991.0,-0.42059463,-0.5114605,0.32825859999999996,-0.67361337,1.0178452,0.63157755,-0.5880785,371,1000211991,0.4788878,-0.20447913,-0.8089926,-0.27273843,-1.1205223,0.38760522,-0.41127777
370.0,1000228658.0,-0.41546628,-0.52268296,0.3268732,-0.6688384,0.9331332,0.47175807,-0.42252636,372,1000228658,0.4822393,-0.19792406,-0.80771005,-0.2754567,-1.0064391,0.58800673,-0.44362068
371.0,1000245325.0,-0.40988198,-0.5333114000000001,0.32536495,-0.6646156,-0.23186642,0.36238626,-0.59140205,373,1000245325,0.48592687,-0.19094294,-0.80650675,-0.27742259999999996,-0.005146024,0.6278857,-0.5218067
372.0,1000261992.0,-0.4036827,-0.5432901,0.32328886,-0.6613326999999999,-1.1061594,-1.5883728000000001,-0.26565742,374,1000261992,0.4896363,-0.18437499,-0.8052431,-0.27900990000000003,1.1385813,1.7670456,-0.38789654
373.0,1000278659.0,-0.39823955,-0.5526384,0.32134256,-0.6578261,-1.8393533,-1.941831,-0.10319328,375,1000278659,0.4925454000000001,-0.17929119,-0.8038393,-0.28124118,1.5926445,2.2280989,-0.33069134
374.0,1000295326.0,-0.39441925,-0.5604486,0.31985575,-0.6542349000000001,-2.7607852999999998,-2.5300987,-0.008378029,376,1000295326,0.49514589999999997,-0.17554328,-0.80227935,-0.28348452,1.5208677,2.024538,-0.43420124
375.0,1000311993.0,-0.39254916,-0.5672206,0.319786,-0.64954084,-2.5339023999999997,-3.2956703000000003,0.008225441,377,1000311993,0.49727285,-0.17331901,-0.8004991,-0.28615075,1.1047888000000001,1.8438375,-0.36269665
376.0,1000328660.0,-0.39337352,-0.57260805,0.3222828,-0.64304864,-1.7862890999999999,-2.4266484,-0.09190369,378,1000328660,0.49887595,-0.17220813,-0.7985914000000001,-0.28934306,0.19677365,1.0256411,-0.12877846
377.0,1000345327.0,-0.39600572,-0.5769923,0.32634616,-0.63541937,-0.5127912,-1.2569278,0.021022797000000003,379,1000345327,0.5003922000000001,-0.17146670000000003,-0.7967310999999999,-0.2922788,-0.35233644,0.86362207,-0.17984104
378.0,1000361994.0,-0.39886555,-0.5811432,0.329855,-0.6279927,0.9469548000000001,-0.12105797,0.17284393,380,1000361994,0.5017328,-0.17081225,-0.79501575,-0.29502168,-0.78061676,0.86473525,-0.1262703
379.0,1000378661.0,-0.40082399999999996,-0.5850761999999999,0.33282053,-0.62149554,1.6093837,0.25400168,0.22994804,381,1000378661,0.5031558,-0.16956179999999998,-0.7936615,-0.29695964,-1.01162,0.7463612,-0.1355772
380.0,1000395328.0,-0.4013109,-0.58927596,0.33463174,-0.6162185,1.4539341000000001,0.06381764,0.14516449,382,1000395328,0.50452554,-0.16789034,-0.7926264000000001,-0.29834664,-0.8401244000000001,0.70662266,-0.14647865
381.0,1000411995.0,-0.40072092,-0.5933984999999999,0.3356812,-0.6120614999999999,0.43588045,0.15969554,0.08754635,383,1000411995,0.50583637,-0.16611339,-0.7917455,-0.29945895,-0.4236527,0.5219397,-0.05914688
382.0,1000428662.0,-0.39983004,-0.5972171,0.33572945,-0.6088954000000001,-0.105475314,-0.31185982,0.28526306,384,1000428662,0.5068714,-0.16484728,-0.79084903,-0.30077459999999995,0.020966856000000002,0.64435065,-0.064478874
383.0,1000445329.0,-0.39942366,-0.60041094,0.3354173,-0.6061871999999999,-0.027209796,0.02856898,0.11897755,385,1000445329,0.5076475,-0.16393448,-0.789925,-0.3023882,-0.15589358,0.15124820000000003,0.069592476
384.0,1000461996.0,-0.39885970000000004,-0.6036182,0.33534896,-0.603405,0.050672174,-0.14246067,-0.046917915,386,1000461996,0.5087143,-0.16253465,-0.7891822,-0.303289,-0.06059481,0.04019657,-0.09153557
385.0,1000478663.0,-0.3984448,-0.60688114,0.33592737,-0.6000751999999999,-0.24876545,-0.41649783,-0.08043575,387,1000478663,0.50983214,-0.16099602,-0.78851277,-0.30397323,0.18482912,0.3414491,0.075102806
386.0,1000495330.0,-0.39833665,-0.61001796,0.33707663,-0.5963102,-0.13643543,-0.9489504000000001,0.17980099,388,1000495330,0.5108619000000001,-0.1596094,-0.7879276,-0.3044922,-0.21653578,0.6731726,-0.043649673
387.0,1000511997.0,-0.39833182,-0.6130869000000001,0.3384062,-0.59240013,0.35317919999999997,-0.8648054000000001,0.13172817,389,1000511997,0.51175714,-0.15826246,-0.7875354,-0.30470678,-0.79630584,1.0940136,-0.24839878
388.0,1000528664.0,-0.39824309999999996,-0.61573446,0.339294,-0.58919734,1.1398907,-0.98512506,0.24007511,390,1000528664,0.5125153,-0.15685023,-0.7874180000000001,-0.30446583,-1.1527041,1.2154317,-0.27872562
389.0,1000545331.0,-0.39770383,-0.61778665,0.3395895,-0.58723986,0.99219996,-0.9904619,0.23883533,391,1000545331,0.51303643,-0.15545274,-0.7875886,-0.30386335,-1.0382314000000001,1.1319455,-0.21450615
390.0,1000561998.0,-0.39705429999999997,-0.61924565,0.3399988,-0.5859043,0.33393964,-1.0595169,0.27121544,392,1000561998,0.5131435999999999,-0.15455120000000003,-0.78791016,-0.30330813,-0.53171,1.0977119,-0.15069199
391.0,1000578665.0,-0.39731553,-0.6199039000000001,0.34094,-0.5844826,-0.02917481,-0.64183134,0.25965786,393,1000578665,0.5127662000000001,-0.15430947,-0.7882201999999999,-0.30326343,-0.28769425,0.4860772,0.046891212
392.0,1000595332.0,-0.39870954,-0.6199,0.34236425,-0.58270204,0.0060365259999999995,0.059508535999999994,0.1997366,394,1000595332,0.5122787999999999,-0.15419838,-0.78856283,-0.30325297,-0.068965815,-0.012862556,0.14879513
393.0,1000611999.0,-0.40007922,-0.6197993,0.3437852,-0.58103144,-0.022080956000000002,0.31879184,0.088412285,395,1000611999,0.5116645000000001,-0.15431817,-0.7888474,-0.3034893,0.050500962999999996,-0.1584609,0.17931270000000002
394.0,1000628666.0,-0.40103024,-0.61982715,0.3448921,-0.57968867,-0.018944511,0.33836865,0.066716194,396,1000628666,0.511099,-0.15448043,-0.78905207,-0.30382764,-0.02235353,-0.27986687,0.18251419
395.0,1000645333.0,-0.40146740000000003,-0.6201036999999999,0.34552252,-0.57871395,-0.0005687287,0.39450440000000003,0.014799118,397,1000645333,0.510684,-0.15440322,-0.7892806,-0.30397037,0.12695983,-0.13788219,0.15678596
396.0,1000662000.0,-0.40155223,-0.6207488,0.34589732,-0.577739,-0.038625497,0.007082008000000001,0.08933735,398,1000662000,0.5102944,-0.15431778,-0.78948736,-0.30413140000000005,0.08499572,-0.011411342,0.10873318
397.0,1000678667.0,-0.40146276,-0.6216075,0.34620515,-0.57669246,0.1424866,0.0053283256,0.116129875,399,1000678667,0.51004934,-0.15394564,-0.789767,-0.30400488,-0.17094673,-0.054024532,0.017091751000000002
398.0,1000695334.0,-0.40161607,-0.6221849,0.34644663,-0.57581735,0.18158774,0.21448706,0.07581043,400,1000695334,0.5098357,-0.15348876,-0.7900878,-0.30376053,-0.155274,0.1058806,0.0011177063
399.0,1000712001.0,-0.40148014,-0.6226338,0.346423,-0.575441,-0.0016078404,-0.053273867999999995,0.19982052,401,1000712001,0.5095689,-0.15312973,-0.79038775,-0.30360929999999997,-0.17026904,0.0046448787,0.119651794
400.0,1000728668.0,-0.4011,-0.6231308000000001,0.34629732,-0.57524395,-0.29868987,0.07343943,0.12760162,402,1000728668,0.5093324,-0.15272272,-0.79070765,-0.30337800000000004,0.15952656,-0.05816718,0.10127067599999999
401.0,1000745335.0,-0.40053096,-0.6237923000000001,0.34596932,-0.5751206,-0.42747109999999994,0.16655336,0.025871277,403,1000745335,0.50903606,-0.1525854,-0.7909147,-0.30340487,0.48243618,-0.033488892,0.24825573
402.0,1000762002.0,-0.40034200000000003,-0.6243498000000001,0.34579495,-0.5747521,-0.35839486,0.10345141,0.19865894,404,1000762002,0.5087176999999999,-0.15265237,-0.7910048000000001,-0.30367032,0.30444163,-0.14588986,0.26877403
403.0,1000778669.0,-0.40083927,-0.6244523,0.3456495,-0.5743814,-0.19148310000000002,0.12349851,0.32299042,405,1000778669,0.50854784,-0.15247901,-0.7910899,-0.30382007,0.0017805042,-0.29016453,0.24130058
404.0,1000795336.0,-0.40143687,-0.62438524,0.34566438,-0.57402796,-0.20857055,-0.060453325999999995,0.06741333,406,1000795336,0.50853527,-0.15206595,-0.7911838000000001,-0.30380359999999995,0.07439495,-0.067853056,0.117025375
405.0,1000812003.0,-0.4018236,-0.6245246999999999,0.34592405,-0.5734488,-0.37898946,-0.13772376,0.0020008087,407,1000812003,0.50841683,-0.15188771,-0.79122555,-0.3039823,0.16933520000000002,0.20709933,0.03834057
406.0,1000828670.0,-0.40229633,-0.6246574,0.34627292,-0.5727619,-0.16902296,-0.44453666,0.15366077,408,1000828670,0.5081494000000001,-0.15204741,-0.7912085999999999,-0.30439338,0.031132302999999997,0.2770361,0.03567791
407.0,1000845337.0,-0.40290692,-0.6247504,0.34672296,-0.5719585,0.35118312,-0.21244034,0.10737896,409,1000845337,0.5079019,-0.15210201,-0.79126465,-0.30463317,-0.23236676,0.15565151,0.053297042999999995
408.0,1000862004.0,-0.40348178,-0.62468165,0.34724268,-0.57131267,0.20228817,0.05734359,0.08553028,410,1000862004,0.5077512,-0.15197755,-0.7913906999999999,-0.30461928,-0.11998622,0.13207062,0.07962322
409.0,1000878671.0,-0.40343270000000003,-0.62488645,0.34737729999999994,-0.57104146,-0.16858062,-0.14954805,0.099637985,411,1000878671,0.50756645,-0.15199372,-0.79148763,-0.30466685,0.0855393,0.08110296,0.11262512
410.0,1000895338.0,-0.4033449,-0.62495,0.3472071,-0.5711375,-0.19895168,0.028043723,0.23602199999999998,412,1000895338,0.5073992,-0.15200011,-0.79157037,-0.30472738,0.080237575,-0.10345197,0.14811039
411.0,1000912005.0,-0.40321845,-0.62495744,0.3470344,-0.57132345,-0.19589357,0.07855564,0.084970474,413,1000912005,0.5073179,-0.15191010000000002,-0.7916532,-0.30469250000000003,0.19639368,-0.049848027999999996,0.14528751
412.0,1000928672.0,-0.40337682,-0.62503165,0.34711087,-0.5710841,-0.33692154,0.06242046,0.08304405,414,1000928672,0.5072366,-0.15188973,-0.79168135,-0.30476516,0.22597294,-0.082420014,0.16849709
413.0,1000945339.0,-0.4034781,-0.62522525,0.34727356,-0.5707017,-0.24046105,-0.088288285,0.07067299,415,1000945339,0.50716716,-0.15188074,-0.7916837,-0.304879,0.13939296,-0.097138114,0.13361645
414.0,1000962006.0,-0.40375754,-0.625347,0.34756234,-0.57019454,-0.051388424,0.2412552,0.09771538,416,1000962006,0.5071951,-0.15175943,-0.7916763000000001,-0.30491206,0.07439629,-0.05503185,0.12104607
415.0,1000978673.0,-0.40403187,-0.6253669,0.34757844,-0.5699684,-0.050354786,0.13855433,0.16325665,417,1000978673,0.5072445,-0.15168552,-0.7916352,-0.3049732,0.018148357,-0.011644298,0.11782932
416.0,1000995340.0,-0.40398303,-0.62538207,0.34734586,-0.5701282,-0.11946544,-0.031184752000000003,0.17875767,418,1000995340,0.5073209,-0.15161029999999998,-0.7915876000000001,-0.30500716,-0.022120182999999998,-0.010505108999999999,0.11103058
417.0,1001012007.0,-0.40374893,-0.62545335,0.3470557,-0.57039255,-0.14074856,-0.06706327,0.06569481,419,1001012007,0.5073807,-0.15156965,-0.79154134,-0.30504808,0.091660425,0.099321224,0.059306145
418.0,1001028674.0,-0.40339777,-0.62556857,0.34666476,-0.57075226,0.026272717999999997,-0.1530695,0.08819389,420,1001028674,0.5074057,-0.15157400000000001,-0.7915026,-0.30510479999999995,-0.0030415642999999997,0.09355789,0.073812485
419.0,1001045341.0,-0.4032461,-0.6256475,0.34635636,-0.57096016,0.17974879,-0.21098438,0.08845615400000001,421,1001045341,0.50752586,-0.15138689,-0.7915225,-0.30494627,-0.09046776599999999,-0.012644296000000001,0.097275734
420.0,1001062008.0,-0.40333325,-0.6255656999999999,0.34636809999999996,-0.5709809,-0.17233285,0.00024094696,0.09903622,422,1001062008,0.50764424,-0.15117583,-0.79157007,-0.30473027,0.033032086,0.06647231,0.093512535
421.0,1001078675.0,-0.40342632,-0.6254900999999999,0.34642622,-0.5709626999999999,-0.27280092,-0.073753014,0.13387966,423,1001078675,0.5076708,-0.15118370000000003,-0.79154557,-0.3047455,0.12526247,0.03906526,0.12636757
422.0,1001095342.0,-0.40379104,-0.6253314,0.34674168,-0.5706874,-0.015045774,0.07915555,0.043359756,424,1001095342,0.50768924,-0.15123194,-0.79148185,-0.3048566,0.025454102000000003,-0.105074055,0.16203785
423.0,1001112009.0,-0.4041402,-0.625274,0.34700045,-0.5703457,-0.032420106000000004,0.13577898,0.121819496,425,1001112009,0.50779176,-0.1511761,-0.79141504,-0.30488699999999996,0.069868974,-0.11760884,0.16954327
424.0,1001128676.0,-0.40429646,-0.62523836,0.34712425,-0.57019866,-0.20392394,0.153907,0.13805103,426,1001128676,0.50789136,-0.15116258,-0.79131967,-0.30497548,0.111375615,0.00031185645,0.1441307
425.0,1001145343.0,-0.40417397,-0.62516516,0.34688574,-0.5705107,-0.13897455,-0.019839456000000002,0.16729546,427,1001145343,0.5079776,-0.15118021,-0.7912073000000001,-0.30511418,0.010764383999999998,-0.0065041709999999996,0.13265419
426.0,1001162010.0,-0.40399,-0.62513405,0.34650406,-0.5709071,0.07740779,0.02761659,0.021307945,428,1001162010,0.5081488000000001,-0.151035,-0.79113644,-0.30508476,-0.04622516,-0.0040639127,0.09649849
427.0,1001178677.0,-0.40362456,-0.62529355,0.34623587,-0.5711536,0.08348242,-0.10828957,0.008455276500000001,429,1001178677,0.5083294,-0.15089098,-0.79107493,-0.30501497,-0.0028328032,0.06374902,0.07885456
428.0,1001195344.0,-0.40325087,-0.6255194000000001,0.34608987,-0.5712587,-0.009434035,-0.16155808,0.08828544599999999,430,1001195344,0.50845313,-0.15087365,-0.790998,-0.30501690000000004,-0.06886210000000001,0.10851001,0.07993221
429.0,1001212011.0,-0.4031057,-0.6255531999999999,0.345883,-0.57144934,0.12959829,-0.023255852999999996,0.15162182,431,1001212011,0.50856006,-0.15089923,-0.79091054,-0.30505285,-0.109833375,0.1012165,0.16170025
430.0,1001228678.0,-0.40299657,-0.62548894,0.34569293,-0.5717114000000001,0.08045114,-0.102299646,0.18452929999999998,432,1001228678,0.50861555,-0.15102051,-0.79082304,-0.30512694,-0.04130609,0.15919341,0.120568275
431.0,1001245345.0,-0.40288705,-0.62533915,0.34539074,-0.57213515,0.08994642,-0.18543729999999997,0.18180847,433,1001245345,0.5086539000000001,-0.15107457,-0.79076284,-0.30519226,-0.15477960000000002,-0.010749688,0.14542007
432.0,1001262012.0,-0.40290123,-0.62506926,0.3453463,-0.57244676,-0.26927993,-0.17152451,0.08429146,434,1001262012,0.5087798,-0.15092379999999997,-0.79076606,-0.3050486,0.067794606,0.007060942,0.10944080000000002
433.0,1001278679.0,-0.40288946,-0.6249677,0.34545490000000006,-0.57250035,-0.33983022,-0.22130734,0.009104729,435,1001278679,0.50878567,-0.15107358,-0.79068804,-0.30516684,0.2595325,0.07145698,0.097519875
434.0,1001295346.0,-0.40319002,-0.6248718000000001,0.3458343,-0.57216406,0.054583427000000004,-0.016760118,0.02082634,436,1001295346,0.5087081,-0.15141612,-0.7905616,-0.30545408,-0.039720487,0.046495557,0.091861725
435.0,1001312013.0,-0.40342158,-0.62486684,0.34606203,-0.57186866,0.47329316,0.014295442,0.08495712,437,1001312013,0.5086765000000001,-0.1516751,-0.7904861999999999,-0.30557308,-0.28409615,0.31173787,0.060640335
436.0,1001328680.0,-0.40305959999999996,-0.6249493,0.34554404,-0.5723469,0.47947037,-0.25330746,0.25223064,438,1001328680,0.50858843,-0.151998,-0.79046005,-0.30562659999999997,-0.4979721,0.4770223,0.018286705
437.0,1001345347.0,-0.40257102,-0.62473,0.34460655,-0.5734943,0.29706985,-0.27791914,0.27979374,439,1001345347,0.50854105,-0.15211673,-0.790572,-0.3053567,-0.4657943,0.33945674,0.06972885
438.0,1001362014.0,-0.40204263,-0.62426275,0.34368557,-0.5749246,-0.007905877,-0.43371928,0.06254387,440,1001362014,0.5083883,-0.15240894,-0.7907202,-0.30508134,-0.062061947,0.4718683,0.0021715164
439.0,1001378681.0,-0.40161863,-0.62370044,0.3427481,-0.57638896,-0.052483972000000004,-0.44352302,0.07464695,441,1001378681,0.5080435000000001,-0.15306374,-0.7908487,-0.30499570000000004,-0.1514479,0.49386840000000004,-0.030771255
440.0,1001395348.0,-0.40147755,-0.62271637,0.34145117,-0.5783178000000001,0.10124388,-0.32255355,0.23704338,442,1001395348,0.50768024,-0.15383632,-0.79100806,-0.30479786,-0.32066062,0.54841363,-0.0020179749
441.0,1001412015.0,-0.4013271,-0.6210300999999999,0.33967435,-0.5812743,0.09469573,-0.40016463,0.41360283,443,1001412015,0.5073376,-0.15468195,-0.79123753,-0.30434445,-0.20871371,0.6392603,0.01954174
442.0,1001428682.0,-0.40103190000000005,-0.6186574,0.33789337,-0.58503395,-0.31508687,-0.77652246,0.36054897,444,1001428682,0.50692683,-0.1557458,-0.7915144000000001,-0.30376637,0.065340884,0.72680527,0.058384895
443.0,1001445349.0,-0.40044263,-0.61616844,0.33597898,-0.5891526,-0.44837627,-1.1352695,0.35097885,445,1001445349,0.5064204999999999,-0.15701252,-0.7918161,-0.30317152,-0.015526551000000001,0.58909875,-0.008757591
444.0,1001462016.0,-0.3999222,-0.61343855,0.33426073,-0.59331733,-0.4510581,-0.654705,0.20537186,446,1001462016,0.5060746,-0.15790279999999998,-0.79225105,-0.30214876,-0.059988644,0.15195523,0.06516075
445.0,1001478683.0,-0.39951655,-0.61048865,0.33303455,-0.5973094,-0.81832856,-0.10961813,0.13487625,447,1001478683,0.50601536,-0.1585002,-0.7927643,-0.30058494,0.46691543,0.2341672,-0.013257027
446.0,1001495350.0,-0.39878002,-0.6073751000000001,0.3317772,-0.60165954,-1.2540839,-0.13990213,0.09263134,448,1001495350,0.5057992,-0.15975234,-0.79309666,-0.2994071,0.8533957,0.41645807,-0.11141014
447.0,1001512017.0,-0.39818513,-0.60376865,0.33063605,-0.6062938,-1.0638027,-0.29542333,0.19043827,449,1001512017,0.5054357,-0.1616144,-0.79328233,-0.29852837,0.5823831,0.5167552,-0.13759613
448.0,1001528684.0,-0.3981187,-0.599541,0.32960427,-0.61107564,-0.28229418,-0.30883879999999997,0.28954983,450,1001528684,0.5051667999999999,-0.16334379999999998,-0.79358053,-0.29724714,0.07805788,0.6121451,-0.1623888
449.0,1001545351.0,-0.39738676,-0.59508324,0.32831654,-0.61657804,-0.052515935,-0.47101018,0.05638218,451,1001545351,0.50520086,-0.1644933,-0.79416704,-0.29498005,-0.43257087,0.8051373000000001,-0.33010483
450.0,1001562018.0,-0.39551440000000004,-0.5905791,0.32661235,-0.6229844,-0.09409292,-0.8753409,0.045100212,452,1001562018,0.50550693,-0.16511673,-0.79509467,-0.29158887,-0.5961628999999999,1.1511673,-0.47744465
451.0,1001578685.0,-0.39367136,-0.58523494,0.32505295,-0.6299714,-0.22118652,-1.1432399,0.079034805,453,1001578685,0.505868,-0.16586825,-0.7962646,-0.28731233,-0.3834767,1.6156968,-0.5823345
452.0,1001595352.0,-0.39246652,-0.57850105,0.32392505,-0.63747895,-0.14415446,-1.443461,0.19894314,454,1001595352,0.5058079000000001,-0.16775419,-0.79747045,-0.28294578,0.279397,2.0558921999999997,-0.15427685
453.0,1001612019.0,-0.39235434,-0.5705161999999999,0.32342198,-0.6449557,-0.4744638,-1.5865489,0.51020527,455,1001612019,0.50486386,-0.17114313,-0.7984611,-0.27979097,0.36654514,1.3502936,0.41926384
454.0,1001628686.0,-0.3934034,-0.5626587,0.32456779999999996,-0.650619,-1.2290975,-0.7092173,0.10685634599999999,456,1001628686,0.50394005,-0.17460872,-0.7994898,-0.2763566,0.40518698,-0.6190116999999999,0.4733143
455.0,1001645353.0,-0.39626658,-0.554117,0.32788935,-0.65453506,-1.6934642,0.87461716,-0.1606636,457,1001645353,0.50301385,-0.17819138,-0.8003974,-0.27311042,1.4124901,-0.72854084,0.027897835
456.0,1001662020.0,-0.39935170000000003,-0.54479957,0.33085397,-0.6589746999999999,-1.7267481,1.2325202,-0.091311455,458,1001662020,0.5018446,-0.18258524,-0.80092555,-0.27080175,1.0062327,-0.35295585,-0.22935581
457.0,1001678687.0,-0.40266034,-0.53471154,0.332492,-0.6643777,-0.29635426,0.78882974,0.022037506000000002,459,1001678687,0.5007319,-0.18685272,-0.80141586,-0.26848966,0.079182595,0.11785844,-0.059126854000000006
458.0,1001695354.0,-0.40556213,-0.52447575,0.33354875,-0.6702164,0.037034534,-0.10800459,-0.12178421,460,1001695354,0.50019664,-0.1902941,-0.8020295999999999,-0.2652179,-0.026037691,0.42040408,0.07032871
459.0,1001712021.0,-0.4072343,-0.51494616,0.33408147,-0.67629915,-1.1618051999999999,-1.2437373,-0.23239613,461,1001712021,0.5000114,-0.19353354,-0.8025555,-0.26160753,0.7244605,0.5143956000000001,-0.116576195
460.0,1001728688.0,-0.40941998,-0.5052198,0.33498704,-0.6818446,-1.7853990000000002,-0.81397945,-0.5288582,462,1001728688,0.49939978,-0.19785424,-0.8028015000000001,-0.25877345,0.8666308000000001,0.7984614000000001,-0.09126854
461.0,1001745355.0,-0.41303100000000004,-0.49392712,0.33657557,-0.68713814,-0.98286736,0.26852309999999996,-0.15521526,463,1001745355,0.49813887,-0.20291816,-0.80298364,-0.2567096,0.21514955,0.34292737,0.19302464
462.0,1001762022.0,-0.41750064,-0.48182407,0.33856845,-0.69203377,-0.17754875,0.5510456,-0.27856255,464,1001762022,0.49710974,-0.2077755,-0.8031569000000001,-0.25426528,0.05108925,-0.6990092,0.03320217
463.0,1001778689.0,-0.42111394,-0.4705996,0.34153208,-0.69609994,-0.5856722,0.27549559999999995,-0.75560665,465,1001778689,0.49643382,-0.21219452,-0.8033234,-0.25139403,0.46249345,-0.68686223,-0.17539787
464.0,1001795356.0,-0.42398240000000004,-0.46004304,0.34521404,-0.6995905,-0.5051242,0.1674358,-0.5619345,466,1001795356,0.49576014,-0.21674618,-0.8032829,-0.24895824,0.6886611,0.027649782999999997,-0.26858044
465.0,1001812023.0,-0.42637116,-0.45026532,0.34777477,-0.7032224,-0.045272883,-0.6093350000000001,-0.021346092,467,1001812023,0.49523902,-0.22145882,-0.8031354,-0.2463095,0.56664646,0.62752396,0.29781055
466.0,1001828690.0,-0.42800257,-0.44136626,0.3486263,-0.7074388,-0.20604117,-0.0457987,0.56084347,468,1001828690,0.49461043,-0.22627142,-0.8031213,-0.24322502,0.6654826,0.802032,0.35498714
467.0,1001845357.0,-0.4289193,-0.4328062,0.34807444,-0.7124264,-0.7543161999999999,-0.32454574,-0.10935593,469,1001845357,0.49395427,-0.23122698,-0.8032100999999999,-0.2395775,0.53794783,0.46573332,-0.26035404
468.0,1001862024.0,-0.43046105,-0.4239300999999999,0.34757033,-0.71706474,-0.9415913,0.17198406,-0.7797651,470,1001862024,0.49331800000000003,-0.23648557,-0.8031088000000001,-0.23606923,0.4309104,0.09872410400000001,-0.5745534999999999
469.0,1001878691.0,-0.43301603,-0.41445896,0.34852314,-0.720592,-0.7111788,-0.4399856,-0.76064205,471,1001878691,0.49293469999999995,-0.24190460000000003,-0.8026066999999999,-0.23306872,0.04304189,-0.21327583,-0.09471893
470.0,1001895358.0,-0.43522805,-0.40506202,0.34998673,-0.72388595,-0.23751414,-0.22680184,-0.44202328,472,1001895358,0.49314243,-0.246725,-0.80213994,-0.22914921,-0.07221346,0.008290654,0.23598576
471.0,1001912025.0,-0.43721095,-0.39460713,0.35182959999999996,-0.72756296,-0.8232130999999999,-0.11648914,-0.26093197,473,1001912025,0.49311742,-0.2515312,-0.8018656999999999,-0.22489837,0.7360171999999999,0.59080875,-0.42667484
472.0,1001928692.0,-0.43916655,-0.38369590000000003,0.35370943,-0.7313004,-0.41699326,-1.0232563000000001,-0.7045107,474,1001928692,0.4923696,-0.25753623,-0.8015143,-0.22095871,0.88535535,1.294246,-0.6293316
473.0,1001945359.0,-0.44184342,-0.37217027,0.35436168,-0.73531747,0.11319702,-0.8284313,-1.0769491000000002,475,1001945359,0.49078795,-0.26474196,-0.80109876,-0.2174405,0.50527763,1.4171506,-0.70406055
474.0,1001962026.0,-0.44587309999999997,-0.36030313,0.35466623,-0.73864126,0.3640151,-0.8832776,-1.7098436000000001,476,1001962026,0.48907387,-0.27233157,-0.8005800999999999,-0.21380904,-0.5528698000000001,0.67974895,-0.9400549000000001
475.0,1001978693.0,-0.45023137,-0.34856892,0.35507488,-0.7414268,0.6095186,-0.34392944,-1.5075159,477,1001978693,0.48804292,-0.27941903,-0.7998089,-0.20986992,-1.3955821000000002,-0.41933286,-0.46045494
476.0,1001995360.0,-0.45423050000000004,-0.33642540000000004,0.35630333,-0.74400324,0.66884565,0.35360566,-0.44706440000000003,478,1001995360,0.48835528,-0.28521538,-0.79889107,-0.20478049,-1.75153,-0.8194495,0.48561573
477.0,1002012027.0,-0.45724118,-0.3239059,0.35718468,-0.7472850000000001,1.988604,1.4189718,0.3110628,479,1002012027,0.4889238,-0.289952,-0.798373,-0.19870122,-1.2900542,-0.5002563,0.39786053
478.0,1002028694.0,-0.45877713,-0.3117654,0.35642207,-0.75185746,2.2084394,1.3625103,-0.046230315999999994,480,1002028694,0.4886008,-0.29428002,-0.79837644,-0.19303899,-1.206784,-0.43673772,-0.48046494
479.0,1002045361.0,-0.45928679999999994,-0.3004861,0.35406846,-0.7572316,2.632589,0.8720957,-0.5232401,481,1002045361,0.48841423,-0.29788637,-0.79852885,-0.18726265,-2.17752,-0.5114825,-0.27035046
480.0,1002062028.0,-0.45901355,-0.2901533,0.35100257,-0.7628337,2.2604237,0.44803809999999994,-0.17089367,482,1002062028,0.48924518,-0.29992688,-0.79878014,-0.18064865,-2.8586757,-1.0136594,0.7608060999999999
481.0,1002078695.0,-0.45815736,-0.27974212,0.34856606,-0.7683346999999999,1.8634,1.3812803999999999,0.25545883,483,1002078695,0.49075082,-0.3004324,-0.7993579000000001,-0.17300726,-2.3973432,-1.6731054,0.6812458
482.0,1002095362.0,-0.45672745,-0.26924172,0.34686688,-0.7736876,2.365543,2.2235683999999996,0.4899397,484,1002095362,0.49185988,-0.30025694,-0.80018246,-0.16621734,-1.7174255,-1.689682,0.74335575
483.0,1002112029.0,-0.45376775,-0.26048595,0.343765,-0.779787,2.8213217,2.3835428,1.099782,485,1002112029,0.49248004,-0.29950370000000004,-0.8012921,-0.16028886,-1.5862732,-1.683958,0.95751953
484.0,1002128696.0,-0.44945568,-0.25342020000000004,0.33853130000000003,-0.78687,1.9321892,1.8121346999999999,1.017189,486,1002128696,0.49296167,-0.29792354,-0.8026866,-0.15467815,-0.7742034999999999,-1.5068501,0.68351746
485.0,1002145363.0,-0.44436505,-0.24717651,0.33239424,-0.79432863,0.46184840000000005,1.1319125,0.8688326,487,1002145363,0.49351300000000003,-0.29596195,-0.8040892,-0.14930704,-0.31778356,-1.2186122,0.9963589
486.0,1002162030.0,-0.43958256,-0.2407802,0.32680026,-0.80124533,-0.45020459999999995,1.0011396000000001,0.8281231,488,1002162030,0.49423927,-0.2933745,-0.8055574999999999,-0.14400297,0.074033305,-1.0854034,0.9654292999999999
487.0,1002178697.0,-0.4350942,-0.23383220000000002,0.32204986,-0.80765074,-0.72647107,0.94740707,0.46071148,489,1002178697,0.49515995,-0.29038844,-0.80695647,-0.13897097,0.5136462,-1.3418362,0.76626587
488.0,1002195364.0,-0.43060675,-0.22711997,0.3170445,-0.81392735,-0.5264926,0.7602738,0.40877438,490,1002195364,0.49637848,-0.28734913,-0.80811155,-0.13414566,1.117253,-0.76903087,0.6585808000000001
489.0,1002212031.0,-0.42641115,-0.22041978,0.31159398,-0.8200599000000001,-1.3728871,0.38059908,0.59627056,491,1002212031,0.49745659999999997,-0.284932,-0.8089619,-0.13012233,1.7887639,-0.31291455,0.6225586
490.0,1002228698.0,-0.42240047,-0.21392871,0.30576012,-0.8260287000000001,-1.4490399999999999,0.577608,0.50382614,492,1002228698,0.49821645,-0.28333777,-0.8095647,-0.12690835,1.7069912,-0.05063999,0.3623848
491.0,1002245365.0,-0.41907707,-0.20794119,0.30012107,-0.8313018,-0.56216925,0.3334696,0.35339737,493,1002245365,0.49862915,-0.28227893,-0.8100224,-0.12470671,0.48968133,-0.3801894,0.45020866
492.0,1002262032.0,-0.41611573,-0.20174512,0.2949297,-0.8361599000000001,-0.7561204,0.032770406,0.33888245,494,1002262032,0.4998415,-0.28057283,-0.8102735,-0.12204376,0.25174174,-0.7331854,0.76405525
493.0,1002278699.0,-0.41312158,-0.19540426,0.29021195,-0.84078836,-0.48592186,0.3250688,0.47927952,495,1002278699,0.5014470999999999,-0.27879006,-0.8103085,-0.11928032,0.95154613,-0.39952543,0.6828860999999999
494.0,1002295366.0,-0.41046035,-0.1889754,0.28564823,-0.84511304,-0.054260116,0.6158656,0.5762166999999999,496,1002295366,0.50216126,-0.27801590000000004,-0.8103393,-0.11786427,0.5596880999999999,-0.47607645,0.27385329999999997
495.0,1002312033.0,-0.40767926,-0.18254414,0.28152388,-0.8492466000000001,-0.028818196,0.44244072,0.32723713,497,1002312033,0.50259644,-0.2773339,-0.8104469,-0.116872326,-0.41433623,-0.5351354,0.4556713
496.0,1002328700.0,-0.40470877,-0.17621276,0.27743313,-0.8533412,0.4199603,0.4490022,0.4126606,498,1002328700,0.5035157,-0.27556878,-0.8106983,-0.11533724,-0.5760241999999999,-0.48920783,0.63626385
497.0,1002345367.0,-0.40168655,-0.16997941,0.27305029999999997,-0.85743725,0.5933606,0.12967703,0.33567524,499,1002345367,0.5045968,-0.27360797,-0.8109427,-0.11354804,0.28119227,-0.47836444,0.29274464
498.0,1002362034.0,-0.39896932,-0.1640976,0.26868990000000004,-0.8612209999999999,0.16300297,-0.18256158,0.42296314,500,1002362034,0.50513226,-0.27255347,-0.8110861,-0.11267508,0.6575605999999999,0.031722522999999996,0.20441341
499.0,1002378701.0,-0.3965933,-0.15809633,0.26506612,-0.86455745,-0.39270154,-0.2042268,0.24304104,501,1002378701,0.50519156,-0.27208109999999996,-0.81118876,-0.11281189999999999,0.25378690000000004,0.17540827,0.5894718000000001
500.0,1002395368.0,-0.39455616,-0.15227531,0.26254115,-0.8673004000000001,-0.24753848,-0.12109144,0.27576637,502,1002395368,0.5052846,-0.27165744,-0.81121194,-0.11324858,0.21377942,-0.18869668,0.31438446
501.0,1002412035.0,-0.39266923,-0.14703298,0.2602729,-0.8697417,0.03481717,0.004604926,0.69783306,503,1002412035,0.505536,-0.27106473,-0.81122786,-0.113433294,0.6607,-0.5256066,0.32851220000000003
502.0,1002428702.0,-0.39059457,-0.142808,0.25776765,-0.87212276,0.087395355,-0.29806748,1.0930052,504,1002428702,0.5056941,-0.2703333,-0.81138474,-0.11335257,0.84139174,-0.11241975400000001,0.37841702
503.0,1002445369.0,-0.38899320000000004,-0.1394839,0.25504914,-0.8741733,0.63911706,-0.030291146,1.0208225,505,1002445369,0.5052983,-0.26970106,-0.81178373,-0.11376480000000001,0.26947033,0.12985544,0.49993038
504.0,1002462036.0,-0.38794133,-0.13625118,0.2519688,-0.8760419,0.6665835,0.2547334,-0.082315445,506,1002462036,0.504733,-0.26893923,-0.81232494,-0.114214085,-0.22479949999999999,-0.013641443,0.0020961761
505.0,1002478703.0,-0.38699120000000004,-0.1328582,0.24918407,-0.8777780000000001,0.45968014,-0.18852460000000001,-0.47971058,507,1002478703,0.5041548,-0.26840445,-0.81280774,-0.11459054,-0.374867,0.007891349,-0.4798622
506.0,1002495370.0,-0.38609973,-0.1296185,0.24673989999999998,-0.87934405,0.76519495,-0.033658426,-0.014410019,508,1002495370,0.50363845,-0.26800749999999995,-0.8131805000000001,-0.11514443,-0.6368845000000001,0.0014513814000000002,0.041502
507.0,1002512037.0,-0.38515443,-0.12711383,0.24428363,-0.8808088,0.6552669,-0.34875759999999995,0.5252074999999999,509,1002512037,0.50324035,-0.26741558,-0.8135651999999999,-0.11554231,-0.31637588,0.31008366,0.21800423
508.0,1002528704.0,-0.384221,-0.1253141,0.2420136,-0.88210005,0.53198093,-0.6771718000000001,0.36453247,510,1002528704,0.5026421,-0.26684526,-0.8140616999999999,-0.11596749,0.039905556,0.5982102,0.09987545
509.0,1002545371.0,-0.38351703,-0.123951085,0.24000807,-0.8831462999999999,0.49213535,-1.0600048,-0.26158905,511,1002545371,0.50171345,-0.26656908,-0.81466043,-0.11641885,-0.08740519,0.9117133,-0.34212017
510.0,1002562038.0,-0.38310823,-0.12274816,0.23815697,-0.88399255,0.48024967,-1.1989125,-0.3448105,512,1002562038,0.5006195999999999,-0.26651555,-0.81526494,-0.11701787,-0.25302246,0.81612515,-0.3922062
511.0,1002578705.0,-0.38275555,-0.121952,0.23661247,-0.8846699,0.45848837,-0.97037333,-0.20060158,513,1002578705,0.49965397,-0.26649514,-0.8158125,-0.11737487,-0.32183003,0.5088799,-0.2150507
512.0,1002595372.0,-0.3822643,-0.12143986,0.23540944,-0.88527346,0.18793052,-0.5428670999999999,-0.20505619,514,1002595372,0.49871800000000005,-0.26650316,-0.81637365,-0.11743532,-0.087975144,0.3086761,-0.18092918
513.0,1002612039.0,-0.38164756,-0.12085216,0.23459497,-0.88583606,-0.05460695,-0.30480844,-0.24298763,515,1002612039,0.49759296,-0.26667938,-0.8169845,-0.1175593,-0.020948526999999998,0.2954315,-0.18353939
514.0,1002628706.0,-0.38096264,-0.12017729,0.23416628,-0.8863359000000001,-0.00046708620000000003,-0.33748442,-0.014492035,516,1002628706,0.49635115,-0.26693459999999997,-0.8176254,-0.11777408,-0.04134185,0.1827424,0.0134449005
515.0,1002645373.0,-0.38027933,-0.11950888,0.23374535,-0.8868306999999999,0.17582306,0.07879619,0.10509777,517,1002645373,0.49512863,-0.2671159,-0.8182989,-0.11783214,-0.13160622,0.020451883,0.22645092
516.0,1002662040.0,-0.37966248,-0.11887181599999999,0.23297632,-0.8873828000000001,0.35417940000000003,0.31955853,0.21062088,518,1002662040,0.4938575,-0.2671515,-0.81903726,-0.11795444,-0.12718335,-0.077012174,0.21282387
517.0,1002678707.0,-0.37903327,-0.11832289,0.23215856,-0.88793933,0.13848634,0.29152614,0.17705822,519,1002678707,0.49275398,-0.26693013,-0.8197686,-0.11799097,-0.112306766,-0.40568150000000003,0.21542549
518.0,1002695374.0,-0.37826344,-0.117830664,0.23111229,-0.8886058000000001,0.11264075,0.48320708,0.10174656,520,1002695374,0.49181549999999996,-0.26647356,-0.8205099,-0.117786154,0.11999605599999999,-0.42390898,0.14031506
519.0,1002712041.0,-0.37745285,-0.11733349,0.22989202,-0.8893325000000001,0.07536801,0.46064746,0.17592049,521,1002712041,0.49071136,-0.26625314,-0.8212448,-0.11776717,0.24637565,-0.32167974,0.21989727
520.0,1002728708.0,-0.37664166,-0.11679791,0.2283706,-0.89013857,-0.008605361,0.55399674,0.29259872,522,1002728708,0.4894291,-0.26616898,-0.82198834,-0.11810526,0.02521852,-0.16762097,0.4011984
521.0,1002745375.0,-0.37583157,-0.11622811,0.22647804,-0.8910385000000001,-0.056645222,0.6995551,0.27829552,523,1002745375,0.48816806,-0.26587686,-0.8227691999999999,-0.11854427,-0.09549010000000001,-0.27713013,0.38667583
522.0,1002762042.0,-0.37495053,-0.115704864,0.22414659,-0.8920667,-0.09626329,0.6154639000000001,0.16694069,524,1002762042,0.48704907,-0.26533090000000004,-0.8235663000000001,-0.11883476400000001,0.019989658,-0.34284273,0.18805885
523.0,1002778709.0,-0.37385359999999995,-0.115360714,0.22141618,-0.8932529,-0.33907062,0.5322102,0.14692879,525,1002778709,0.48605242,-0.26462594,-0.8243493000000001,-0.119057655,0.23354243,-0.1506664,0.18035984
524.0,1002795376.0,-0.37266684,-0.11511327,0.21831667,-0.89454263,-0.5603793,0.3666748,0.11743355,526,1002795376,0.48509476,-0.2638823,-0.8251107,-0.11934046,0.45591279999999995,0.06308240000000001,0.19562054
525.0,1002812043.0,-0.37161753,-0.11474566,0.21514090000000002,-0.8957950000000001,-0.66150516,-0.09328394400000001,-0.018597603,527,1002812043,0.48412487,-0.26330570000000003,-0.8258023999999999,-0.11976768,0.65661156,0.17413078,0.17759323
526.0,1002828710.0,-0.37078306,-0.114042945,0.21202393,-0.89697284,-0.7223694,-0.35798386,-0.10307026,528,1002828710,0.48325569999999995,-0.2629866,-0.82635343,-0.12017755,0.79003245,0.22410157,0.053357124000000006
527.0,1002845377.0,-0.3702385,-0.113159455,0.20903172,-0.8980113999999999,-0.6067005999999999,-0.49710163,-0.06719684599999999,529,1002845377,0.48243034,-0.26290208,-0.82679206,-0.12065948,0.7037306999999999,0.36704504,0.028928757000000003
528.0,1002862044.0,-0.36998525,-0.11225193,0.20599473,-0.8989311,-0.5142683,-0.5304717,0.057894707000000004,530,1002862044,0.48162192,-0.26299497,-0.82713753,-0.12131726,0.6172784,0.37754455,0.10415554
529.0,1002878711.0,-0.3699981,-0.11130302,0.20313384,-0.8996944,-0.53884435,-0.39297628,0.10194492,531,1002878711,0.48094404,-0.26313952,-0.82738864,-0.12197883,0.48157117,0.30086353,0.15919495
530.0,1002895378.0,-0.37018543,-0.11037416,0.20056003,-0.9003091000000001,-0.35384790000000005,-0.49903625,0.007050514,532,1002895378,0.48041648,-0.2632934,-0.8275747999999999,-0.122461826,0.45457616,0.19396946,0.022683144
531.0,1002912045.0,-0.3705191,-0.109541476,0.1983598,-0.90076077,-0.25766814,-0.54761964,-0.015213013000000001,533,1002912045,0.48006302,-0.26348972,-0.82766867,-0.122791335,0.36826554,0.14129964,-0.06184292
532.0,1002928712.0,-0.37085417,-0.10888740000000001,0.19653177,-0.90110284,-0.26012266,-0.49158776,0.10953522,534,1002928712,0.47984740000000004,-0.26369384,-0.8276844000000001,-0.12309052,0.23840518,0.20038384,0.10371113
533.0,1002945379.0,-0.37108132,-0.10847991,0.19496243,-0.90139925,-0.21286905,-0.45649365,0.15522479999999997,535,1002945379,0.47973240000000006,-0.26392790000000005,-0.82763654,-0.12335731,0.17652963,0.19465207,0.14946747
534.0,1002962046.0,-0.3712267,-0.10823595,0.19384266,-0.90161026,-0.18575335,-0.50645876,0.09801388,536,1002962046,0.47974056,-0.26417953,-0.8275372,-0.12345338,0.16572726,0.17709357,0.031674385
535.0,1002978713.0,-0.3713239,-0.10805531,0.19316201,-0.9017379999999999,-0.14546195,-0.43069512,-0.056907654,537,1002978713,0.47973898,-0.26447168,-0.8274299999999999,-0.123551816,0.19017689,0.2214535,-0.03190899
536.0,1002995380.0,-0.3713635,-0.10778998,0.1928531,-0.9018195999999999,-0.18194088,-0.36864309999999995,-0.14728737,538,1002995380,0.47969579999999995,-0.26483008,-0.82731134,-0.12374744,0.17499456,0.19447024,0.012260436999999999
537.0,1003012047.0,-0.3714078,-0.10728587,0.19301635,-0.90182656,-0.30355993,-0.43744877,-0.07475757599999999,539,1003012047,0.47973043,-0.26521364,-0.827159,-0.12381024,0.10121874,0.2489703,-0.014541626
538.0,1003028714.0,-0.37139714,-0.10674275,0.1936028,-0.90176964,-0.23893613,-0.40242255,-0.039728165,540,1003028714,0.47980496,-0.26561525,-0.826997,-0.12374204,0.19380316,0.31324133,0.054883003
539.0,1003045381.0,-0.37132213,-0.10635793,0.19402249,-0.90175587,-0.121403635,-0.25371394,-0.060406685,541,1003045381,0.4797760999999999,-0.26616177,-0.82683843,-0.12373952,0.21880399,0.3374764,-0.008659363
540.0,1003062048.0,-0.37129045,-0.10591346,0.19437839,-0.90174454,-0.23905286,-0.123519935,-0.14938164,542,1003062048,0.47968364,-0.26678866,-0.8266906999999999,-0.12373614,0.09609984,0.26225144,-0.01537323
541.0,1003078715.0,-0.37118834,-0.10542858,0.19466187,-0.9017822,-0.26447684,-0.09162131,0.021264076,543,1003078715,0.47969207,-0.26732695,-0.8265353000000001,-0.12357916,0.17064051,0.19204144,0.023733139
542.0,1003095382.0,-0.3709653,-0.10523309,0.1947102,-0.9018864,-0.29073940000000004,-0.14916034,0.060077667,544,1003095382,0.47980598,-0.26790205,-0.826327,-0.12328326,0.36047924,0.17308296,0.04817009
543.0,1003112049.0,-0.37080407,-0.104913495,0.1947502,-0.9019813,-0.31351155,-0.31118444,-0.010262489,545,1003112049,0.47992507,-0.26860409999999996,-0.82607186,-0.12300254,0.41792809999999997,0.24777976,0.06668091
544.0,1003128716.0,-0.37086695,-0.10437548,0.19497742,-0.90196866,-0.29662523,-0.2638606,-0.08032894,546,1003128716,0.48001876,-0.26938838,-0.8257904,-0.12281203,0.36406416,0.23504153,0.10538769
545.0,1003145383.0,-0.37128794,-0.10354148,0.19540799,-0.9017984,-0.23525415,-0.24371509,0.02742672,547,1003145383,0.4801677,-0.27024537,-0.82545626,-0.122592404,0.28536448,0.1744944,0.09594917
546.0,1003162050.0,-0.37201425,-0.1026953,0.1959457,-0.9014791,-0.06384642,-0.1367043,0.11173725,548,1003162050,0.48039737,-0.27112138,-0.8250757,-0.122319594,0.1768819,0.08458345,0.121655464
547.0,1003178717.0,-0.372844,-0.10201826,0.19651677,-0.90108883,0.0032840758000000003,0.0029663243,0.13502693,549,1003178717,0.48068744,-0.27189022,-0.8247,-0.12200834599999999,0.09658442,-0.016979162,0.14645958
548.0,1003195384.0,-0.3736716,-0.10146542,0.19711627,-0.9006774999999999,-0.033468943,0.040988754,0.15605927,550,1003195384,0.48099494,-0.27259058,-0.8243303,-0.12173159,0.099545516,-0.050721012,0.1480999
549.0,1003212051.0,-0.37447214,-0.10094861,0.19774616,-0.900265,0.047786232000000005,0.13920018,0.13723373,551,1003212051,0.48129654,-0.27329218,-0.8239482,-0.121552415,0.06667972,-0.07070609,0.16349697
550.0,1003228718.0,-0.37525693,-0.10034162,0.19843116,-0.8998550999999999,0.05476704599999999,0.14685304,0.10403824,552,1003228718,0.4815787,-0.27402315,-0.8235530999999999,-0.12146735,0.011790308000000001,-0.12866613,0.11868191
551.0,1003245385.0,-0.37593326,-0.09971515,0.1991285,-0.8994884,0.15127765,0.1213969,0.12649727,553,1003245385,0.48182437,-0.27477607,-0.823155,-0.12149005,-0.07797607,-0.118592285,0.14529419
552.0,1003262052.0,-0.37651435,-0.099094965,0.19983603,-0.89915687,0.29710945,0.14913441,0.13754177,554,1003262052,0.48197502,-0.27553713,-0.82279414,-0.1216134,-0.17974241,-0.1368419,0.13728333
553.0,1003278719.0,-0.3770178,-0.09850498,0.20044360000000003,-0.8988755999999999,0.38729665,0.13281254,0.20968342,555,1003278719,0.48208037,-0.27618825,-0.82248896,-0.12178325,-0.27869025,-0.12909852,0.22280025
554.0,1003295386.0,-0.3774015,-0.097985685,0.20103821,-0.8986385,0.44280672,0.21609879,0.22655678,556,1003295386,0.48213312,-0.27664778,-0.8222748,-0.12197693,-0.33948714,-0.09916744400000001,0.21131802
555.0,1003312053.0,-0.37768018,-0.097635254,0.20150484,-0.89845484,0.39992726,0.20014985,0.14464378,557,1003312053,0.482209,-0.27687073,-0.82213444,-0.122116335,-0.33638609999999997,-0.19068929999999998,0.16945553
556.0,1003328720.0,-0.377793,-0.09744939999999999,0.20180249,-0.89836085,0.34715635,0.13826855,0.078110695,558,1003328720,0.48235607,-0.27686065,-0.82205176,-0.122114964,-0.24468276,-0.20797992,0.06103134
557.0,1003345387.0,-0.37776637,-0.097335294,0.20203413,-0.89833236,0.24183297,0.1329875,0.044101715,559,1003345387,0.4824880999999999,-0.27673754,-0.8220158999999999,-0.12211426,-0.09870556,-0.13083622,0.062190055999999994
558.0,1003362054.0,-0.3776218,-0.09724622,0.20212339,-0.8983827,0.17127658,0.15809489999999998,0.07925892,560,1003362054,0.48255378,-0.27659598,-0.822016,-0.12217474,-0.057134382000000004,-0.01893557,0.123511314
559.0,1003378721.0,-0.37746423,-0.09731901400000001,0.20210899999999998,-0.8984441999999999,0.17186609,0.18845375,0.10102558,561,1003378721,0.48252829999999997,-0.27642697,-0.82206565,-0.12232384,-0.10808997,-0.0016200219,0.13964844
560.0,1003395388.0,-0.37724784,-0.09741269999999999,0.20197420000000002,-0.8985552,0.14792255,0.06687267,0.114788055,562,1003395388,0.48249564,-0.2761789,-0.8221426,-0.12249553,-0.109727874,-0.04327859,0.1534605
561.0,1003412055.0,-0.37694535,-0.097569115,0.20184885,-0.8986933000000001,0.15840453,-0.037147462,0.13960552,563,1003412055,0.48247787,-0.27585822,-0.82224774,-0.12258240599999999,-0.042528704,0.034479108,0.13268661
562.0,1003428722.0,-0.37662932,-0.09782045,0.20167927,-0.89883655,0.19148108,0.03288183,0.107863426,564,1003428722,0.48236993,-0.27551603,-0.82240593,-0.12271601,0.0018266573,0.11306053,0.12576008
563.0,1003445389.0,-0.37635872,-0.09804972,0.20142029,-0.8989832,0.025621345,-0.029088004,0.01885128,565,1003445389,0.48223913,-0.2751571,-0.82257754,-0.12288609,0.019184563,0.019456131,0.052386284000000005
564.0,1003462056.0,-0.37614673,-0.09820715,0.20111927,-0.8991220999999999,-0.044888552000000005,-0.08922855,-0.03929329,566,1003462056,0.4821573,-0.27479932,-0.82272804,-0.12299955,0.080291666,0.056229267,0.037067413
565.0,1003478723.0,-0.37600875,-0.098319314,0.20101538,-0.89919066,-0.08055418,0.017242543,0.04580021,567,1003478723,0.48212802,-0.27445352,-0.822846,-0.12309722,0.13122445,0.06323204,0.110523224
566.0,1003495390.0,-0.37588498,-0.09837704,0.20084465,-0.89927435,-0.11449389999999998,-0.15713723,0.13337803,568,1003495390,0.48210649999999994,-0.27410126,-0.82296723,-0.123155,0.16772233,0.10635506,0.14283371
567.0,1003512057.0,-0.3757447,-0.09843822,0.2006983,-0.8993589,-0.17533479999999999,-0.08240557,0.12273598,569,1003512057,0.48203185,-0.27380103,-0.82309526,-0.12325957,0.20098911,0.20508207,0.16843796
568.0,1003528724.0,-0.37559503,-0.09860697,0.20048253,-0.899451,-0.11783983,-0.26696290000000006,0.03618622,570,1003528724,0.48193017,-0.27351996,-0.8232322,-0.12336656,0.21228725,0.15068796,0.029245377000000003
569.0,1003545391.0,-0.37547103,-0.09887742,0.20035549,-0.89950144,-0.1501355,-0.2808515,-0.013498306000000002,571,1003545391,0.481889,-0.27329436,-0.8233245000000001,-0.12341156,0.23838373,0.13113125,-0.012060165
570.0,1003562058.0,-0.3754181,-0.09901926,0.20035050000000001,-0.899509,-0.2879412,-0.24744359,0.043022156,572,1003562058,0.48187109999999994,-0.2731558,-0.823378,-0.123431124,0.2330583,0.19581144,0.11703491
