sep=,
DeviceTag:,47,,,,,,,,,,,,,,,,,
FirmwareVersion:,1.6.0,,,,,,,,,,,,,,,,,
AppVersion:,2020.4,,,,,,,,,,,,,,,,,
SyncStatus:,Synced,,,,,,,,,,,,,,,,,
OutputRate:,60Hz,,,,,,,,,,,,,,,,,
FilterProfile:,General,,,,,,,,,,,,,,,,,
Measurement Mode:,Sensor fusion Mode - Complete (Quaternion),,,,,,,,,,,,,,,,,
StartTime:,2021-03-24 15:27:58.956 +0800,,,,,,,,,,,,,,,,,
© Xsens Technologies B. V. 2005-2021,,,,,,,,,,,,,,,,,,,

PacketCounter,SampleTimeFine,Quat_W,Quat_X,Quat_Y,Quat_Z,FreeAcc_X,FreeAcc_Y,FreeAcc_Z
1, 994078535, -0.41655117, -0.6036858, 0.350217, -0.582578, -0.014032143, -0.036695685, 0.08229828
2, 994095202, -0.41651446, -0.6036892, 0.35021058, -0.5826044, -0.06328199, -0.009164032, 0.12355995
3, 994111869, -0.41651446, -0.6037235, 0.35022554, -0.5825599, -0.07242636, -8.455495E-4, 0.075118065
4, 994128536, -0.41650784, -0.6037907, 0.35026982, -0.5824683, -0.04719029, 0.01033658, 0.071243286
5, 994145203, -0.41648054, -0.6038565, 0.35029572, -0.5824041, -0.06496527, -0.0206821, 0.12223816
6, 994161870, -0.4164552, -0.6038944, 0.35033906, -0.58235675, -0.063548535, -0.016722346, 0.103307724
7, 994178537, -0.41652286, -0.60388833, 0.35041323, -0.58227015, -0.044772327, -0.022503508, 0.07830429
8, 994195204, -0.41662443, -0.6038518, 0.35047925, -0.5821957, -0.015474584, -0.03393977, 0.11194134
9, 994211871, -0.41666704, -0.6038018, 0.3504832, -0.58221465, -0.034044266, -0.039427463, 0.11545277
10, 994228538, -0.41670066, -0.60370773, 0.35046765, -0.58229744, -0.014243587, -0.008231983, 0.09972477
11, 994245205, -0.41666916, -0.60368025, 0.35039696, -0.58239096, -0.008720246, -0.061663873, 0.075068474
12, 994261872, -0.41672304, -0.60367656, 0.35044608, -0.5823267, -0.023927063, 0.0012952576, 0.066337585
13, 994278539, -0.41680187, -0.60369754, 0.350485, -0.5822251, 0.007962425, -0.025424153, 0.09640789
14, 994295206, -0.41687766, -0.60370463, 0.35056108, -0.5821177, 0.018951664, -0.027577251, 0.07191944
15, 994311873, -0.41703013, -0.603683, 0.3506804, -0.58195907, -0.03755722, 0.0012556958, 0.10754204
16, 994328540, -0.4169937, -0.60371953, 0.35068938, -0.5819419, -0.011387762, -0.053681552, 0.066129684
17, 994345207, -0.41694415, -0.6037754, 0.350657, -0.5819389, 0.055083204, -0.0377196, 0.10096264
18, 994361874, -0.41698897, -0.6037515, 0.35064328, -0.58193994, -0.0024600953, -0.03987404, 0.14662075
19, 994378541, -0.41706195, -0.603641, 0.35061312, -0.5820204, -0.060934212, 0.02864162, 0.10376072
20, 994395208, -0.4170519, -0.60358393, 0.35051787, -0.58214414, -0.09792617, -0.06172556, 0.094573975
21, 994411875, -0.41708517, -0.6036057, 0.3505626, -0.58207077, -0.061746348, -0.010952582, 0.086634636
22, 994428542, -0.4172076, -0.60362905, 0.35068408, -0.58188564, -0.050701343, -0.0047036065, 0.08797741
23, 994445209, -0.41730267, -0.6036746, 0.35075396, -0.5817281, 0.019829845, 0.0092576835, 0.0692997
24, 994461876, -0.41735697, -0.60367256, 0.35081697, -0.5816533, -0.082717896, -0.067488395, 0.09396362
25, 994478543, -0.41731372, -0.6037444, 0.35081375, -0.58161163, -0.007415266, -0.03640892, 0.100131035
26, 994495210, -0.4173814, -0.60374254, 0.35090283, -0.5815112, -0.007566249, -0.026986955, 0.100494385
27, 994511877, -0.4173715, -0.6037979, 0.35091123, -0.58145565, 0.050405413, -0.035424568, 0.08851814
28, 994528544, -0.4173254, -0.6038842, 0.35090244, -0.5814045, 0.024013003, -0.094205126, 0.09237957
29, 994545211, -0.417401, -0.6039059, 0.35097474, -0.58128405, -0.032870263, -0.04350255, 0.1417036
30, 994561878, -0.41755244, -0.6038239, 0.35107282, -0.5812013, -0.06383798, -0.07226129, 0.104245186
31, 994578545, -0.4176907, -0.6037603, 0.35119238, -0.5810959, -0.010415704, -0.0061378893, 0.058338165
32, 994595212, -0.41777724, -0.6037358, 0.35121295, -0.5810466, -0.034033984, 0.0112214675, 0.08810234
33, 994611879, -0.41778833, -0.60375184, 0.3512139, -0.58102125, -0.06734457, -0.014317793, 0.09689236
34, 994628546, -0.41777653, -0.6037728, 0.35117847, -0.58102953, -0.009595076, -0.044940855, 0.08976078
35, 994645213, -0.41776365, -0.60378295, 0.3510858, -0.58108413, 0.061873302, -0.016113272, 0.104034424
36, 994661880, -0.41774532, -0.60376364, 0.35103306, -0.5811492, -0.062751934, -0.05477319, 0.104911804
37, 994678547, -0.41766846, -0.603794, 0.35097876, -0.58120567, -0.072198264, -0.11083337, 0.085840225
38, 994695214, -0.4176151, -0.60385364, 0.35095018, -0.58119935, -0.037969153, -0.04264381, 0.08847046
39, 994711881, -0.4176469, -0.6038553, 0.35098997, -0.5811508, -0.02002229, -0.012649939, 0.11045456
40, 994728548, -0.4177052, -0.6038411, 0.35105065, -0.58108705, -0.066651, 0.009959514, 0.089984894
41, 994745215, -0.41773987, -0.6038115, 0.35105348, -0.58109105, -0.08417006, -0.021491665, 0.102622986
42, 994761882, -0.41773814, -0.60379577, 0.35107344, -0.58109653, -0.024871515, -0.055709932, 0.08712292
43, 994778549, -0.41767567, -0.6038577, 0.35106623, -0.5810816, -0.009817472, -0.084058754, 0.082704544
44, 994795216, -0.4176897, -0.603866, 0.3510808, -0.58105403, 0.017974688, -0.079318486, 0.1136179
45, 994811883, -0.41767466, -0.6038686, 0.35105413, -0.58107823, 7.6072634E-4, -0.033526495, 0.10062027
46, 994828550, -0.41768503, -0.60383385, 0.351055, -0.5811063, -0.0044422084, -0.035231452, 0.11136055
47, 994845217, -0.41764215, -0.60385805, 0.35098445, -0.5811547, 0.02995733, -0.024067428, 0.08207989
48, 994861884, -0.41756877, -0.60391116, 0.3509524, -0.5811716, -0.02588146, -0.0077167847, 0.089702606
49, 994878551, -0.41753653, -0.6039287, 0.35094762, -0.58117944, -0.12401337, -0.029767903, 0.09200859
50, 994895218, -0.417533, -0.6039303, 0.35092548, -0.5811935, -0.08136475, -0.0900299, 0.078863144
51, 994911885, -0.4175185, -0.60396457, 0.35096428, -0.5811449, 0.015880931, -0.039119907, 0.07797527
52, 994928552, -0.41752395, -0.60400736, 0.35102457, -0.5810602, 0.001427689, 0.023841232, 0.12128925
53, 994945219, -0.41747922, -0.60404474, 0.3509978, -0.58106977, 0.014231293, -0.022020273, 0.12811089
54, 994961886, -0.41748467, -0.604043, 0.35101312, -0.5810584, 0.015520963, -0.0072243856, 0.088005066
55, 994978553, -0.41741756, -0.6040553, 0.3509818, -0.58111274, -0.042690862, -0.036868013, 0.06640339
56, 994995220, -0.41735762, -0.60410273, 0.35095054, -0.5811254, -0.077088386, -0.10300371, 0.084114075
57, 995011887, -0.41734573, -0.6041263, 0.35092357, -0.5811256, -0.02797421, -0.063698284, 0.08853817
58, 995028554, -0.4173087, -0.6041324, 0.35091975, -0.58114827, -0.0029755163, -0.05198397, 0.10108566
59, 995045221, -0.41737935, -0.6040904, 0.35099825, -0.5810938, -0.033575334, 0.026339214, 0.08329296
60, 995061888, -0.41733274, -0.6041347, 0.3510072, -0.5810757, -0.08347784, -0.006266409, 0.089157104
61, 995078555, -0.4173411, -0.6042114, 0.35107046, -0.5809517, -0.019804478, 0.04899404, 0.09432697
62, 995095222, -0.41727594, -0.60431314, 0.35105413, -0.5809024, -0.0051973467, 0.053882714, 0.07583332
63, 995111889, -0.41724727, -0.6043881, 0.35103777, -0.58085495, -0.080169514, -0.040280387, 0.118852615
64, 995128556, -0.41724372, -0.6044192, 0.35097566, -0.58086264, -0.08667911, -0.042725842, 0.12410927
65, 995145223, -0.41718102, -0.60450816, 0.35097986, -0.5808126, -0.001483232, -0.039183833, 0.06542015
66, 995161890, -0.41710344, -0.6046416, 0.35097152, -0.5807344, -0.0034167308, -0.024695499, 0.10977268
67, 995178557, -0.41703933, -0.6047419, 0.3509329, -0.5806995, 0.0024842347, -0.023473553, 0.0889225
68, 995195224, -0.41699502, -0.6047858, 0.35091048, -0.5806991, -0.037272796, -0.026776629, 0.10559654
69, 995211891, -0.41698265, -0.6048276, 0.35093904, -0.5806472, -0.013445646, -0.08031178, 0.09573555
70, 995228558, -0.41699833, -0.60491896, 0.35099423, -0.58050734, 0.023703326, -0.0726274, 0.09554005
71, 995245225, -0.41707996, -0.60496706, 0.35105595, -0.58036125, 0.017271405, -0.029294055, 0.113637924
72, 995261892, -0.41712773, -0.60496014, 0.35109776, -0.5803088, -0.04831702, -0.06736479, 0.13381767
73, 995278559, -0.41720918, -0.6049334, 0.35120508, -0.5802134, -0.05722401, -0.0290768, 0.07620239
74, 995295226, -0.41726768, -0.60495645, 0.35128194, -0.58010066, -0.034496654, 0.017713849, 0.080010414
75, 995311893, -0.41733733, -0.60501146, 0.35133693, -0.5799598, 0.019917352, 0.041526694, 0.09393501
76, 995328560, -0.41733587, -0.6050388, 0.35133913, -0.57993096, -0.09755324, 0.039819952, 0.09270668
77, 995345227, -0.41722998, -0.6051317, 0.35130146, -0.5799331, -0.14064609, -0.032285552, 0.109983444
78, 995361894, -0.41721058, -0.6051754, 0.3513472, -0.5798738, -0.104345344, -0.024184773, 0.08739376
79, 995378561, -0.41717324, -0.6052357, 0.35133487, -0.5798452, -0.08837456, -0.018300794, 0.10378933
80, 995395228, -0.41712314, -0.60529566, 0.35130495, -0.57983685, -0.07237774, -0.004986574, 0.08061695
81, 995411895, -0.41702867, -0.6053535, 0.3512224, -0.5798944, -0.06845196, -0.046926323, 0.097813606
82, 995428562, -0.41695628, -0.60542274, 0.35115466, -0.5799152, -0.06777147, -0.04611318, 0.10214996
83, 995445229, -0.41692945, -0.60549515, 0.35110268, -0.57989013, -0.012201907, -0.04848957, 0.1021204
84, 995461896, -0.41688973, -0.605566, 0.35107335, -0.5798626, -0.012949111, -0.036936857, 0.07897663
85, 995478563, -0.41674954, -0.6056534, 0.35096553, -0.57993734, -0.031688884, -0.07250135, 0.124611855
86, 995495230, -0.4166142, -0.6056896, 0.3508853, -0.5800454, 0.002690649, -0.09808799, 0.104584694
87, 995511897, -0.41649947, -0.60567516, 0.3507869, -0.58020216, -0.06529618, -0.015356011, 0.09818554
88, 995528564, -0.41638032, -0.6057084, 0.35069713, -0.5803073, -0.0018501285, -0.070022136, 0.056713104
89, 995545231, -0.41636363, -0.6057456, 0.35063618, -0.58031726, 0.03218229, -0.063406155, 0.1230669
90, 995561898, -0.4163416, -0.60576576, 0.35060337, -0.58033186, -0.008239358, -0.0033488947, 0.10631943
91, 995578565, -0.41637778, -0.6057248, 0.3506024, -0.5803492, -0.06813155, -0.05842137, 0.1017704
92, 995595232, -0.41643962, -0.60566187, 0.35065943, -0.5803361, -0.075458646, -0.06398461, 0.06267071
93, 995611899, -0.41648826, -0.6056787, 0.3508058, -0.58019525, -0.003583695, -0.019275533, 0.06527519
94, 995628566, -0.4164711, -0.6057466, 0.3508834, -0.5800897, 0.03671558, 0.0053345836, 0.08708954
95, 995645233, -0.41643456, -0.6058171, 0.35093012, -0.58001405, 0.058204338, -0.025587093, 0.092020035
96, 995661900, -0.41630125, -0.605896, 0.35086668, -0.58006585, 0.10487239, -0.06452394, 0.1371336
97, 995678567, -0.41619784, -0.6058867, 0.35072538, -0.5802352, 0.023065085, -0.03771513, 0.13871956
98, 995695234, -0.41618776, -0.6057513, 0.35060972, -0.58045346, -0.17994726, -0.01700442, 0.1189785
99, 995711901, -0.41625145, -0.6056436, 0.3506442, -0.5804994, -0.17177016, -0.069025494, 0.07635689
100, 995728568, -0.41636923, -0.6055971, 0.35077566, -0.5803841, -0.007328431, 0.044088826, 0.050135612
101, 995745235, -0.41640016, -0.60561913, 0.35083342, -0.58030385, 0.06580959, 0.019436017, 0.09250355
102, 995761902, -0.41634828, -0.60556006, 0.35077035, -0.5804407, 0.12899067, -0.015455921, 0.1986742
103, 995778569, -0.41616115, -0.60542893, 0.35048535, -0.580884, 0.013153626, -0.17078803, 0.22640705
104, 995795236, -0.41602498, -0.6051006, 0.35035548, -0.5814019, -0.17762955, -0.0626404, 0.11594105
105, 995811903, -0.41605005, -0.60467184, 0.35020036, -0.58192295, -0.51537895, -0.016062982, 0.063129425
106, 995828570, -0.41621554, -0.6042886, 0.3501745, -0.5822183, -0.55049366, 0.14597318, 0.048524857
107, 995845237, -0.4163682, -0.6039786, 0.35014978, -0.5824455, -0.4497179, 0.31703794, 0.016030312
108, 995861904, -0.4164544, -0.6038137, 0.3500713, -0.582602, -0.3777178, 0.41203114, 0.060289383
109, 995878571, -0.41632262, -0.6037171, 0.3498651, -0.5829201, -0.1416291, 0.22475502, 0.10254383
110, 995895238, -0.4160701, -0.60368156, 0.3495512, -0.58332545, -0.026211364, 0.09838548, 0.09870052
111, 995911905, -0.4158067, -0.6036597, 0.34920812, -0.5837412, 0.006995173, -0.011284722, 0.10898113
112, 995928572, -0.41539332, -0.60364854, 0.34879023, -0.58429664, 0.03281807, -0.09210142, 0.07215023
113, 995945239, -0.4149885, -0.603599, 0.34830365, -0.58492523, 8.249863E-4, -0.069769345, 0.10276604
114, 995961906, -0.4145687, -0.60353845, 0.34789324, -0.5855293, -0.041831568, -0.11014093, 0.0614233
115, 995978573, -0.41414317, -0.6035285, 0.34754738, -0.586046, -0.0386008, -0.21273941, 0.13537598
116, 995995240, -0.4139495, -0.6034223, 0.34742606, -0.58636403, 0.036675345, -0.12625755, 0.12770557
117, 996011907, -0.41392088, -0.603179, 0.3474232, -0.5866361, -0.014411333, -0.122427434, 0.12284565
118, 996028574, -0.4139768, -0.6028479, 0.34757257, -0.5868486, -0.01276706, -0.09224, 0.11693859
119, 996045241, -0.41402802, -0.60251373, 0.34780708, -0.5870167, -0.08651214, -0.1510818, 0.06516838
120, 996061908, -0.414184, -0.6021485, 0.3480822, -0.5871183, 8.824291E-4, -0.08888015, 0.09720802
121, 996078575, -0.41435745, -0.60174185, 0.3482629, -0.5873057, 0.04067187, -0.012562322, 0.15626144
122, 996095242, -0.4143465, -0.6013575, 0.34834114, -0.5876606, -0.060810164, 0.12054523, 0.078261375
123, 996111909, -0.41416702, -0.60105413, 0.34831178, -0.5881148, -0.23627119, 0.10653544, 0.061177254
124, 996128576, -0.41383982, -0.6009462, 0.3481398, -0.5885571, -0.22835504, -0.021798324, -0.002251625
125, 996145243, -0.4136413, -0.6008353, 0.34804565, -0.58886534, 0.06115102, 0.06363145, 0.11102486
126, 996161910, -0.41333517, -0.600756, 0.34786752, -0.58926666, 0.17251433, 0.10915099, 0.05094433
127, 996178577, -0.41267982, -0.6008453, 0.34743917, -0.58988696, 0.06435028, -0.06465537, 0.13013268
128, 996195244, -0.41209534, -0.6008867, 0.34706408, -0.5904739, 0.12605348, -0.1391053, 0.08053398
129, 996211911, -0.4116033, -0.6008362, 0.3466641, -0.5911031, 0.20483778, -0.21489608, 0.12524414
130, 996228578, -0.4109988, -0.60083395, 0.34622565, -0.59178257, 0.22995952, -0.22332498, 0.021899223
131, 996245245, -0.41031566, -0.600785, 0.3457061, -0.59260964, 0.10645084, -0.3934798, 0.11919212
132, 996261912, -0.4098614, -0.60065335, 0.34549645, -0.5931794, -0.06505948, -0.28790748, 0.17536736
133, 996278579, -0.4097053, -0.60044944, 0.34553698, -0.59347, -0.13023195, -0.12014805, 0.14734364
134, 996295246, -0.40989032, -0.6001484, 0.34590104, -0.59343475, -0.18406202, 0.25620976, 0.101792336
135, 996311913, -0.41022974, -0.59977955, 0.3463171, -0.5933303, -0.18686801, 0.45440096, 0.04113865
136, 996328580, -0.41029218, -0.59958225, 0.34645888, -0.5934038, -0.23647447, 0.34376806, 0.099432945
137, 996345247, -0.41008702, -0.5995314, 0.34647232, -0.5935891, -0.19677946, 0.14493944, 0.0566988
138, 996361914, -0.40974987, -0.5996006, 0.34634316, -0.5938272, -0.0092280675, 0.08082921, 0.08146
139, 996378581, -0.40931007, -0.5996921, 0.3460593, -0.5942038, 0.108560465, -0.024802785, 0.12490082
140, 996395248, -0.4088265, -0.5997496, 0.3457916, -0.59463435, 0.016028337, -0.042078547, 0.1742382
141, 996411915, -0.40834296, -0.5997022, 0.3455168, -0.595174, -0.15038924, -0.11587314, 0.17979431
142, 996428582, -0.4080157, -0.59948206, 0.3453557, -0.5957132, -0.2946711, -0.062041163, 0.1493187
143, 996445249, -0.40790975, -0.5991122, 0.34535387, -0.59615874, -0.22785135, 0.003433159, 0.15400505
144, 996461916, -0.40789834, -0.5986476, 0.34544662, -0.59657955, -0.13801154, 0.11543796, 0.13305855
145, 996478583, -0.40786546, -0.5980634, 0.34543216, -0.5971959, -0.22724171, -0.007281605, 0.18657494
146, 996495250, -0.40791163, -0.5972198, 0.34552208, -0.59795594, -0.36242872, 0.016533254, 0.17376232
147, 996511917, -0.40814677, -0.5962015, 0.34566632, -0.598728, -0.37950733, 0.077169634, 0.12686157
148, 996528584, -0.40828317, -0.5952148, 0.34567365, -0.59961194, -0.53641737, 0.11311946, 0.092473984
149, 996545251, -0.40842998, -0.5941944, 0.3456129, -0.60055804, -0.50059336, 0.23309317, 0.13519382
150, 996561918, -0.40839776, -0.5931941, 0.3453949, -0.6016933, -0.19511028, 0.34102222, 0.12409496
151, 996578585, -0.40816095, -0.5921613, 0.34492388, -0.60314006, -0.11396613, 0.42603916, 0.1671114
152, 996595252, -0.40758374, -0.59104645, 0.3440627, -0.60511225, -0.35924825, 0.25228086, 0.13974094
153, 996611919, -0.4067724, -0.58981514, 0.342897, -0.6075166, -0.56580013, 0.046249077, 0.13535786
154, 996628586, -0.40597737, -0.5883264, 0.34163362, -0.6101977, -0.557462, -0.038821742, 0.15855885
155, 996645253, -0.40518883, -0.58648795, 0.3401161, -0.61333126, -0.32089296, -0.15285581, 0.28818893
156, 996661920, -0.40426102, -0.5843098, 0.33847407, -0.6169205, -0.1956286, -0.2335308, 0.39337635
157, 996678587, -0.4028364, -0.5817793, 0.33639967, -0.62136245, -0.015892666, -0.53588057, 0.40089798
158, 996695254, -0.40063584, -0.5790826, 0.33343244, -0.6268789, -0.0049955146, -1.0559765, 0.44360542
159, 996711921, -0.39801216, -0.57592696, 0.32978544, -0.6333533, 0.11690868, -1.2041295, 0.41261864
160, 996728588, -0.39542893, -0.5721837, 0.32644826, -0.6400574, 0.32898703, -1.0516202, 0.32480717
161, 996745255, -0.39279264, -0.5681516, 0.32386595, -0.64655155, 0.004440085, -0.99443394, 0.12027836
162, 996761922, -0.39030504, -0.5634989, 0.3214814, -0.6532847, -0.3862982, -1.2315435, 0.2150774
163, 996778589, -0.38751227, -0.55844015, 0.3186343, -0.6606446, 0.16406007, -1.7689801, 0.20347404
164, 996795256, -0.38581908, -0.55191535, 0.31703794, -0.66784745, -0.013707491, -1.9019107, 0.28043556
165, 996811923, -0.38470986, -0.544324, 0.31684604, -0.6747729, -0.19665922, -2.7768705, 0.3758173
166, 996828590, -0.3863475, -0.53517914, 0.3181163, -0.68053025, -0.9274898, -2.9780066, -0.119618416
167, 996845257, -0.39024684, -0.5229929, 0.32134536, -0.68623847, -1.8369526, -2.6187258, -0.22728062
168, 996861924, -0.39604118, -0.5096385, 0.3263298, -0.69060063, -1.0594671, -1.7829143, -0.9453602
169, 996878591, -0.4019812, -0.49631935, 0.33224666, -0.6940396, -0.7804617, -0.6549842, -0.7233391
170, 996895258, -0.40836313, -0.48255575, 0.338074, -0.6971985, -0.86176515, 0.09113942, -0.15479851
171, 996911925, -0.41470635, -0.46891084, 0.34359598, -0.7000596, 0.48993146, -0.32066554, -0.73816013
172, 996928592, -0.4192463, -0.45643944, 0.3484773, -0.70317817, 0.208896, 0.71034485, -1.0648928
173, 996945259, -0.42472154, -0.44440407, 0.3536158, -0.705034, -0.74176586, 2.2740562, -0.28588772
174, 996961926, -0.42734563, -0.43155023, 0.35553136, -0.71044904, 1.7261728, 0.720473, -0.02070427
175, 996978593, -0.42787156, -0.42163783, 0.3561398, -0.7157599, 1.1982226, 0.043178905, -1.1068153
176, 996995260, -0.42706448, -0.4120168, 0.35561612, -0.72207725, -0.3357227, -0.6054033, -0.50798607
177, 997011927, -0.42635638, -0.4018899, 0.35315633, -0.72937363, -1.2057493, -0.04341605, -0.5846472
178, 997028594, -0.42764243, -0.3903178, 0.34947643, -0.73664147, -1.2075261, 0.18146424, -1.3364496
179, 997045261, -0.43050647, -0.37799174, 0.34654856, -0.742759, -0.32858026, -0.6578793, -1.6811867
180, 997061928, -0.4328642, -0.3666786, 0.34537435, -0.7475912, 0.13854517, -0.13075463, -0.94607925
181, 997078595, -0.43405554, -0.35525477, 0.34494346, -0.75259835, 0.4084573, 1.3793172, -0.1402235
182, 997095262, -0.43422872, -0.34333524, 0.34442934, -0.7582447, 0.5319366, 1.1528369, -0.7437649
183, 997111929, -0.43425244, -0.33105573, 0.34160897, -0.76493824, 0.74591523, 0.70589423, -0.5688734
184, 997128596, -0.43508717, -0.3182952, 0.33804056, -0.77143776, 1.109112, 0.4215337, -0.26151943
185, 997145263, -0.43568262, -0.30641153, 0.33428624, -0.7775255, 0.70957595, 0.6392983, -0.29454422
186, 997161930, -0.43585157, -0.2949203, 0.33054247, -0.78345233, 0.8276173, 1.636876, 0.39565563
187, 997178597, -0.43533275, -0.28452802, 0.32578388, -0.78955334, 1.6837214, 1.8355179, 0.49864674
188, 997195264, -0.43380478, -0.27492097, 0.31993523, -0.796162, 0.3265265, 0.95420533, -0.11134148
189, 997211931, -0.43277073, -0.26476356, 0.3146054, -0.80226773, -0.074611306, 0.9602835, -0.020401955
190, 997228598, -0.4317602, -0.25466496, 0.31027722, -0.80774814, -0.29978776, 0.63812, 0.85560894
191, 997245265, -0.43035144, -0.24524546, 0.30643845, -0.8128641, 0.25155622, 1.2940943, 1.02351
192, 997261932, -0.428784, -0.23698935, 0.30230835, -0.81767386, 0.108068064, 0.44795886, 0.49016953
193, 997278599, -0.4271232, -0.22897948, 0.29762852, -0.82252765, -0.4491171, 0.27731174, 0.081088066
194, 997295266, -0.42623568, -0.22068524, 0.29262486, -0.8270382, -0.21605422, 0.28695533, 0.41787624
195, 997311933, -0.42593947, -0.2121821, 0.28842363, -0.830883, -1.0617944, -0.32723927, 0.3115759
196, 997328600, -0.42539254, -0.20425598, 0.28560334, -0.8341174, 0.08834081, 0.23959254, 0.64008236
197, 997345267, -0.42446306, -0.1972821, 0.28298488, -0.8371564, 0.626282, 0.4861807, 1.0679722
198, 997361934, -0.42294145, -0.19082186, 0.28010136, -0.84038746, 0.1838878, 0.75570536, 0.99375725
199, 997378601, -0.4214161, -0.18440525, 0.27706435, -0.843587, 0.25782084, 0.8473562, 0.37534904
200, 997395268, -0.4202789, -0.17777157, 0.27415827, -0.8465227, 0.06076155, 0.34532103, 0.4882202
201, 997411935, -0.41904122, -0.17168361, 0.27214155, -0.8490398, -0.09238081, -0.17887916, 0.68410397
202, 997428602, -0.41772538, -0.16655286, 0.27068388, -0.8511735, 0.10931616, 0.34748453, 0.64030457
203, 997445269, -0.41644147, -0.1619082, 0.26923448, -0.8531563, 0.19494453, 0.35793978, 0.5552349
204, 997461936, -0.41527176, -0.1575288, 0.26768106, -0.8550329, 0.6169025, 0.29280314, 0.5176916
205, 997478603, -0.41422036, -0.15357281, 0.2659087, -0.8568139, 0.8873632, 0.5554943, 0.52126694
206, 997495270, -0.41273132, -0.15032619, 0.26380724, -0.8587556, 0.46441376, 0.49057803, 0.7234812
207, 997511937, -0.41081595, -0.1477771, 0.26094514, -0.8609881, 0.89626884, 0.6059343, 0.7191868
208, 997528604, -0.4092462, -0.1449365, 0.25849992, -0.86295396, 0.9513611, 0.1528385, -0.09108639
209, 997545271, -0.40755898, -0.14165077, 0.25660348, -0.8648617, 1.5113882, -0.30241963, 0.41375923
210, 997561938, -0.4056331, -0.1388064, 0.25416592, -0.86694556, 1.6936053, 0.5908428, 0.38342
211, 997578605, -0.4037107, -0.13672362, 0.25101653, -0.8690888, 0.9432761, 1.00203, 0.16052341
212, 997595272, -0.40167895, -0.13530634, 0.24742414, -0.8712796, 0.302371, 0.6241802, 0.21039581
213, 997611939, -0.3997521, -0.13428941, 0.24362086, -0.87339216, -0.04769118, 0.06762066, 0.31290722
214, 997628606, -0.39816073, -0.1329979, 0.24031089, -0.87523186, -0.56809705, -0.40325946, 0.1325159
215, 997645273, -0.3967155, -0.13151132, 0.23769452, -0.87682563, -0.7898274, -0.8768157, -0.16640472
216, 997661940, -0.3955214, -0.12990059, 0.23546442, -0.87820584, -0.8213205, -0.43110514, 0.01924324
217, 997678607, -0.39448985, -0.12834883, 0.23321767, -0.8794966, -0.7583428, -0.008300824, 0.12798786
218, 997695274, -0.3936497, -0.12722446, 0.23082156, -0.8806676, -0.5992105, -0.19476941, 0.02855587
219, 997711941, -0.39299682, -0.12613773, 0.22857766, -0.8817002, -0.74919325, -0.59220374, -0.29502392
220, 997728608, -0.39263254, -0.12497039, 0.22661245, -0.88253564, -0.6273333, -0.52738804, 0.01146698
221, 997745275, -0.39251426, -0.1237965, 0.2248321, -0.8832088, -0.6177438, -0.2985059, 0.15961361
222, 997761942, -0.3924738, -0.12254432, 0.22329599, -0.8837909, -0.16906056, -0.07906279, 0.032349586
223, 997778609, -0.39244288, -0.12138627, 0.22176066, -0.88435084, -0.002071518, -0.057910476, 0.15799141
224, 997795276, -0.3922789, -0.120340146, 0.22026944, -0.884939, -0.21630354, -0.03400476, 0.055864334
225, 997811943, -0.39197272, -0.1193255, 0.2187838, -0.8855805, -0.19337569, 0.07392428, 0.08760357
226, 997828610, -0.39163065, -0.11833622, 0.21725821, -0.88623995, -0.17189929, 0.16740869, 0.18156433
227, 997845277, -0.391215, -0.11742847, 0.215601, -0.88694865, 0.034732964, 0.11361745, 0.24373436
228, 997861944, -0.39079887, -0.116684794, 0.21378562, -0.88766927, 0.22026017, 0.19342266, 0.18278408
229, 997878611, -0.3904041, -0.11598834, 0.21177554, -0.888416, 0.17428339, 0.1328547, -0.02641964
230, 997895278, -0.3899893, -0.11513617, 0.20979048, -0.8891795, 0.05131578, -0.04083945, -0.13404655
231, 997911945, -0.3894254, -0.11431249, 0.20793203, -0.88996917, 0.063329324, -0.089668505, 0.032479286
232, 997928612, -0.3885815, -0.11369646, 0.2061521, -0.8908307, 0.22133169, 0.30608952, 0.20152473
233, 997945279, -0.38751575, -0.11322783, 0.20415479, -0.891814, 0.26861888, 0.27862254, 0.11802387
234, 997961946, -0.38624826, -0.112870514, 0.20190243, -0.8929212, 0.03832426, -0.15993363, -0.005865097
235, 997978613, -0.38474524, -0.112401806, 0.19985384, -0.89408946, -0.23057261, -0.52031803, -0.14753819
236, 997995280, -0.38320982, -0.11174021, 0.19817, -0.89520586, -0.18199117, -0.72013175, -0.075250626
237, 998011947, -0.38205963, -0.111022405, 0.19674203, -0.89610124, 0.0072167865, -0.77129376, 0.036188126
238, 998028614, -0.38163695, -0.110292666, 0.1955518, -0.89663184, 0.03235652, -0.63347983, 0.018982887
239, 998045281, -0.3817932, -0.109710716, 0.19446312, -0.8968733, -0.0024863582, -0.51107806, 0.00807476
240, 998061948, -0.38211745, -0.10949953, 0.19320004, -0.8970341, -0.13482319, -0.5170896, 0.005056381
241, 998078615, -0.38248768, -0.10968313, 0.1918194, -0.8971503, -0.2084869, -0.49392128, -0.11735821
242, 998095282, -0.38292998, -0.10976404, 0.19069326, -0.8971918, -0.36817703, -0.59414506, -0.27257824
243, 998111949, -0.3833319, -0.10977328, 0.18984957, -0.89719796, -0.37485602, -0.6811067, -0.0986166
244, 998128616, -0.3835676, -0.1097537, 0.18944053, -0.8971859, -0.37398875, -0.44441277, 0.035001755
245, 998145283, -0.38371485, -0.10971267, 0.1892882, -0.8971601, -0.3113787, -0.18820257, -0.005590439
246, 998161950, -0.3838452, -0.10970673, 0.18931238, -0.8970999, -0.3286442, -0.25885075, 0.030538559
247, 998178617, -0.38398355, -0.10966709, 0.1897903, -0.8969446, -0.33952412, -0.24400099, 0.06076336
248, 998195284, -0.38412157, -0.10945258, 0.19040008, -0.8967824, -0.4344427, -0.05308905, 0.04924774
249, 998211951, -0.3843251, -0.10909282, 0.19097811, -0.8966162, -0.45168465, 0.07714536, 0.13432503
250, 998228618, -0.3846254, -0.10875182, 0.19141313, -0.89643604, -0.37518185, 0.17431416, 0.16147709
251, 998245285, -0.38497615, -0.10843791, 0.1915814, -0.89628756, -0.26748314, 0.21649966, 0.11150074
252, 998261952, -0.38532063, -0.10807984, 0.19160852, -0.8961769, -0.28616533, 0.077515274, 0.120248795
253, 998278619, -0.38558537, -0.107613675, 0.19162348, -0.896116, -0.29803547, -0.025109977, 0.18381786
254, 998295286, -0.38584274, -0.10703782, 0.19182543, -0.8960311, -0.289255, -0.07224676, 0.1734066
255, 998311953, -0.38614145, -0.106318556, 0.19218475, -0.895911, -0.19185536, -0.13009407, 0.08656788
256, 998328620, -0.3865597, -0.1055327, 0.1927286, -0.8957068, -0.09623987, -0.05461902, 0.10106373
257, 998345287, -0.38708028, -0.104706936, 0.19328022, -0.89545983, 0.015046724, -0.019213174, 0.12340164
258, 998361954, -0.38764778, -0.10394699, 0.19370228, -0.8952118, 0.20026739, 0.09181055, 0.12762642
259, 998378621, -0.38822415, -0.103304446, 0.19401331, -0.894969, 0.27922598, 0.1393078, 0.09144497
260, 998395288, -0.3887335, -0.10285756, 0.19408561, -0.8947835, 0.3942565, 0.117496684, 0.06908417
261, 998411955, -0.3891353, -0.10258131, 0.19397709, -0.89466417, 0.40797886, 0.085823804, 0.12648582
262, 998428622, -0.38942242, -0.102392994, 0.19383642, -0.8945914, 0.37201944, 0.040245995, 0.12330246
263, 998445289, -0.38959208, -0.10228259, 0.1936361, -0.8945736, 0.30097982, 0.042403314, 0.11332321
264, 998461956, -0.389659, -0.102239594, 0.1933891, -0.8946027, 0.3173277, -0.07935554, 0.060297012
265, 998478623, -0.3896402, -0.10222117, 0.19306947, -0.8946821, 0.23824883, -0.058580317, 0.041685104
266, 998495290, -0.38957506, -0.10224918, 0.19271296, -0.8947839, 0.20936805, -0.10296004, 0.030106544
267, 998511957, -0.38944098, -0.10231542, 0.19236203, -0.8949103, 0.045724493, -0.104639515, -0.0023174286
268, 998528624, -0.3892071, -0.10239926, 0.19197443, -0.89508563, -0.005590003, -0.08352707, 0.0018072128
269, 998545291, -0.3889416, -0.10257417, 0.19169368, -0.8952413, -0.024605703, -0.08365054, 0.04766178
270, 998561958, -0.38870457, -0.10263132, 0.1913219, -0.8954171, -0.044111345, -0.044878997, 0.005724907
271, 998578625, -0.38854188, -0.10258232, 0.19091421, -0.8955805, -0.10100523, -0.09112914, 0.15515614
272, 998595292, -0.38833964, -0.10265399, 0.19071577, -0.895702, -0.19417448, -0.281688, 0.16400051
273, 998611959, -0.38817754, -0.10269123, 0.19085768, -0.895738, -0.29165268, -0.11897645, 0.06019211
274, 998628626, -0.38802454, -0.10269905, 0.19110854, -0.8957498, -0.2320521, -0.15435757, -0.012833595
275, 998645293, -0.3879229, -0.102549836, 0.19127423, -0.89577544, -0.15257558, -0.111954905, -0.025558472
276, 998661960, -0.38787058, -0.10245379, 0.19142443, -0.8957771, -0.19875023, -0.062754, 0.08389282
277, 998678627, -0.38788092, -0.10230423, 0.1914623, -0.89578164, -0.18368775, -0.17999461, 0.050070763
278, 998695294, -0.38791707, -0.10216532, 0.19146934, -0.89578027, -0.15205257, -0.18188573, 0.077923775
279, 998711961, -0.38794616, -0.1020656, 0.19149628, -0.8957734, -0.15024552, -0.2125764, 0.08642197
280, 998728628, -0.38799167, -0.10196892, 0.19170853, -0.89571923, -0.20002343, -0.2095782, 0.024970055
281, 998745295, -0.3880721, -0.101818964, 0.19196835, -0.8956458, -0.103737675, -0.092319705, 0.0056762695
282, 998761962, -0.38821352, -0.10165915, 0.1921542, -0.8955629, -0.034866624, -0.0556072, 0.07110596
283, 998778629, -0.3883712, -0.101512976, 0.19227259, -0.8954857, -0.011662962, 0.026134755, 0.09714222
284, 998795296, -0.38847798, -0.1014205, 0.19222783, -0.8954593, 0.022307208, -0.041388117, 0.10042763
285, 998811963, -0.38855225, -0.10136529, 0.19218668, -0.89544225, -0.0036430936, -0.11344339, -0.0107584
286, 998828630, -0.38860798, -0.10131443, 0.19220622, -0.8954196, -0.031401727, -0.120743036, -0.042658806
287, 998845297, -0.38867095, -0.101259634, 0.19222724, -0.89539397, -0.024166388, -0.049596325, 0.069499016
288, 998861964, -0.38872984, -0.101235285, 0.19215746, -0.8953861, -0.007893416, 0.021104848, 0.10899925
289, 998878631, -0.38876492, -0.10125877, 0.19194852, -0.89541304, -0.014300247, -0.0017128356, 0.039016724
290, 998895298, -0.38879818, -0.10123862, 0.19161135, -0.89547306, -0.060390405, -0.06705556, 0.08626366
291, 998911965, -0.38879976, -0.10124751, 0.19131942, -0.8955338, -0.1031585, -0.12790962, 0.072481155
292, 998928632, -0.388802, -0.10124021, 0.19112885, -0.8955744, -0.10931589, -0.11966543, -0.010751724
293, 998945299, -0.3888178, -0.10119724, 0.190985, -0.8956031, -0.06665028, -0.06560287, 0.044299126
294, 998961966, -0.38886896, -0.10114481, 0.19077724, -0.8956311, -0.08486575, -0.02530949, 0.16210938
295, 998978633, -0.3889469, -0.10109428, 0.19050367, -0.89566123, -0.14657477, -0.06263839, 0.12068844
296, 998995300, -0.3890357, -0.101035975, 0.19024344, -0.89568466, -0.1453778, -0.18154655, -0.00886631
297, 999011967, -0.38919666, -0.10095618, 0.19006503, -0.8956615, -0.07044743, -0.24219154, -0.034391403
298, 999028634, -0.38943857, -0.10089837, 0.18992768, -0.8955919, -0.034001797, -0.20416138, 0.017798424
299, 999045301, -0.38973343, -0.10082588, 0.18985638, -0.895487, -0.03544245, -0.23578142, 0.08230114
300, 999061968, -0.3900492, -0.10077917, 0.18985598, -0.89535487, 0.06928684, -0.10173611, 0.082214355
301, 999078635, -0.39038253, -0.100821346, 0.18981023, -0.8952144, 0.1528918, -0.016243609, 0.094548225
302, 999095302, -0.39059746, -0.100995354, 0.18957238, -0.8951514, 0.10930476, -0.016269257, 0.09343624
303, 999111969, -0.3907042, -0.101113364, 0.18944955, -0.8951175, 0.029457778, 0.021599928, 0.104584694
304, 999128636, -0.39073536, -0.101168476, 0.18931992, -0.89512515, 0.04377652, 0.0153366765, 0.0050554276
305, 999145303, -0.39071867, -0.10119057, 0.18921998, -0.89515114, 0.039182156, 0.01832133, 0.056684494
306, 999161970, -0.39066535, -0.101249866, 0.18903431, -0.89520705, 0.06740564, 0.08986277, 0.1595993
307, 999178637, -0.39057073, -0.10136829, 0.18871129, -0.89530295, 0.056983512, 0.12870656, 0.18705654
308, 999195304, -0.39043587, -0.10150983, 0.18832119, -0.895428, -0.023757862, 0.14458832, 0.11830139
309, 999211971, -0.39026123, -0.10161545, 0.18793976, -0.8955723, -0.16846697, 0.1478164, 0.09149647
310, 999228638, -0.38999164, -0.101650186, 0.18772008, -0.8957317, -0.21980694, 0.21014073, 0.19738293
311, 999245305, -0.3895952, -0.101615004, 0.18765968, -0.895921, -0.31605262, 0.2661048, 0.23490334
312, 999261972, -0.3890952, -0.101578794, 0.18776391, -0.8961204, -0.30432758, 0.22861321, 0.24215317
313, 999278639, -0.38848248, -0.10161666, 0.1880284, -0.8963264, -0.40770093, 0.31060228, 0.3080387
314, 999295306, -0.38761207, -0.10174237, 0.18843533, -0.8966034, -0.57382584, 0.36642116, 0.38826942
315, 999311973, -0.38653377, -0.101937994, 0.18908161, -0.89691067, -0.41157934, 0.07513111, 0.23454094
316, 999328640, -0.38533816, -0.10244557, 0.18956165, -0.897266, -0.23844804, -0.2679056, 0.008922577
317, 999345307, -0.38458923, -0.10318655, 0.18972574, -0.8974676, -0.32950252, -0.49948826, -0.24776077
318, 999361974, -0.38445807, -0.10361029, 0.19026126, -0.89736164, -0.59593374, -0.71677667, -0.55254745
319, 999378641, -0.38448688, -0.10370559, 0.1908683, -0.8972094, -0.20934442, -0.83734906, -0.46934414
320, 999395308, -0.38417917, -0.10435029, 0.19180357, -0.8970669, 0.30794728, -0.8218682, -0.3347311
321, 999411975, -0.38355592, -0.1054334, 0.1925545, -0.8970461, 0.49180886, -0.7438273, -0.35973835
322, 999428642, -0.38272953, -0.10679755, 0.19276565, -0.8971924, 0.9526679, -0.9256107, -0.26590633
323, 999445309, -0.38233832, -0.108830124, 0.1949267, -0.896648, 1.4840248, -1.9299973, -0.17363453
324, 999461976, -0.38271365, -0.11114004, 0.20026997, -0.8950253, 1.4291582, -2.476338, 0.10234356
325, 999478643, -0.3823089, -0.11470607, 0.20612188, -0.8934185, 0.053717874, -1.6694411, -0.22251892
326, 999495310, -0.38223884, -0.11824624, 0.2108777, -0.89187574, 1.5025665, 0.42308816, -0.056360245
327, 999511977, -0.38315222, -0.12374562, 0.21293356, -0.89024776, 3.1662822, 0.29131383, 0.7199869
328, 999528644, -0.3846748, -0.12862194, 0.21357863, -0.88874424, 2.1543267, -0.27108625, 0.34331512
329, 999545311, -0.3856599, -0.13325404, 0.21573864, -0.8871118, 0.34066537, -1.1918626, -0.29183865
330, 999561978, -0.3860413, -0.13813682, 0.21938512, -0.88530266, 1.2713188, -0.18599024, 0.39741707
331, 999578645, -0.38712922, -0.14314398, 0.22274488, -0.88319075, 1.6584274, -0.8175456, 0.08967972
332, 999595312, -0.3886517, -0.14808202, 0.22585997, -0.8809138, 0.86517215, -0.9346258, -0.3561077
333, 999611979, -0.39036614, -0.15334354, 0.22914752, -0.87840307, 0.77815926, -0.8185739, -0.21449375
334, 999628646, -0.392349, -0.15925394, 0.23204798, -0.87570226, 0.78243566, -0.2823842, 0.065909386
335, 999645313, -0.39474094, -0.16561393, 0.23472016, -0.87273043, 0.04259397, -0.34000725, 0.2755804
336, 999661980, -0.39720106, -0.17236103, 0.23782104, -0.86946225, -0.47543117, -0.2872546, 0.25750923
337, 999678647, -0.39976177, -0.17946263, 0.24168216, -0.8657794, -0.78591657, -0.057045422, 0.4021721
338, 999695314, -0.40262637, -0.18678237, 0.2460213, -0.86167175, -0.96025085, 0.37230733, 0.39027214
339, 999711981, -0.4059533, -0.19420457, 0.2504244, -0.85718995, -0.91922885, 0.53844, 0.66329193
340, 999728648, -0.40965363, -0.20199522, 0.254677, -0.8523625, -0.84330904, 0.4634806, 0.94042873
341, 999745315, -0.4134906, -0.2100672, 0.2590153, -0.8472359, -1.3165514, 0.33221692, 0.7153654
342, 999761982, -0.41740212, -0.21803424, 0.26395503, -0.84176284, -1.5671183, 0.35722423, 0.51542854
343, 999778649, -0.42157573, -0.22622563, 0.26920828, -0.83583695, -1.504032, 0.7205252, 0.5899782
344, 999795316, -0.42617592, -0.23446135, 0.27415505, -0.82960314, -1.6393086, 0.7713946, 0.9647932
345, 999811983, -0.4310442, -0.24287066, 0.2788712, -0.82307106, -1.8001648, 0.74970436, 1.0482616
346, 999828650, -0.43619868, -0.25137717, 0.28363, -0.8161461, -1.8157192, 0.8869061, 0.997447
347, 999845317, -0.44157797, -0.25988656, 0.2888123, -0.8087369, -1.7260058, 1.0836601, 0.88510513
348, 999861984, -0.4469366, -0.2685335, 0.29409754, -0.801027, -1.0821105, 1.4136379, 0.7977781
349, 999878651, -0.4522187, -0.2773762, 0.29926464, -0.7930962, -0.43680725, 1.4763635, 0.86086845
350, 999895318, -0.4574147, -0.2865266, 0.30414155, -0.78496677, 0.4583427, 1.8272171, 0.95338535
351, 999911985, -0.4623535, -0.2958551, 0.3087426, -0.77677363, 1.0088934, 2.385327, 0.87586594
352, 999928652, -0.46642333, -0.30553225, 0.31296325, -0.7688652, 1.5410979, 2.6424005, 0.7251997
353, 999945319, -0.46926606, -0.31581277, 0.3165748, -0.7614674, 2.2597039, 2.778925, 0.68346024
354, 999961986, -0.4704993, -0.3271899, 0.31912845, -0.75480765, 2.7855682, 2.6137896, 0.60273457
355, 999978653, -0.4700853, -0.339576, 0.32073218, -0.74889207, 2.717299, 2.49312, 0.29229832
356, 999995320, -0.46812287, -0.35265774, 0.32163435, -0.7436701, 1.9213845, 2.1604967, -0.06705856
357, 1000011987, -0.46462944, -0.36640435, 0.32211825, -0.73899096, 1.1266522, 1.6482798, -0.37885952
358, 1000028654, -0.46022245, -0.38012636, 0.322455, -0.734658, 0.62335193, 1.3150077, -0.56531715
359, 1000045321, -0.454839, -0.39404762, 0.32239798, -0.73068994, -0.07458527, 0.8564527, -0.67712593
360, 1000061988, -0.44936344, -0.4076458, 0.32210898, -0.7267349, -0.55709565, 0.3923114, -0.81742
361, 1000078655, -0.44395116, -0.42090303, 0.32173532, -0.72265804, -1.5035226, -0.14713702, -0.97846794
362, 1000095322, -0.43906134, -0.43380713, 0.32134277, -0.71817535, -2.0918653, -0.7214966, -0.719717
363, 1000111989, -0.43469685, -0.44636464, 0.321622, -0.7129915, -2.520536, -1.3933178, -0.8451061
364, 1000128656, -0.43198872, -0.45770818, 0.32283247, -0.7068724, -2.2083724, -0.7493465, -0.9242945
365, 1000145323, -0.43021348, -0.46836025, 0.32441708, -0.70022076, -1.7538593, -0.8833164, -0.7670212
366, 1000161990, -0.42843118, -0.47889894, 0.32548925, -0.69365686, -1.2941908, -0.15494186, -0.8934479
367, 1000178657, -0.4264497, -0.48963496, 0.32671914, -0.6867701, 0.004457519, -0.2672901, -0.8729229
368, 1000195324, -0.42404708, -0.50059825, 0.32804078, -0.6796877, 0.8735957, 0.3203315, -0.8778696
369, 1000211991, -0.42059463, -0.5114605, 0.3282586, -0.67361337, 1.0178452, 0.63157755, -0.5880785
370, 1000228658, -0.41546628, -0.52268296, 0.3268732, -0.6688384, 0.9331332, 0.47175807, -0.42252636
371, 1000245325, -0.40988198, -0.5333114, 0.32536495, -0.6646156, -0.23186642, 0.36238626, -0.59140205
372, 1000261992, -0.4036827, -0.5432901, 0.32328886, -0.6613327, -1.1061594, -1.5883728, -0.26565742
373, 1000278659, -0.39823955, -0.5526384, 0.32134256, -0.6578261, -1.8393533, -1.941831, -0.10319328
374, 1000295326, -0.39441925, -0.5604486, 0.31985575, -0.6542349, -2.7607853, -2.5300987, -0.008378029
375, 1000311993, -0.39254916, -0.5672206, 0.319786, -0.64954084, -2.5339024, -3.2956703, 0.008225441
376, 1000328660, -0.39337352, -0.57260805, 0.3222828, -0.64304864, -1.7862891, -2.4266484, -0.09190369
377, 1000345327, -0.39600572, -0.5769923, 0.32634616, -0.63541937, -0.5127912, -1.2569278, 0.021022797
378, 1000361994, -0.39886555, -0.5811432, 0.329855, -0.6279927, 0.9469548, -0.12105797, 0.17284393
379, 1000378661, -0.400824, -0.5850762, 0.33282053, -0.62149554, 1.6093837, 0.25400168, 0.22994804
380, 1000395328, -0.4013109, -0.58927596, 0.33463174, -0.6162185, 1.4539341, 0.06381764, 0.14516449
381, 1000411995, -0.40072092, -0.5933985, 0.3356812, -0.6120615, 0.43588045, 0.15969554, 0.08754635
382, 1000428662, -0.39983004, -0.5972171, 0.33572945, -0.6088954, -0.105475314, -0.31185982, 0.28526306
383, 1000445329, -0.39942366, -0.60041094, 0.3354173, -0.6061872, -0.027209796, 0.02856898, 0.11897755
384, 1000461996, -0.3988597, -0.6036182, 0.33534896, -0.603405, 0.050672174, -0.14246067, -0.046917915
385, 1000478663, -0.3984448, -0.60688114, 0.33592737, -0.6000752, -0.24876545, -0.41649783, -0.08043575
386, 1000495330, -0.39833665, -0.61001796, 0.33707663, -0.5963102, -0.13643543, -0.9489504, 0.17980099
387, 1000511997, -0.39833182, -0.6130869, 0.3384062, -0.59240013, 0.3531792, -0.8648054, 0.13172817
388, 1000528664, -0.3982431, -0.61573446, 0.339294, -0.58919734, 1.1398907, -0.98512506, 0.24007511
389, 1000545331, -0.39770383, -0.61778665, 0.3395895, -0.58723986, 0.99219996, -0.9904619, 0.23883533
390, 1000561998, -0.3970543, -0.61924565, 0.3399988, -0.5859043, 0.33393964, -1.0595169, 0.27121544
391, 1000578665, -0.39731553, -0.6199039, 0.34094, -0.5844826, -0.02917481, -0.64183134, 0.25965786
392, 1000595332, -0.39870954, -0.6199, 0.34236425, -0.58270204, 0.006036526, 0.059508536, 0.1997366
393, 1000611999, -0.40007922, -0.6197993, 0.3437852, -0.58103144, -0.022080956, 0.31879184, 0.088412285
394, 1000628666, -0.40103024, -0.61982715, 0.3448921, -0.57968867, -0.018944511, 0.33836865, 0.066716194
395, 1000645333, -0.4014674, -0.6201037, 0.34552252, -0.57871395, -5.687287E-4, 0.3945044, 0.014799118
396, 1000662000, -0.40155223, -0.6207488, 0.34589732, -0.577739, -0.038625497, 0.007082008, 0.08933735
397, 1000678667, -0.40146276, -0.6216075, 0.34620515, -0.57669246, 0.1424866, 0.0053283256, 0.116129875
398, 1000695334, -0.40161607, -0.6221849, 0.34644663, -0.57581735, 0.18158774, 0.21448706, 0.07581043
399, 1000712001, -0.40148014, -0.6226338, 0.346423, -0.575441, -0.0016078404, -0.053273868, 0.19982052
400, 1000728668, -0.4011, -0.6231308, 0.34629732, -0.57524395, -0.29868987, 0.07343943, 0.12760162
401, 1000745335, -0.40053096, -0.6237923, 0.34596932, -0.5751206, -0.4274711, 0.16655336, 0.025871277
402, 1000762002, -0.400342, -0.6243498, 0.34579495, -0.5747521, -0.35839486, 0.10345141, 0.19865894
403, 1000778669, -0.40083927, -0.6244523, 0.3456495, -0.5743814, -0.1914831, 0.12349851, 0.32299042
404, 1000795336, -0.40143687, -0.62438524, 0.34566438, -0.57402796, -0.20857055, -0.060453326, 0.06741333
405, 1000812003, -0.4018236, -0.6245247, 0.34592405, -0.5734488, -0.37898946, -0.13772376, 0.0020008087
406, 1000828670, -0.40229633, -0.6246574, 0.34627292, -0.5727619, -0.16902296, -0.44453666, 0.15366077
407, 1000845337, -0.40290692, -0.6247504, 0.34672296, -0.5719585, 0.35118312, -0.21244034, 0.10737896
408, 1000862004, -0.40348178, -0.62468165, 0.34724268, -0.57131267, 0.20228817, 0.05734359, 0.08553028
409, 1000878671, -0.4034327, -0.62488645, 0.3473773, -0.57104146, -0.16858062, -0.14954805, 0.099637985
410, 1000895338, -0.4033449, -0.62495, 0.3472071, -0.5711375, -0.19895168, 0.028043723, 0.236022
411, 1000912005, -0.40321845, -0.62495744, 0.3470344, -0.57132345, -0.19589357, 0.07855564, 0.084970474
412, 1000928672, -0.40337682, -0.62503165, 0.34711087, -0.5710841, -0.33692154, 0.06242046, 0.08304405
413, 1000945339, -0.4034781, -0.62522525, 0.34727356, -0.5707017, -0.24046105, -0.088288285, 0.07067299
414, 1000962006, -0.40375754, -0.625347, 0.34756234, -0.57019454, -0.051388424, 0.2412552, 0.09771538
415, 1000978673, -0.40403187, -0.6253669, 0.34757844, -0.5699684, -0.050354786, 0.13855433, 0.16325665
416, 1000995340, -0.40398303, -0.62538207, 0.34734586, -0.5701282, -0.11946544, -0.031184752, 0.17875767
417, 1001012007, -0.40374893, -0.62545335, 0.3470557, -0.57039255, -0.14074856, -0.06706327, 0.06569481
418, 1001028674, -0.40339777, -0.62556857, 0.34666476, -0.57075226, 0.026272718, -0.1530695, 0.08819389
419, 1001045341, -0.4032461, -0.6256475, 0.34635636, -0.57096016, 0.17974879, -0.21098438, 0.088456154
420, 1001062008, -0.40333325, -0.6255657, 0.3463681, -0.5709809, -0.17233285, 2.4094696E-4, 0.09903622
421, 1001078675, -0.40342632, -0.6254901, 0.34642622, -0.5709627, -0.27280092, -0.073753014, 0.13387966
422, 1001095342, -0.40379104, -0.6253314, 0.34674168, -0.5706874, -0.015045774, 0.07915555, 0.043359756
423, 1001112009, -0.4041402, -0.625274, 0.34700045, -0.5703457, -0.032420106, 0.13577898, 0.121819496
424, 1001128676, -0.40429646, -0.62523836, 0.34712425, -0.57019866, -0.20392394, 0.153907, 0.13805103
425, 1001145343, -0.40417397, -0.62516516, 0.34688574, -0.5705107, -0.13897455, -0.019839456, 0.16729546
426, 1001162010, -0.40399, -0.62513405, 0.34650406, -0.5709071, 0.07740779, 0.02761659, 0.021307945
427, 1001178677, -0.40362456, -0.62529355, 0.34623587, -0.5711536, 0.08348242, -0.10828957, 0.0084552765
428, 1001195344, -0.40325087, -0.6255194, 0.34608987, -0.5712587, -0.009434035, -0.16155808, 0.088285446
429, 1001212011, -0.4031057, -0.6255532, 0.345883, -0.57144934, 0.12959829, -0.023255853, 0.15162182
430, 1001228678, -0.40299657, -0.62548894, 0.34569293, -0.5717114, 0.08045114, -0.102299646, 0.1845293
431, 1001245345, -0.40288705, -0.62533915, 0.34539074, -0.57213515, 0.08994642, -0.1854373, 0.18180847
432, 1001262012, -0.40290123, -0.62506926, 0.3453463, -0.57244676, -0.26927993, -0.17152451, 0.08429146
433, 1001278679, -0.40288946, -0.6249677, 0.3454549, -0.57250035, -0.33983022, -0.22130734, 0.009104729
434, 1001295346, -0.40319002, -0.6248718, 0.3458343, -0.57216406, 0.054583427, -0.016760118, 0.02082634
435, 1001312013, -0.40342158, -0.62486684, 0.34606203, -0.57186866, 0.47329316, 0.014295442, 0.08495712
436, 1001328680, -0.4030596, -0.6249493, 0.34554404, -0.5723469, 0.47947037, -0.25330746, 0.25223064
437, 1001345347, -0.40257102, -0.62473, 0.34460655, -0.5734943, 0.29706985, -0.27791914, 0.27979374
438, 1001362014, -0.40204263, -0.62426275, 0.34368557, -0.5749246, -0.007905877, -0.43371928, 0.06254387
439, 1001378681, -0.40161863, -0.62370044, 0.3427481, -0.57638896, -0.052483972, -0.44352302, 0.07464695
440, 1001395348, -0.40147755, -0.62271637, 0.34145117, -0.5783178, 0.10124388, -0.32255355, 0.23704338
441, 1001412015, -0.4013271, -0.6210301, 0.33967435, -0.5812743, 0.09469573, -0.40016463, 0.41360283
442, 1001428682, -0.4010319, -0.6186574, 0.33789337, -0.58503395, -0.31508687, -0.77652246, 0.36054897
443, 1001445349, -0.40044263, -0.61616844, 0.33597898, -0.5891526, -0.44837627, -1.1352695, 0.35097885
444, 1001462016, -0.3999222, -0.61343855, 0.33426073, -0.59331733, -0.4510581, -0.654705, 0.20537186
445, 1001478683, -0.39951655, -0.61048865, 0.33303455, -0.5973094, -0.81832856, -0.10961813, 0.13487625
446, 1001495350, -0.39878002, -0.6073751, 0.3317772, -0.60165954, -1.2540839, -0.13990213, 0.09263134
447, 1001512017, -0.39818513, -0.60376865, 0.33063605, -0.6062938, -1.0638027, -0.29542333, 0.19043827
448, 1001528684, -0.3981187, -0.599541, 0.32960427, -0.61107564, -0.28229418, -0.3088388, 0.28954983
449, 1001545351, -0.39738676, -0.59508324, 0.32831654, -0.61657804, -0.052515935, -0.47101018, 0.05638218
450, 1001562018, -0.3955144, -0.5905791, 0.32661235, -0.6229844, -0.09409292, -0.8753409, 0.045100212
451, 1001578685, -0.39367136, -0.58523494, 0.32505295, -0.6299714, -0.22118652, -1.1432399, 0.079034805
452, 1001595352, -0.39246652, -0.57850105, 0.32392505, -0.63747895, -0.14415446, -1.443461, 0.19894314
453, 1001612019, -0.39235434, -0.5705162, 0.32342198, -0.6449557, -0.4744638, -1.5865489, 0.51020527
454, 1001628686, -0.3934034, -0.5626587, 0.3245678, -0.650619, -1.2290975, -0.7092173, 0.106856346
455, 1001645353, -0.39626658, -0.554117, 0.32788935, -0.65453506, -1.6934642, 0.87461716, -0.1606636
456, 1001662020, -0.3993517, -0.54479957, 0.33085397, -0.6589747, -1.7267481, 1.2325202, -0.091311455
457, 1001678687, -0.40266034, -0.53471154, 0.332492, -0.6643777, -0.29635426, 0.78882974, 0.022037506
458, 1001695354, -0.40556213, -0.52447575, 0.33354875, -0.6702164, 0.037034534, -0.10800459, -0.12178421
459, 1001712021, -0.4072343, -0.51494616, 0.33408147, -0.67629915, -1.1618052, -1.2437373, -0.23239613
460, 1001728688, -0.40941998, -0.5052198, 0.33498704, -0.6818446, -1.785399, -0.81397945, -0.5288582
461, 1001745355, -0.413031, -0.49392712, 0.33657557, -0.68713814, -0.98286736, 0.2685231, -0.15521526
462, 1001762022, -0.41750064, -0.48182407, 0.33856845, -0.69203377, -0.17754875, 0.5510456, -0.27856255
463, 1001778689, -0.42111394, -0.4705996, 0.34153208, -0.69609994, -0.5856722, 0.2754956, -0.75560665
464, 1001795356, -0.4239824, -0.46004304, 0.34521404, -0.6995905, -0.5051242, 0.1674358, -0.5619345
465, 1001812023, -0.42637116, -0.45026532, 0.34777477, -0.7032224, -0.045272883, -0.609335, -0.021346092
466, 1001828690, -0.42800257, -0.44136626, 0.3486263, -0.7074388, -0.20604117, -0.0457987, 0.56084347
467, 1001845357, -0.4289193, -0.4328062, 0.34807444, -0.7124264, -0.7543162, -0.32454574, -0.10935593
468, 1001862024, -0.43046105, -0.4239301, 0.34757033, -0.71706474, -0.9415913, 0.17198406, -0.7797651
469, 1001878691, -0.43301603, -0.41445896, 0.34852314, -0.720592, -0.7111788, -0.4399856, -0.76064205
470, 1001895358, -0.43522805, -0.40506202, 0.34998673, -0.72388595, -0.23751414, -0.22680184, -0.44202328
471, 1001912025, -0.43721095, -0.39460713, 0.3518296, -0.72756296, -0.8232131, -0.11648914, -0.26093197
472, 1001928692, -0.43916655, -0.3836959, 0.35370943, -0.7313004, -0.41699326, -1.0232563, -0.7045107
473, 1001945359, -0.44184342, -0.37217027, 0.35436168, -0.73531747, 0.11319702, -0.8284313, -1.0769491
474, 1001962026, -0.4458731, -0.36030313, 0.35466623, -0.73864126, 0.3640151, -0.8832776, -1.7098436
475, 1001978693, -0.45023137, -0.34856892, 0.35507488, -0.7414268, 0.6095186, -0.34392944, -1.5075159
476, 1001995360, -0.4542305, -0.3364254, 0.35630333, -0.74400324, 0.66884565, 0.35360566, -0.4470644
477, 1002012027, -0.45724118, -0.3239059, 0.35718468, -0.747285, 1.988604, 1.4189718, 0.3110628
478, 1002028694, -0.45877713, -0.3117654, 0.35642207, -0.75185746, 2.2084394, 1.3625103, -0.046230316
479, 1002045361, -0.4592868, -0.3004861, 0.35406846, -0.7572316, 2.632589, 0.8720957, -0.5232401
480, 1002062028, -0.45901355, -0.2901533, 0.35100257, -0.7628337, 2.2604237, 0.4480381, -0.17089367
481, 1002078695, -0.45815736, -0.27974212, 0.34856606, -0.7683347, 1.8634, 1.3812804, 0.25545883
482, 1002095362, -0.45672745, -0.26924172, 0.34686688, -0.7736876, 2.365543, 2.2235684, 0.4899397
483, 1002112029, -0.45376775, -0.26048595, 0.343765, -0.779787, 2.8213217, 2.3835428, 1.099782
484, 1002128696, -0.44945568, -0.2534202, 0.3385313, -0.78687, 1.9321892, 1.8121347, 1.017189
485, 1002145363, -0.44436505, -0.24717651, 0.33239424, -0.79432863, 0.4618484, 1.1319125, 0.8688326
486, 1002162030, -0.43958256, -0.2407802, 0.32680026, -0.80124533, -0.4502046, 1.0011396, 0.8281231
487, 1002178697, -0.4350942, -0.2338322, 0.32204986, -0.80765074, -0.72647107, 0.94740707, 0.46071148
488, 1002195364, -0.43060675, -0.22711997, 0.3170445, -0.81392735, -0.5264926, 0.7602738, 0.40877438
489, 1002212031, -0.42641115, -0.22041978, 0.31159398, -0.8200599, -1.3728871, 0.38059908, 0.59627056
490, 1002228698, -0.42240047, -0.21392871, 0.30576012, -0.8260287, -1.44904, 0.577608, 0.50382614
491, 1002245365, -0.41907707, -0.20794119, 0.30012107, -0.8313018, -0.56216925, 0.3334696, 0.35339737
492, 1002262032, -0.41611573, -0.20174512, 0.2949297, -0.8361599, -0.7561204, 0.032770406, 0.33888245
493, 1002278699, -0.41312158, -0.19540426, 0.29021195, -0.84078836, -0.48592186, 0.3250688, 0.47927952
494, 1002295366, -0.41046035, -0.1889754, 0.28564823, -0.84511304, -0.054260116, 0.6158656, 0.5762167
495, 1002312033, -0.40767926, -0.18254414, 0.28152388, -0.8492466, -0.028818196, 0.44244072, 0.32723713
496, 1002328700, -0.40470877, -0.17621276, 0.27743313, -0.8533412, 0.4199603, 0.4490022, 0.4126606
497, 1002345367, -0.40168655, -0.16997941, 0.2730503, -0.85743725, 0.5933606, 0.12967703, 0.33567524
498, 1002362034, -0.39896932, -0.1640976, 0.2686899, -0.861221, 0.16300297, -0.18256158, 0.42296314
499, 1002378701, -0.3965933, -0.15809633, 0.26506612, -0.86455745, -0.39270154, -0.2042268, 0.24304104
500, 1002395368, -0.39455616, -0.15227531, 0.26254115, -0.8673004, -0.24753848, -0.12109144, 0.27576637
501, 1002412035, -0.39266923, -0.14703298, 0.2602729, -0.8697417, 0.03481717, 0.004604926, 0.69783306
502, 1002428702, -0.39059457, -0.142808, 0.25776765, -0.87212276, 0.087395355, -0.29806748, 1.0930052
503, 1002445369, -0.3889932, -0.1394839, 0.25504914, -0.8741733, 0.63911706, -0.030291146, 1.0208225
504, 1002462036, -0.38794133, -0.13625118, 0.2519688, -0.8760419, 0.6665835, 0.2547334, -0.082315445
505, 1002478703, -0.3869912, -0.1328582, 0.24918407, -0.877778, 0.45968014, -0.1885246, -0.47971058
506, 1002495370, -0.38609973, -0.1296185, 0.2467399, -0.87934405, 0.76519495, -0.033658426, -0.014410019
507, 1002512037, -0.38515443, -0.12711383, 0.24428363, -0.8808088, 0.6552669, -0.3487576, 0.5252075
508, 1002528704, -0.384221, -0.1253141, 0.2420136, -0.88210005, 0.53198093, -0.6771718, 0.36453247
509, 1002545371, -0.38351703, -0.123951085, 0.24000807, -0.8831463, 0.49213535, -1.0600048, -0.26158905
510, 1002562038, -0.38310823, -0.12274816, 0.23815697, -0.88399255, 0.48024967, -1.1989125, -0.3448105
511, 1002578705, -0.38275555, -0.121952, 0.23661247, -0.8846699, 0.45848837, -0.97037333, -0.20060158
512, 1002595372, -0.3822643, -0.12143986, 0.23540944, -0.88527346, 0.18793052, -0.5428671, -0.20505619
513, 1002612039, -0.38164756, -0.12085216, 0.23459497, -0.88583606, -0.05460695, -0.30480844, -0.24298763
514, 1002628706, -0.38096264, -0.12017729, 0.23416628, -0.8863359, -4.670862E-4, -0.33748442, -0.014492035
515, 1002645373, -0.38027933, -0.11950888, 0.23374535, -0.8868307, 0.17582306, 0.07879619, 0.10509777
516, 1002662040, -0.37966248, -0.118871816, 0.23297632, -0.8873828, 0.3541794, 0.31955853, 0.21062088
517, 1002678707, -0.37903327, -0.11832289, 0.23215856, -0.88793933, 0.13848634, 0.29152614, 0.17705822
518, 1002695374, -0.37826344, -0.117830664, 0.23111229, -0.8886058, 0.11264075, 0.48320708, 0.10174656
519, 1002712041, -0.37745285, -0.11733349, 0.22989202, -0.8893325, 0.07536801, 0.46064746, 0.17592049
520, 1002728708, -0.37664166, -0.11679791, 0.2283706, -0.89013857, -0.008605361, 0.55399674, 0.29259872
521, 1002745375, -0.37583157, -0.11622811, 0.22647804, -0.8910385, -0.056645222, 0.6995551, 0.27829552
522, 1002762042, -0.37495053, -0.115704864, 0.22414659, -0.8920667, -0.09626329, 0.6154639, 0.16694069
523, 1002778709, -0.3738536, -0.115360714, 0.22141618, -0.8932529, -0.33907062, 0.5322102, 0.14692879
524, 1002795376, -0.37266684, -0.11511327, 0.21831667, -0.89454263, -0.5603793, 0.3666748, 0.11743355
525, 1002812043, -0.37161753, -0.11474566, 0.2151409, -0.895795, -0.66150516, -0.093283944, -0.018597603
526, 1002828710, -0.37078306, -0.114042945, 0.21202393, -0.89697284, -0.7223694, -0.35798386, -0.10307026
527, 1002845377, -0.3702385, -0.113159455, 0.20903172, -0.8980114, -0.6067006, -0.49710163, -0.067196846
528, 1002862044, -0.36998525, -0.11225193, 0.20599473, -0.8989311, -0.5142683, -0.5304717, 0.057894707
529, 1002878711, -0.3699981, -0.11130302, 0.20313384, -0.8996944, -0.53884435, -0.39297628, 0.10194492
530, 1002895378, -0.37018543, -0.11037416, 0.20056003, -0.9003091, -0.3538479, -0.49903625, 0.007050514
531, 1002912045, -0.3705191, -0.109541476, 0.1983598, -0.90076077, -0.25766814, -0.54761964, -0.015213013
532, 1002928712, -0.37085417, -0.1088874, 0.19653177, -0.90110284, -0.26012266, -0.49158776, 0.10953522
533, 1002945379, -0.37108132, -0.10847991, 0.19496243, -0.90139925, -0.21286905, -0.45649365, 0.1552248
534, 1002962046, -0.3712267, -0.10823595, 0.19384266, -0.90161026, -0.18575335, -0.50645876, 0.09801388
535, 1002978713, -0.3713239, -0.10805531, 0.19316201, -0.901738, -0.14546195, -0.43069512, -0.056907654
536, 1002995380, -0.3713635, -0.10778998, 0.1928531, -0.9018196, -0.18194088, -0.3686431, -0.14728737
537, 1003012047, -0.3714078, -0.10728587, 0.19301635, -0.90182656, -0.30355993, -0.43744877, -0.074757576
538, 1003028714, -0.37139714, -0.10674275, 0.1936028, -0.90176964, -0.23893613, -0.40242255, -0.039728165
539, 1003045381, -0.37132213, -0.10635793, 0.19402249, -0.90175587, -0.121403635, -0.25371394, -0.060406685
540, 1003062048, -0.37129045, -0.10591346, 0.19437839, -0.90174454, -0.23905286, -0.123519935, -0.14938164
541, 1003078715, -0.37118834, -0.10542858, 0.19466187, -0.9017822, -0.26447684, -0.09162131, 0.021264076
542, 1003095382, -0.3709653, -0.10523309, 0.1947102, -0.9018864, -0.2907394, -0.14916034, 0.060077667
543, 1003112049, -0.37080407, -0.104913495, 0.1947502, -0.9019813, -0.31351155, -0.31118444, -0.010262489
544, 1003128716, -0.37086695, -0.10437548, 0.19497742, -0.90196866, -0.29662523, -0.2638606, -0.08032894
545, 1003145383, -0.37128794, -0.10354148, 0.19540799, -0.9017984, -0.23525415, -0.24371509, 0.02742672
546, 1003162050, -0.37201425, -0.1026953, 0.1959457, -0.9014791, -0.06384642, -0.1367043, 0.11173725
547, 1003178717, -0.372844, -0.10201826, 0.19651677, -0.90108883, 0.0032840758, 0.0029663243, 0.13502693
548, 1003195384, -0.3736716, -0.10146542, 0.19711627, -0.9006775, -0.033468943, 0.040988754, 0.15605927
549, 1003212051, -0.37447214, -0.10094861, 0.19774616, -0.900265, 0.047786232, 0.13920018, 0.13723373
550, 1003228718, -0.37525693, -0.10034162, 0.19843116, -0.8998551, 0.054767046, 0.14685304, 0.10403824
551, 1003245385, -0.37593326, -0.09971515, 0.1991285, -0.8994884, 0.15127765, 0.1213969, 0.12649727
552, 1003262052, -0.37651435, -0.099094965, 0.19983603, -0.89915687, 0.29710945, 0.14913441, 0.13754177
553, 1003278719, -0.3770178, -0.09850498, 0.2004436, -0.8988756, 0.38729665, 0.13281254, 0.20968342
554, 1003295386, -0.3774015, -0.097985685, 0.20103821, -0.8986385, 0.44280672, 0.21609879, 0.22655678
555, 1003312053, -0.37768018, -0.097635254, 0.20150484, -0.89845484, 0.39992726, 0.20014985, 0.14464378
556, 1003328720, -0.377793, -0.0974494, 0.20180249, -0.89836085, 0.34715635, 0.13826855, 0.078110695
557, 1003345387, -0.37776637, -0.097335294, 0.20203413, -0.89833236, 0.24183297, 0.1329875, 0.044101715
558, 1003362054, -0.3776218, -0.09724622, 0.20212339, -0.8983827, 0.17127658, 0.1580949, 0.07925892
559, 1003378721, -0.37746423, -0.097319014, 0.202109, -0.8984442, 0.17186609, 0.18845375, 0.10102558
560, 1003395388, -0.37724784, -0.0974127, 0.2019742, -0.8985552, 0.14792255, 0.06687267, 0.114788055
561, 1003412055, -0.37694535, -0.097569115, 0.20184885, -0.8986933, 0.15840453, -0.037147462, 0.13960552
562, 1003428722, -0.37662932, -0.09782045, 0.20167927, -0.89883655, 0.19148108, 0.03288183, 0.107863426
563, 1003445389, -0.37635872, -0.09804972, 0.20142029, -0.8989832, 0.025621345, -0.029088004, 0.01885128
564, 1003462056, -0.37614673, -0.09820715, 0.20111927, -0.8991221, -0.044888552, -0.08922855, -0.03929329
565, 1003478723, -0.37600875, -0.098319314, 0.20101538, -0.89919066, -0.08055418, 0.017242543, 0.04580021
566, 1003495390, -0.37588498, -0.09837704, 0.20084465, -0.89927435, -0.1144939, -0.15713723, 0.13337803
567, 1003512057, -0.3757447, -0.09843822, 0.2006983, -0.8993589, -0.1753348, -0.08240557, 0.12273598
568, 1003528724, -0.37559503, -0.09860697, 0.20048253, -0.899451, -0.11783983, -0.2669629, 0.03618622
569, 1003545391, -0.37547103, -0.09887742, 0.20035549, -0.89950144, -0.1501355, -0.2808515, -0.013498306
570, 1003562058, -0.3754181, -0.09901926, 0.2003505, -0.899509, -0.2879412, -0.24744359, 0.043022156
571, 1003578725, -0.3753981, -0.0990365, 0.20040134, -0.8995041, -0.28684548, -0.20025335, 0.06243229
572, 1003595392, -0.37545523, -0.09900945, 0.2005576, -0.89944845, -0.24870466, -0.123323806, -0.02448082
573, 1003612059, -0.37558645, -0.09894622, 0.20063357, -0.8993837, -0.18255292, -0.092062, -0.09103203
574, 1003628726, -0.37574375, -0.09886033, 0.20052892, -0.89935076, -0.16244665, -0.09375944, 0.1102705
575, 1003645393, -0.37591538, -0.098789714, 0.20049319, -0.8992948, -0.18797183, -0.09598901, 0.19782543
576, 1003662060, -0.37610012, -0.098634146, 0.20049694, -0.8992338, -0.13527133, -0.097786695, 0.03564167
577, 1003678727, -0.37633115, -0.09843508, 0.20051573, -0.8991546, -0.063206725, -0.16661265, -0.027911186
578, 1003695394, -0.3766128, -0.09825435, 0.2005652, -0.89904535, -0.037461776, -0.08183793, 0.07156944
579, 1003712061, -0.37689444, -0.09803845, 0.20067835, -0.8989257, -0.0063350834, 0.05928262, 0.1349144
580, 1003728728, -0.37710524, -0.09779963, 0.20082183, -0.89883125, -9.128269E-4, 0.001605326, 0.12133598
581, 1003745395, -0.37725762, -0.09759939, 0.20095123, -0.89876014, 0.0947377, 0.029591523, 0.015258789
582, 1003762062, -0.3774143, -0.09744064, 0.20100284, -0.8987002, 0.1241111, 0.0550335, 0.086247444
583, 1003778729, -0.3775503, -0.097396046, 0.2009372, -0.89866257, 0.19640732, 0.09120016, 0.12750244
584, 1003795396, -0.37765884, -0.097445436, 0.20071697, -0.8986608, 0.18675385, 0.042312875, 0.08994675
585, 1003812063, -0.3777222, -0.09749899, 0.20046243, -0.8986851, 0.14051527, 9.953311E-4, 0.022150993
586, 1003828730, -0.37776133, -0.09754108, 0.20020804, -0.8987208, 0.08712267, -0.0033410718, 0.08005524
587, 1003845397, -0.37779272, -0.09756083, 0.20002867, -0.8987454, 0.07479381, -0.034000035, 0.14116764
588, 1003862064, -0.37778968, -0.09762739, 0.19988808, -0.8987708, 0.15215276, -0.00635953, 0.114518166
589, 1003878731, -0.37782088, -0.097793125, 0.19964205, -0.89879435, 0.20555648, -0.003516585, 0.06019211
590, 1003895398, -0.37790745, -0.098070465, 0.19915806, -0.8988352, 0.17862658, -0.021842804, 0.025609016
591, 1003912065, -0.3779722, -0.098370984, 0.19853787, -0.89891213, 0.08437245, -0.0043846816, 0.1528511
592, 1003928732, -0.37793, -0.09861472, 0.19797595, -0.89902717, 0.040742278, 0.10876152, 0.22752476
593, 1003945399, -0.3776652, -0.098848894, 0.1974532, -0.89922774, 0.0760818, 0.31379303, 0.25101852
594, 1003962066, -0.37710726, -0.09912654, 0.19685134, -0.8995633, -0.02751316, 0.32921657, 0.20093822
595, 1003978733, -0.37624094, -0.09960088, 0.19614685, -0.9000272, -0.12036335, -0.02466541, 0.09262657
596, 1003995400, -0.37530154, -0.10020455, 0.1954197, -0.90051055, -0.15438046, -0.32059798, 0.03869152
597, 1004012067, -0.37449065, -0.10076185, 0.19489531, -0.90089947, -0.14936203, -0.417629, 0.07012081
598, 1004028734, -0.37383, -0.10134253, 0.1944807, -0.9011984, -0.01622039, -0.2863375, 0.03364086
599, 1004045401, -0.37331772, -0.10199009, 0.19398387, -0.90144473, -0.0011470126, -0.09327218, 0.0126543045
600, 1004062068, -0.37294993, -0.10273949, 0.19317672, -0.90168506, 0.047924977, 0.1951296, 0.12047291
601, 1004078735, -0.37263438, -0.10358706, 0.1920929, -0.9019501, 0.104825735, 0.28240314, 0.16896248
602, 1004095402, -0.37228045, -0.1045367, 0.19079044, -0.9022632, 0.226821, 0.23070972, 0.15022755
603, 1004112069, -0.3718611, -0.105556875, 0.18945134, -0.9025994, 0.16071726, 0.15815304, 0.09659195
604, 1004128736, -0.37140608, -0.10652842, 0.18831798, -0.9029097, -0.06372416, 0.060504258, 0.06562328
605, 1004145403, -0.37088957, -0.1074117, 0.18754248, -0.9031787, -0.21390319, -0.070346065, 0.016877174
606, 1004162070, -0.3703854, -0.10824612, 0.18712582, -0.90337235, -0.21578975, -0.22744994, -0.08041763
607, 1004178737, -0.370029, -0.10902933, 0.18703435, -0.9034432, -0.24981953, -0.22858804, -0.21263504
608, 1004195404, -0.36980247, -0.10974222, 0.18715677, -0.9034244, -0.23920284, -0.40214428, -0.27226543
609, 1004212071, -0.36993077, -0.110296205, 0.18766345, -0.9031992, -0.19636904, -0.80048996, -0.6410961
610, 1004228738, -0.3703692, -0.110857464, 0.18814902, -0.90284973, -0.05624307, -1.2207674, -0.720006
611, 1004245405, -0.37076294, -0.11220273, 0.1890825, -0.90232676, 0.018179817, -1.4960479, -0.60411453
612, 1004262072, -0.37114802, -0.11338038, 0.19109227, -0.9015975, 0.079209864, -1.2274604, -0.6956949
613, 1004278739, -0.37147492, -0.11461964, 0.19500852, -0.9004671, -0.3182109, -2.598766, -0.22226334
614, 1004295406, -0.37212732, -0.11620897, 0.2013066, -0.898606, 0.29099095, -2.8705368, -0.53280926
615, 1004312073, -0.37331313, -0.11883545, 0.20812505, -0.8962141, 0.7929886, -1.9487096, 0.27645493
616, 1004328740, -0.37502742, -0.12311635, 0.2144403, -0.89342743, 0.75466293, -0.11909399, -0.07101154
617, 1004345407, -0.3778763, -0.12799734, 0.21927585, -0.8903621, 2.431031, 0.4957324, 1.1361265
618, 1004362074, -0.38086537, -0.13340642, 0.2222044, -0.8875641, 2.5964715, 0.6359269, 0.99575233
619, 1004378741, -0.3833946, -0.13838026, 0.22546448, -0.8848873, 1.1206633, -0.09802261, -0.061644554
620, 1004395408, -0.3856948, -0.14280097, 0.23001824, -0.88200873, 1.5823461, 0.016549626, 0.3889389
621, 1004412075, -0.3879439, -0.14711916, 0.23430277, -0.8791803, 1.6342766, 0.76488626, 0.5499773
622, 1004428742, -0.38987595, -0.1523217, 0.23815377, -0.87640053, 0.87813044, 0.66674507, 0.4975567
623, 1004445409, -0.39168534, -0.15803528, 0.2417554, -0.8735915, 0.60211384, 0.59324443, 0.5147371
624, 1004462076, -0.39341012, -0.16429777, 0.24514125, -0.8707129, 0.23606388, 0.4301926, 0.44000435
625, 1004478743, -0.39530408, -0.17078906, 0.24849276, -0.8676507, -0.07111087, 0.5077908, 0.3498068
626, 1004495410, -0.3975156, -0.17747691, 0.25155377, -0.8644098, -0.57871383, 0.6138845, 0.5598345
627, 1004512077, -0.3998796, -0.18451282, 0.25473565, -0.8609073, -1.0331403, 0.4338183, 0.65405273
628, 1004528744, -0.40238985, -0.19159006, 0.25823462, -0.85714114, -1.543891, 0.54821503, 0.7228489
629, 1004545411, -0.4053504, -0.19878626, 0.26214838, -0.85290915, -1.7275076, 0.4777479, 0.6084728
630, 1004562078, -0.4087264, -0.20590878, 0.26635206, -0.848293, -1.7718714, 0.26547495, 0.72677994
631, 1004578745, -0.41224226, -0.21310116, 0.2706656, -0.8434362, -1.7110739, 0.24862877, 0.7221756
632, 1004595412, -0.415984, -0.22012599, 0.27521294, -0.83830774, -1.8586619, 0.18839806, 0.5505028
633, 1004612079, -0.41994223, -0.22717829, 0.27998358, -0.8328553, -1.081271, 0.4976545, 0.915411
634, 1004628746, -0.4241216, -0.23443018, 0.2847613, -0.82708794, -0.46831083, 1.2894936, 0.95914364
635, 1004645413, -0.42799556, -0.24217807, 0.28924945, -0.8212823, -0.024672702, 1.6399438, 0.8243389
636, 1004662080, -0.43150148, -0.2502816, 0.2933882, -0.8155301, -0.09436348, 1.6310685, 0.6593504
637, 1004678747, -0.4347852, -0.2585737, 0.29714558, -0.80981857, -0.39215147, 1.1210337, 0.63211155
638, 1004695414, -0.43781087, -0.2672378, 0.30077767, -0.8040139, -0.58589303, 0.7596068, 0.53219223
639, 1004712081, -0.44088823, -0.27574554, 0.3045087, -0.79803306, -0.34145528, 0.9732551, 0.5639
640, 1004728748, -0.44405732, -0.28422222, 0.3080957, -0.7919017, -0.014672396, 1.1147044, 0.6097727
641, 1004745415, -0.446933, -0.29306126, 0.31138766, -0.78575075, 0.23882449, 1.0969977, 0.5136194
642, 1004762082, -0.4492023, -0.3024654, 0.31437072, -0.77968174, 0.5148909, 1.1568234, 0.2942152
643, 1004778749, -0.45095378, -0.31222472, 0.31693897, -0.7737613, 0.6630126, 1.2185446, 0.13883495
644, 1004795416, -0.45237026, -0.3220517, 0.3191664, -0.7679695, 0.8913603, 1.323423, -0.07557297
645, 1004812083, -0.45330185, -0.33206025, 0.32115397, -0.7623082, 1.0932142, 1.1343013, -0.11466217
646, 1004828750, -0.4533668, -0.34245977, 0.32258272, -0.7570471, 1.2650326, 1.3210225, -0.08719158
647, 1004845417, -0.4523452, -0.35332116, 0.32334152, -0.75232863, 1.0617056, 1.2562476, -0.22351646
648, 1004862084, -0.4506173, -0.36433688, 0.3236197, -0.7479796, 0.87523943, 0.8779211, -0.4114256
649, 1004878751, -0.44868535, -0.37509203, 0.3237778, -0.74374443, 0.59037983, 0.8616334, -0.42565632
650, 1004895418, -0.44628814, -0.3858662, 0.32405978, -0.73954016, 0.33999628, 0.7579293, -0.419137
651, 1004912085, -0.44334245, -0.3964994, 0.324421, -0.73551816, -0.25830933, 0.77828664, -0.45131016
652, 1004928752, -0.4399118, -0.40723893, 0.3247092, -0.7315724, -0.49124405, 0.12904453, -0.41470337
653, 1004945419, -0.43630898, -0.41806284, 0.32487547, -0.7275398, -0.8187837, -0.2553573, -0.532712
654, 1004962086, -0.43332717, -0.42857787, 0.32529458, -0.7230024, -1.2981027, -0.4516629, -0.7408705
655, 1004978753, -0.43104994, -0.43838912, 0.32604894, -0.71812475, -1.7011955, -0.22679022, -0.75407505
656, 1004995420, -0.42953444, -0.44776425, 0.32727838, -0.71266854, -1.3844817, -0.26788163, -0.48527527
657, 1005012087, -0.4283271, -0.45713216, 0.32923838, -0.70651865, -1.6037443, -0.23426862, -0.58018875
658, 1005028754, -0.4269438, -0.46671447, 0.33088675, -0.7002936, -0.9518082, -0.15101273, -0.3894167
659, 1005045421, -0.42543617, -0.47614715, 0.33183306, -0.69438845, -0.2781004, 0.267313, -0.56248
660, 1005062088, -0.4232269, -0.48575503, 0.33185026, -0.68905497, -0.20156756, -0.057703, -0.5858145
661, 1005078755, -0.42032927, -0.49578404, 0.33180842, -0.6836848, -0.21649107, 0.22822773, -0.6048689
662, 1005095422, -0.41722456, -0.50558543, 0.3323802, -0.6781082, -0.21845274, 0.22919086, -0.58674526
663, 1005112089, -0.41357097, -0.51551586, 0.33280557, -0.6726391, -0.16224794, -0.2583776, -0.389019
664, 1005128756, -0.40951708, -0.5248841, 0.33184, -0.6683374, -0.37277558, -0.3385124, -0.29154778
665, 1005145423, -0.4056218, -0.5337544, 0.33014882, -0.66451436, -0.8898081, -0.833915, -0.37503147
666, 1005162090, -0.40259412, -0.5415621, 0.3292773, -0.6604585, -1.0746747, -1.268538, -0.35086155
667, 1005178757, -0.4002169, -0.5488125, 0.32956913, -0.6557558, -1.1733019, -1.3548466, -0.28431034
668, 1005195424, -0.39906257, -0.55540496, 0.33074406, -0.6502946, -0.42959, -1.3190517, 0.13671112
669, 1005212091, -0.39900106, -0.56102705, 0.33238953, -0.6446427, 0.0623172, -1.2457032, 0.21190071
670, 1005228758, -0.39988637, -0.56562155, 0.33448887, -0.63896847, 0.24114779, -1.0007136, 0.03161621
671, 1005245425, -0.40104148, -0.56948507, 0.33684987, -0.6335495, 0.37588876, -0.91365635, 0.031826973
672, 1005262092, -0.40146992, -0.57375973, 0.3387539, -0.6283848, 0.36159045, -1.0760682, -0.058838844
673, 1005278759, -0.40241566, -0.57767385, 0.3407041, -0.6231177, 0.43199968, -0.73451656, 0.3216095
674, 1005295426, -0.40406683, -0.5804867, 0.34256914, -0.6183946, 0.6624059, -0.15187527, 0.288826
675, 1005312093, -0.40504694, -0.5831008, 0.34390458, -0.614541, 1.1362997, -0.42349356, -0.0059080124
676, 1005328760, -0.40514386, -0.585786, 0.34459302, -0.61153024, 1.0713224, -0.7810048, 0.1264553
677, 1005345427, -0.40510514, -0.5880734, 0.3445752, -0.6093668, 0.74936193, -0.95548546, 0.25700188
678, 1005362094, -0.4045284, -0.5904362, 0.34427345, -0.6076332, 0.9437376, -1.2451274, 0.20912647
679, 1005378761, -0.40384048, -0.5925277, 0.3437084, -0.60637337, 0.85751784, -1.0776246, 0.33507442
680, 1005395428, -0.40317294, -0.59414583, 0.34296316, -0.60565597, 0.499572, -0.8198842, 0.32274723
681, 1005412095, -0.40268952, -0.5953485, 0.34245098, -0.605086, 0.25931516, -0.7181077, 0.1509943
682, 1005428762, -0.4028364, -0.5959552, 0.34244314, -0.60439503, -0.34061116, -0.3928734, 0.29336166
683, 1005445429, -0.40336585, -0.5962059, 0.34277686, -0.6036049, -0.28783494, -0.15079369, 0.25525475
684, 1005462096, -0.40390107, -0.59635204, 0.34337157, -0.60276383, -0.20881563, 0.16181466, 0.049128532
685, 1005478763, -0.4040074, -0.5967397, 0.3435363, -0.602215, -0.09472401, 0.17639464, -0.06790161
686, 1005495430, -0.4043782, -0.5970583, 0.34392715, -0.60142684, -0.12883388, -0.0077925557, 0.100209236
687, 1005512097, -0.40533093, -0.5970902, 0.344504, -0.6004229, -0.07828664, 0.107887916, 0.25808334
688, 1005528764, -0.4065141, -0.59689707, 0.3451861, -0.59942216, 0.30710223, 0.16762622, 0.05829048
689, 1005545431, -0.4071162, -0.5971084, 0.34565338, -0.59853333, 0.1945745, 0.15334107, -0.08181858
690, 1005562098, -0.406826, -0.5978741, 0.34543622, -0.5980915, -0.13349502, -0.06535228, 0.19990635
691, 1005578765, -0.40622494, -0.5985473, 0.34487742, -0.59814924, -0.07490545, 0.19697794, 0.23023415
692, 1005595432, -0.40525636, -0.5992368, 0.34417382, -0.59852093, -0.26479155, 0.0775011, 0.066114426
693, 1005612099, -0.40475753, -0.5996273, 0.34371513, -0.598731, -0.29841024, 0.0434726, 0.07895851
694, 1005628766, -0.40476927, -0.59978145, 0.34358758, -0.5986419, -0.12214391, 0.043561336, 0.1706028
695, 1005645433, -0.4050514, -0.599898, 0.34373412, -0.59825003, -0.035128973, 0.20188764, 0.097587585
696, 1005662100, -0.40531975, -0.60004187, 0.3441139, -0.5977053, -0.2722285, 0.07324989, 0.067881584
697, 1005678767, -0.40571532, -0.60013205, 0.3444587, -0.5971477, -0.46049625, -0.083903186, 0.10512161
698, 1005695434, -0.4064993, -0.6000127, 0.34473708, -0.59657335, -0.04255206, -0.045630615, 0.1875267
699, 1005712101, -0.40728408, -0.59980756, 0.34511453, -0.59602594, 0.27483076, 0.21782053, 0.11666584
700, 1005728768, -0.4078179, -0.5996491, 0.34569553, -0.5954835, 0.0043924768, -0.0766046, 0.026582718
701, 1005745435, -0.4082076, -0.59963375, 0.3460983, -0.5949979, -0.09530369, 0.10454662, 0.12585068
702, 1005762102, -0.4084311, -0.59957236, 0.34603924, -0.5949406, 0.19092566, 0.19807898, 0.15947342
703, 1005778769, -0.40811986, -0.59973115, 0.34579217, -0.5951378, 0.03144749, 0.11162885, 0.10708809
704, 1005795436, -0.40762395, -0.60000646, 0.34536555, -0.59544754, -0.27379364, -0.0035764307, 0.12940407
705, 1005812103, -0.40745306, -0.6001282, 0.34503484, -0.59563375, -0.28574052, 0.08517207, 0.07466316
706, 1005828770, -0.40748292, -0.60021967, 0.34485403, -0.5956258, -0.09195312, 0.05601123, 0.038282394
707, 1005845437, -0.40792856, -0.60019696, 0.3449615, -0.5952811, 0.05598899, 0.1394551, 0.07791901
708, 1005862104, -0.40821335, -0.60022837, 0.34521925, -0.59490484, -0.08193437, -0.0814099, 0.12103462
709, 1005878771, -0.40824544, -0.6003821, 0.3453601, -0.594646, 0.018456694, -0.12570883, 0.12684631
710, 1005895438, -0.40820858, -0.6004536, 0.34544188, -0.5945517, 0.06307167, -0.038437076, 0.11102581
711, 1005912105, -0.4081208, -0.60050505, 0.34551665, -0.5945164, -0.11442265, -0.032180503, 0.12512493
712, 1005928772, -0.4081642, -0.6004484, 0.3455128, -0.5945461, -0.18073057, -0.06720744, 0.113925934
713, 1005945439, -0.40821886, -0.60039485, 0.3453777, -0.5946412, 0.104509294, 0.09739242, 0.14333725
714, 1005962106, -0.40825704, -0.6002258, 0.34518936, -0.5948947, 0.09067362, 0.21946871, 0.029082298
715, 1005978773, -0.40808365, -0.60021806, 0.3448785, -0.5952017, -0.23028193, 0.07275794, 0.034952164
716, 1005995440, -0.40779555, -0.60035926, 0.3444606, -0.59549886, -0.14493977, -0.10570643, 0.109889984
717, 1006012107, -0.40781656, -0.6003751, 0.3443041, -0.5955589, 0.13023497, 0.004737804, 0.18792152
718, 1006028774, -0.4081005, -0.60012627, 0.3443373, -0.59559596, -0.09469361, 0.10064095, 0.08588791
719, 1006045441, -0.407914, -0.60006315, 0.34413174, -0.595906, -0.2495588, -0.07193496, 0.027054787
720, 1006062108, -0.40764567, -0.6000894, 0.34381348, -0.59624696, -0.05370558, -0.13477898, 0.14068508
721, 1006078775, -0.40727186, -0.6001636, 0.3433858, -0.5966741, 0.2674926, -0.13552417, 0.119190216
722, 1006095442, -0.40673545, -0.6003492, 0.34278926, -0.59719604, 0.36922944, -0.059889402, 0.14843273
723, 1006112109, -0.4063362, -0.60009116, 0.34241495, -0.59794134, -0.081601225, 0.013255212, 0.18017101
724, 1006128776, -0.40579522, -0.5998455, 0.34192958, -0.5988325, -0.31371775, -0.30242777, 0.10007095
725, 1006145443, -0.40542018, -0.5994032, 0.34153214, -0.5997553, -0.111693226, -0.32091567, 0.14259529
726, 1006162110, -0.40511087, -0.5987645, 0.3408444, -0.60099226, 0.1707915, -0.432249, 0.19452953
727, 1006178777, -0.40481266, -0.597723, 0.33968887, -0.602881, 0.4194755, -0.69230324, 0.3520279
728, 1006195444, -0.40460455, -0.5959921, 0.33853018, -0.6053812, 0.735707, -1.0515442, 0.42900944
729, 1006212111, -0.40435404, -0.5936867, 0.33804792, -0.60807717, 0.24373116, -0.99164754, 0.38029957
730, 1006228778, -0.40385792, -0.59096104, 0.3373409, -0.6114452, -0.31305394, -1.3311992, 0.18579006
731, 1006245445, -0.40376845, -0.5875885, 0.33660308, -0.61515003, -0.20788358, -1.5048342, 0.2605877
732, 1006262112, -0.40443474, -0.5830452, 0.33646604, -0.61909765, 0.4039952, -1.188718, 0.22552109
733, 1006278779, -0.40470326, -0.57758373, 0.33590907, -0.6243219, 1.3234571, -1.3091902, 0.11177158
734, 1006295446, -0.40394273, -0.57119495, 0.3347808, -0.6312595, 1.193829, -1.650249, 0.26804924
735, 1006312113, -0.403574, -0.5645923, 0.3353742, -0.63709325, -0.34917262, -0.74223983, 0.0786953
736, 1006328780, -0.40517986, -0.5575722, 0.33819622, -0.64075434, -2.6956623, -0.6320891, -0.16933918
737, 1006345447, -0.40877974, -0.5500054, 0.34324262, -0.64232224, -3.5083354, -0.09001627, -0.37777615
738, 1006362114, -0.41305628, -0.54169714, 0.34861344, -0.6437529, -2.2207706, 0.802623, -0.14711952
739, 1006378781, -0.41585606, -0.5335665, 0.35107496, -0.6473928, -0.16832201, 0.65155905, 0.2992344
740, 1006395448, -0.41662902, -0.52602875, 0.35157794, -0.6527688, 0.4198636, -0.29174855, 0.18867016
741, 1006412115, -0.41700074, -0.5182782, 0.3525599, -0.6581794, -1.4115336, -0.42542228, -0.3880024
742, 1006428782, -0.418491, -0.5096462, 0.35415077, -0.66310155, -1.7292287, -0.16123465, -0.46660137
743, 1006445449, -0.4209581, -0.5000519, 0.35569876, -0.66799796, -0.79339343, -0.38123062, -0.042518616
744, 1006462116, -0.42245495, -0.4911069, 0.35569766, -0.67366576, -0.19444565, -0.17295879, 0.07834911
745, 1006478783, -0.42337826, -0.48208284, 0.35471615, -0.68009114, 0.0071744304, 0.5463869, -0.20141697
746, 1006495450, -0.4243734, -0.47275415, 0.3544994, -0.68610597, -1.2119794, 0.48018762, -0.8625212
747, 1006512117, -0.4259781, -0.46296388, 0.35562903, -0.6911843, -1.6636596, 0.4766463, -0.8629675
748, 1006528784, -0.42831075, -0.45305306, 0.3571795, -0.6954968, 0.2416128, -0.046285287, 0.014586449
749, 1006545451, -0.42933613, -0.44398826, 0.35664263, -0.7009647, 1.4112179, 0.14339104, 0.3211317
750, 1006562118, -0.43005547, -0.4348726, 0.35477668, -0.7071577, 0.6968477, 0.9639382, -0.20138264
751, 1006578785, -0.43082893, -0.42606458, 0.35406289, -0.712387, -0.4492683, -0.13201256, -0.8893986
752, 1006595452, -0.43248585, -0.41684937, 0.35543427, -0.71614206, -0.3096849, 0.35259137, -1.0143147
753, 1006612119, -0.43383896, -0.4074245, 0.3574071, -0.71975654, 1.2207278, 1.2707254, 0.10019112
754, 1006628786, -0.4339347, -0.3983652, 0.35768068, -0.7246175, 2.6779969, 2.1222296, 0.43993282
755, 1006645453, -0.43262812, -0.38955814, 0.35534906, -0.7313035, 1.8285197, 2.3192499, 0.14005947
756, 1006662120, -0.43133643, -0.3809364, 0.3519047, -0.7382409, 0.48896587, 1.0361882, -0.3449049
757, 1006678787, -0.42938325, -0.37319311, 0.34862232, -0.74486214, 0.0050253537, 0.118672304, -0.094062805
758, 1006695454, -0.42723754, -0.3659019, 0.3455961, -0.7510975, -0.69647074, -0.16919126, 0.40286732
759, 1006712121, -0.42515576, -0.35908893, 0.34194925, -0.7572111, -1.1549984, 0.2611589, 0.31808567
760, 1006728788, -0.42332327, -0.35168228, 0.3379709, -0.76347435, -2.0623991, -0.088563435, -0.16305733
761, 1006745455, -0.42290407, -0.34275377, 0.33415186, -0.7694251, -2.3946342, -0.6036209, -0.6834173
762, 1006762122, -0.42391536, -0.33255032, 0.3316538, -0.7744109, -2.530302, -1.8838823, -0.7547159
763, 1006778789, -0.4257002, -0.32233605, 0.3307519, -0.7781276, -2.5586789, -1.6510199, -0.63351727
764, 1006795456, -0.4284312, -0.3117001, 0.33098987, -0.7808557, -1.692874, -0.9990823, -0.6742916
765, 1006812123, -0.43164602, -0.30047867, 0.33170584, -0.7831767, -0.851613, 0.17459647, -0.91416645
766, 1006828790, -0.4344411, -0.2890041, 0.33194247, -0.7858449, 0.671362, 0.6556453, -0.049957275
767, 1006845457, -0.4360558, -0.27852836, 0.33120364, -0.7890386, 1.4824522, 1.3181738, 0.50631046
768, 1006862124, -0.4361087, -0.26931503, 0.3288756, -0.7931707, 1.5462475, 1.4042493, 0.3201847
769, 1006878791, -0.4355152, -0.26076525, 0.32574752, -0.79763216, 1.0855123, 0.15823041, -0.121920586
770, 1006895458, -0.4350074, -0.2524275, 0.32282764, -0.8017679, 0.8975395, -0.49754828, -0.27415562
771, 1006912125, -0.43522492, -0.2436948, 0.320443, -0.8053004, 1.093458, 0.016368972, -0.39100647
772, 1006928792, -0.43564844, -0.23446642, 0.31807715, -0.8087419, 1.3647312, 1.0721751, -0.31431675
773, 1006945459, -0.4356414, -0.22567801, 0.315378, -0.8122949, 2.053933, 1.3605068, 0.7580738
774, 1006962126, -0.43418697, -0.21805441, 0.3116314, -0.81659055, 1.7403961, 1.5110664, 1.3200264
775, 1006978793, -0.43155453, -0.2110529, 0.30728343, -0.8214588, 0.9822885, 0.90992403, 0.64077187
776, 1006995460, -0.42880616, -0.20404659, 0.3030399, -0.82623094, 0.8440752, 0.8662486, 0.1388731
777, 1007012127, -0.42655692, -0.19671948, 0.2988228, -0.830696, 1.6720232, 1.1582615, 0.34157658
778, 1007028794, -0.42449537, -0.18955669, 0.2943793, -0.8349929, 1.4839774, 0.91103005, 0.9513807
779, 1007045461, -0.4217568, -0.18292591, 0.2897961, -0.8394509, 0.25427952, 0.47090665, 0.7208929
780, 1007062128, -0.41853607, -0.17657456, 0.28576207, -0.8437947, 0.23015666, 0.4596457, 0.49280453
781, 1007078795, -0.41489834, -0.17039166, 0.2817046, -0.8482151, 0.373271, 0.61795104, 0.53448105
782, 1007095462, -0.41098595, -0.16448763, 0.2768424, -0.85287344, 1.3901565, 1.5683377, 0.76712704
783, 1007112129, -0.4072664, -0.15912898, 0.27161562, -0.85734326, 1.5005119, 1.5203319, 1.241971
784, 1007128796, -0.4029671, -0.15437056, 0.26690027, -0.86171454, 0.5619299, 1.3115131, 1.052247
785, 1007145463, -0.39824325, -0.15001412, 0.26304376, -0.8658559, -0.25453085, 0.236644, 0.5293474
786, 1007162130, -0.39317083, -0.14595203, 0.25989175, -0.8698112, -0.6186479, -0.29931524, 0.68367577
787, 1007178797, -0.38865852, -0.14227688, 0.25668627, -0.8733926, -0.77053565, -0.07443116, 1.1604509
788, 1007195464, -0.38497734, -0.1390663, 0.25342262, -0.87648743, -1.0528446, -0.22900237, 0.94372463
789, 1007212131, -0.3819469, -0.13607617, 0.25051284, -0.8791151, -1.189022, 0.13727802, -0.009551048
790, 1007228798, -0.3794861, -0.13340586, 0.24815413, -0.88125646, -0.81037664, -0.21667983, -0.16681099
791, 1007245465, -0.3775546, -0.13087025, 0.24585828, -0.88310796, -0.5870786, -0.5319049, -0.06578064
792, 1007262132, -0.3762786, -0.1282025, 0.243369, -0.88473177, -0.36504382, -0.5764881, -0.04109001
793, 1007278799, -0.37558272, -0.1260038, 0.24113548, -0.8859541, -0.59292644, -1.060112, -0.13930511
794, 1007295466, -0.375026, -0.124043465, 0.23952766, -0.88690215, -0.53145844, -1.0234224, -0.51043606
795, 1007312133, -0.37474793, -0.12204089, 0.23838916, -0.8876042, -0.4421193, -1.061105, -0.34452724
796, 1007328800, -0.3747162, -0.12007522, 0.23763746, -0.888087, -0.48912334, -0.9307296, -0.0708437
797, 1007345467, -0.37472722, -0.118283734, 0.23707926, -0.88847184, -0.055512015, -0.64206755, -0.010034561
798, 1007362134, -0.37490815, -0.11669299, 0.23638286, -0.88879144, 0.28811356, -0.37517253, 0.039996147
799, 1007378801, -0.375102, -0.1152069, 0.23559321, -0.88911307, 0.23558427, -0.21003357, 0.03387928
800, 1007395468, -0.37528604, -0.11364373, 0.23483832, -0.8894363, 0.33345926, 0.034252997, -0.013601303
801, 1007412135, -0.37539616, -0.112120196, 0.23423769, -0.8897415, 0.18087222, -0.045332003, -0.13359737
802, 1007428802, -0.3754855, -0.11051425, 0.23377566, -0.8900262, 0.16379979, -0.06680679, -0.07414818
803, 1007445469, -0.37568003, -0.10891899, 0.23321967, -0.89028645, 0.2718942, 0.087622024, 0.099829674
804, 1007462136, -0.37591398, -0.107360296, 0.23244956, -0.89057845, 0.3722059, 0.16260883, 0.20814896
805, 1007478803, -0.37614956, -0.10594296, 0.23141126, -0.8909191, 0.53059363, 0.30814257, 0.076994896
806, 1007495470, -0.37631667, -0.10460246, 0.23002543, -0.89136577, 0.4836137, 0.22488633, -0.022902489
807, 1007512137, -0.37635976, -0.103324935, 0.22859813, -0.89186347, 0.31719932, -0.07723487, 0.007583618
808, 1007528804, -0.37616774, -0.10215511, 0.22711587, -0.8924578, 0.2899485, 0.015682004, -0.008495331
809, 1007545471, -0.3758763, -0.100972995, 0.22539105, -0.8931521, 0.21195745, -0.060292006, 0.074700356
810, 1007562138, -0.37559387, -0.09999982, 0.22360851, -0.8938282, 0.101524055, -0.1447048, -0.025512695
811, 1007578805, -0.37549275, -0.09911991, 0.2217134, -0.8944407, -0.028777685, -0.29515192, -0.022353172
812, 1007595472, -0.37546948, -0.09832111, 0.22001366, -0.8949579, -0.18272726, -0.36958298, -0.04242134
813, 1007612139, -0.3754074, -0.09760269, 0.21847609, -0.8954393, -0.1517934, -0.22070208, 0.020832062
814, 1007628806, -0.37535053, -0.09697056, 0.21706077, -0.8958761, -0.19034642, -0.16916424, 0.2336855
815, 1007645473, -0.3753087, -0.096462876, 0.21578659, -0.896256, -0.2259454, -0.12269948, 0.20858192
816, 1007662140, -0.37528166, -0.09600647, 0.21453609, -0.8966166, -0.18365143, -0.062419876, 0.16345501
817, 1007678807, -0.3752681, -0.09575447, 0.21335134, -0.8969317, -0.11135963, 0.073981926, 0.108454704
818, 1007695474, -0.3751484, -0.09577823, 0.21224934, -0.89724064, -0.20043144, -0.092815235, 0.10547829
819, 1007712141, -0.37493095, -0.095843635, 0.21160333, -0.89747727, -0.17467219, -0.22517785, 0.10013771
820, 1007728808, -0.37473375, -0.095711336, 0.211534, -0.8975899, -0.19725828, -0.16561866, 0.16141129
821, 1007745475, -0.374525, -0.09544165, 0.21173488, -0.89765835, -0.06979242, -0.062092543, 0.0895319
822, 1007762142, -0.37441617, -0.09512561, 0.2118743, -0.8977044, -0.03415507, -0.013826065, 0.057994843
823, 1007778809, -0.37440988, -0.0948146, 0.21204159, -0.8977004, -0.10742184, -0.07809867, 0.12278652
824, 1007795476, -0.37449205, -0.09452561, 0.21209711, -0.8976835, -0.11845332, -0.11095655, 0.050341606
825, 1007812143, -0.374646, -0.09424948, 0.2120149, -0.8976678, -0.14926805, -0.110580154, -0.006781578
826, 1007828810, -0.37492648, -0.09406197, 0.21201341, -0.8975706, -0.09856927, -0.20661633, -0.048051834
827, 1007845477, -0.37532392, -0.09390734, 0.21200645, -0.8974224, -0.103001475, -0.24083996, -0.05304718
828, 1007862144, -0.37577125, -0.09366853, 0.21203272, -0.89725393, -0.075943, -0.116472095, 0.038591385
829, 1007878811, -0.37623915, -0.0934138, 0.21214424, -0.89705807, 0.04758736, -0.06744987, 0.08244038
830, 1007895478, -0.37671164, -0.0931208, 0.21236975, -0.8968368, 0.085669555, -0.07258357, 0.10823536
831, 1007912145, -0.3771457, -0.09271263, 0.21272346, -0.89661276, 0.103686824, 0.02998689, 0.04781151
832, 1007928812, -0.37749565, -0.092285946, 0.2130536, -0.8964311, 0.21082172, 0.11597601, 0.062174797
833, 1007945479, -0.37782538, -0.09189727, 0.21331671, -0.89626956, 0.23000282, 0.20593177, 0.11004257
834, 1007962146, -0.37802345, -0.091761746, 0.21325442, -0.8962147, 0.23698598, 0.14555107, 0.13206863
835, 1007978813, -0.3781339, -0.091748275, 0.21330607, -0.8961572, 0.06402791, 0.12885335, 0.18748665
836, 1007995480, -0.3781358, -0.091616444, 0.21358867, -0.89610267, -0.017112767, 0.08720221, 0.15718842
837, 1008012147, -0.37807375, -0.09140219, 0.21379344, -0.89610195, -6.340504E-4, 0.0970479, 0.09909916
838, 1008028814, -0.37801352, -0.09113707, 0.21400207, -0.8961046, -0.013644405, 0.14999877, 0.012148857
839, 1008045481, -0.3779722, -0.09082511, 0.21415643, -0.89611673, -0.05475844, 0.04671136, 0.13516617
840, 1008062148, -0.37791416, -0.09058282, 0.21428436, -0.8961351, -0.056778606, 0.03441415, 0.17132092
841, 1008078815, -0.37783653, -0.09046436, 0.21434538, -0.89616525, -0.017610585, -0.0044015567, 0.056383133
842, 1008095482, -0.37778452, -0.09044858, 0.21433051, -0.89619225, -0.038494576, -0.12505245, 0.0050210953
843, 1008112149, -0.3777778, -0.090453014, 0.21431872, -0.8961975, -0.10146315, -0.106995516, 0.0626421
844, 1008128816, -0.37782255, -0.09032244, 0.21440536, -0.8961711, -0.11184136, -0.053476788, 0.116057396
845, 1008145483, -0.37786517, -0.090140566, 0.21453172, -0.89614123, -0.020482, -0.11462415, 0.005662918
846, 1008162150, -0.37797073, -0.08993563, 0.2146151, -0.8960974, 0.04516314, -0.08906941, -0.041417122
847, 1008178817, -0.37813696, -0.08973613, 0.21467903, -0.8960319, 0.0011633291, -0.19344616, 0.035700798
848, 1008195484, -0.37829047, -0.08965369, 0.21475944, -0.8959561, 0.07059154, -0.15277675, 0.045654297
849, 1008212151, -0.37843463, -0.089629926, 0.21471888, -0.89590734, 0.08905393, -0.11801828, 0.03238964
850, 1008228818, -0.37860698, -0.089658394, 0.21463148, -0.8958525, 0.040514965, -0.09895533, 0.058475494
851, 1008245485, -0.37880802, -0.08968165, 0.21453075, -0.8957893, 0.019952722, -0.033144567, -0.02501297
852, 1008262152, -0.3790271, -0.08965504, 0.21452117, -0.89570165, 0.012121722, -0.12518838, -0.082761765
853, 1008278819, -0.37923598, -0.089531794, 0.2145886, -0.8956094, -0.0021185675, -0.13387239, -0.013654709
854, 1008295486, -0.37940934, -0.089430794, 0.21469778, -0.89551985, 0.026859496, -0.085875995, 0.15339088
855, 1008312153, -0.37959647, -0.08940074, 0.2147575, -0.8954292, -0.102608204, 0.08787655, 0.12679672
856, 1008328820, -0.37982288, -0.08944824, 0.21476544, -0.8953266, -0.11416818, 0.115924686, 0.057958603
857, 1008345487, -0.38010973, -0.08962726, 0.21449713, -0.89525133, -0.045946218, 0.12902771, 0.21729088
858, 1008362154, -0.38035592, -0.08993115, 0.21400069, -0.89523494, -0.07651441, 0.07412746, 0.29283142
859, 1008378821, -0.38048396, -0.0902434, 0.21359196, -0.89524674, -0.10226852, 0.05338702, 0.18356133
860, 1008395488, -0.3804882, -0.0903796, 0.21365014, -0.8952173, -0.19141465, -0.012048075, -0.0061569214
861, 1008412155, -0.3803681, -0.090381026, 0.21412325, -0.89515513, -0.07307231, -0.044976756, -0.0015077591
862, 1008428822, -0.38017055, -0.09045716, 0.21472314, -0.8950878, 0.25285244, 0.060707796, 0.1489706
863, 1008445489, -0.3799211, -0.090690404, 0.21490227, -0.8951272, 0.40732136, 0.22484744, 0.27524853
864, 1008462156, -0.37967056, -0.091230266, 0.2142544, -0.89533395, 0.40221313, 0.35001603, 0.29345226
865, 1008478823, -0.37940896, -0.09198067, 0.21306154, -0.8956526, 0.06751483, 0.16491425, 0.12146473
866, 1008495490, -0.37899667, -0.09262904, 0.21212342, -0.8959829, 0.024052452, 0.062062953, 0.17379093
867, 1008512157, -0.37831077, -0.093454234, 0.21107729, -0.89643407, 0.24070077, 0.13317318, 0.24093437
868, 1008528824, -0.37743053, -0.094563484, 0.20975919, -0.89699787, 0.009234326, 0.12581399, 0.16756344
869, 1008545491, -0.37660462, -0.09579737, 0.2085447, -0.89749706, -0.08483636, -0.4293262, -0.0978508
870, 1008562158, -0.37608328, -0.09684291, 0.20759533, -0.8978237, -0.13317315, -0.61605465, -0.31448555
871, 1008578825, -0.3760185, -0.09749945, 0.20709899, -0.8978945, -0.32973832, -0.4598486, -0.4236889
872, 1008595492, -0.3763001, -0.09760389, 0.2073447, -0.89770836, -0.28865692, -0.2987198, -0.44897175
873, 1008612159, -0.37642807, -0.09767806, 0.2080271, -0.8974886, 0.009612957, -0.18741709, -0.5359173
874, 1008628826, -0.37598333, -0.098859034, 0.20753272, -0.89766026, 0.94729686, -0.07239792, -0.044843674
875, 1008645493, -0.37552184, -0.100397386, 0.20783526, -0.8976127, 0.61237925, -1.034571, 0.27807903
876, 1008662160, -0.37536734, -0.1018169, 0.21144424, -0.8966742, -0.43507233, -1.6811894, -0.11991787
877, 1008678827, -0.37538347, -0.10334641, 0.21758138, -0.89502263, -0.38922787, -1.8289528, -0.15202713
878, 1008695494, -0.37585753, -0.105124526, 0.22358014, -0.89313614, -0.31270614, -0.6250255, -0.15438557
879, 1008712161, -0.3769828, -0.108418, 0.2287148, -0.8909654, 0.45343912, -0.08903122, 0.45117855
880, 1008728828, -0.37854016, -0.11288902, 0.23173568, -0.88896704, 1.4763259, 0.6165369, 1.269762
881, 1008745495, -0.38053003, -0.117530845, 0.23370153, -0.8869991, 1.2752211, 0.03854193, 0.7145386
882, 1008762162, -0.3824891, -0.12194111, 0.23604064, -0.8849393, 0.4488472, -0.7156663, -0.19510365
883, 1008778829, -0.38446987, -0.12644632, 0.23935112, -0.8825563, 0.85932195, -0.14237691, 0.36166477
884, 1008795496, -0.38627866, -0.13142614, 0.24262574, -0.8801416, 0.9553001, 0.16872942, 0.6032162
885, 1008812163, -0.38803497, -0.1367825, 0.24573521, -0.8776868, 0.8134638, -0.098686084, 0.08259487
886, 1008828830, -0.38989022, -0.14228623, 0.24868467, -0.87515515, 1.1013864, -0.18126386, 4.4822693E-5
887, 1008845497, -0.39190042, -0.14784826, 0.25138286, -0.87256074, 1.1675165, -0.17891358, 0.12819481
888, 1008862164, -0.39392874, -0.15362376, 0.2539471, -0.869903, 0.81596464, -0.28904614, 0.119992256
889, 1008878831, -0.39612105, -0.15973696, 0.2566915, -0.866996, 0.6580411, -0.2486607, -0.038528442
890, 1008895498, -0.39838642, -0.16619469, 0.2599873, -0.8637562, 0.4171333, -0.1787492, 0.03903866
891, 1008912165, -0.40066543, -0.17267507, 0.2635013, -0.86035943, 0.36386758, 0.34294745, 0.40701103
892, 1008928832, -0.40294662, -0.17939325, 0.26693165, -0.8568547, -0.028789474, 0.59377897, 0.2122612
893, 1008945499, -0.4053191, -0.1861523, 0.2705092, -0.85316414, -0.3670759, 0.19575348, 0.2321291
894, 1008962166, -0.40780059, -0.1929669, 0.27401966, -0.84933853, -0.30948263, 0.2492717, 0.49338436
895, 1008978833, -0.41026866, -0.20006315, 0.27744156, -0.8453879, -0.66500974, -0.014943406, 0.55295944
896, 1008995500, -0.41281754, -0.20734556, 0.28119257, -0.8411424, -0.69188225, 0.119263105, 0.52133083
897, 1009012167, -0.41544658, -0.21482891, 0.28516075, -0.83662194, -0.41969073, 0.5969816, 0.618803
898, 1009028834, -0.41795164, -0.22244525, 0.28911537, -0.83201396, -0.63015497, 0.75946856, 0.5683613
899, 1009045501, -0.42040992, -0.23033415, 0.29326, -0.8271643, -0.5743821, 0.7926958, 0.5944109
900, 1009062168, -0.42282212, -0.23846994, 0.29744416, -0.82211965, -0.47406808, 1.0624983, 0.5868492
901, 1009078835, -0.42513365, -0.24673468, 0.30147144, -0.8170058, -0.6575664, 1.0591933, 0.61272526
902, 1009095502, -0.42732316, -0.25520092, 0.30524322, -0.8118462, -0.53185904, 1.1734601, 0.73188496
903, 1009112169, -0.42926228, -0.26399502, 0.3087158, -0.80668175, -0.35896203, 1.1184329, 0.8756504
904, 1009128836, -0.4308427, -0.27341768, 0.3116911, -0.80154, -0.34511697, 1.2743016, 0.7916622
905, 1009145503, -0.4323067, -0.28287506, 0.31416458, -0.7964884, -0.689861, 1.1344798, 0.5571432
906, 1009162170, -0.43364143, -0.29253355, 0.31651223, -0.7913277, -0.7503081, 0.89346087, 0.3154049
907, 1009178837, -0.4348749, -0.30232167, 0.31869254, -0.7860792, -0.6533051, 0.7479918, 0.24668026
908, 1009195504, -0.43612424, -0.3122449, 0.3207961, -0.78063375, -0.41765407, 0.73720807, 0.05845642
909, 1009212171, -0.437387, -0.32206157, 0.32305816, -0.7749856, -0.38019297, 0.73313725, -0.013473511
910, 1009228838, -0.43868083, -0.33179253, 0.32554406, -0.76908666, 0.03785706, 0.9203868, -0.034692764
911, 1009245505, -0.43971732, -0.34160304, 0.32773677, -0.7632465, 0.43765333, 1.2918001, 0.05500412
912, 1009262172, -0.44026494, -0.35160577, 0.32956308, -0.75758094, 0.7370369, 1.5428902, 0.057209015
913, 1009278839, -0.44024366, -0.361568, 0.33114755, -0.752194, 1.1198066, 1.7713012, 0.029497147
914, 1009295506, -0.43937707, -0.37166524, 0.33240235, -0.7472094, 1.022894, 1.7917219, 0.020256996
915, 1009312173, -0.43753684, -0.38225275, 0.33311367, -0.742617, 0.8313267, 1.5443169, -0.07682896
916, 1009328840, -0.43491808, -0.39322808, 0.3333338, -0.73831356, 0.47888678, 1.3526249, -0.15149021
917, 1009345507, -0.43210545, -0.40420333, 0.33333743, -0.7340239, -0.18769859, 1.4404868, -0.34221268
918, 1009362174, -0.4290939, -0.4151181, 0.33339408, -0.7296603, -0.77517444, 1.0790862, -0.42268658
919, 1009378841, -0.42606097, -0.42585206, 0.33383662, -0.72503483, -1.1733141, 0.5912071, -0.44913006
920, 1009395508, -0.42267576, -0.43723634, 0.3345037, -0.7199148, -1.4159083, 0.35307133, -0.5142307
921, 1009412175, -0.41982606, -0.44845095, 0.3349545, -0.7144534, -1.5175933, -0.0027840773, -0.492898
922, 1009428842, -0.4173328, -0.45947292, 0.3350591, -0.70883995, -1.9615859, -0.42482504, -0.73778915
923, 1009445509, -0.41538346, -0.47021258, 0.3350943, -0.70290035, -1.8643447, -0.7153888, -0.9376335
924, 1009462176, -0.41394448, -0.48109066, 0.33565828, -0.6960861, -1.3658891, -0.5804932, -0.71335506
925, 1009478843, -0.41262487, -0.4918272, 0.3364316, -0.6889563, -0.62349933, 0.11686062, -0.8959274
926, 1009495510, -0.4115758, -0.50179666, 0.3371733, -0.68199724, 0.41992977, 0.3289895, -0.894331
927, 1009512177, -0.40993014, -0.51147753, 0.33746818, -0.67562103, 1.0412296, 0.10358965, -0.63713837
928, 1009528844, -0.4072342, -0.52080506, 0.33690828, -0.67038465, 1.2668649, -0.14558159, -0.5555897
929, 1009545511, -0.40360758, -0.5302067, 0.33546987, -0.66591454, 1.0116328, -1.0028795, -0.5411625
930, 1009562178, -0.40051028, -0.5390842, 0.3346948, -0.66102916, 0.47416866, -0.82965696, -0.48277664
931, 1009578845, -0.39709848, -0.5474334, 0.33447945, -0.6563179, -0.17905399, -1.8399925, -0.4647045
932, 1009595512, -0.39534262, -0.55477756, 0.33484694, -0.6510022, -0.55628085, -1.5312477, 0.107406616
933, 1009612179, -0.39472634, -0.5609323, 0.33533156, -0.6458321, -0.70857775, -2.2727482, 0.18039322
934, 1009628846, -0.3950652, -0.5665762, 0.33662635, -0.63999826, -0.6163324, -2.0758815, 0.1302967
935, 1009645513, -0.39676496, -0.57059044, 0.33835548, -0.6344446, -0.26423857, -1.5011997, 0.22527313
936, 1009662180, -0.39898163, -0.57376486, 0.33992442, -0.6293323, 0.16797803, -1.2195405, 0.1811285
937, 1009678847, -0.40130267, -0.57633793, 0.34141162, -0.62468326, 0.4623749, -1.103381, 0.31173038
938, 1009695514, -0.40326712, -0.5787363, 0.3426652, -0.6205003, 1.0546912, -0.92709506, 0.19883156
939, 1009712181, -0.40447423, -0.5814503, 0.34397814, -0.6164378, 1.1104928, -0.6116164, 0.1783657
940, 1009728848, -0.4058239, -0.583857, 0.34539485, -0.6124711, 0.97605014, -0.2830186, 0.14571476
941, 1009745515, -0.40710676, -0.5858376, 0.3466911, -0.6089861, 0.08658244, -0.29122755, 0.1086874
942, 1009762182, -0.40794763, -0.58775496, 0.34739578, -0.60616785, -0.24936546, -0.71011966, 0.28263187
943, 1009778849, -0.4082553, -0.5897102, 0.34754235, -0.6039736, 0.37602937, -0.6555244, 0.3928318
944, 1009795516, -0.40774328, -0.59153444, 0.3467729, -0.6029771, 0.71828717, -0.52149504, 0.21835613
945, 1009812183, -0.40725026, -0.59294635, 0.34608263, -0.6023197, 0.2531367, -0.53583944, 0.16751766
946, 1009828850, -0.40758672, -0.59387517, 0.3462519, -0.6010784, -0.30858546, -0.73217255, 0.19124603
947, 1009845517, -0.4087537, -0.5943948, 0.3471205, -0.5992687, -0.23614155, -0.4223787, 0.15259457
948, 1009862184, -0.4100167, -0.5948299, 0.34838977, -0.59723425, -0.11352078, 0.08125746, 0.20816231
949, 1009878851, -0.41083372, -0.59516263, 0.34909713, -0.59592676, -0.14107232, 0.12675017, 0.14200497
950, 1009895518, -0.41113406, -0.5957715, 0.3494649, -0.59489477, -0.28182593, 0.106339864, 0.07590866
951, 1009912185, -0.41180038, -0.59613854, 0.34987208, -0.59382594, -0.42532548, 0.13733083, 0.1281519
952, 1009928852, -0.41307148, -0.59623027, 0.35066113, -0.5923839, -0.38309985, 0.20759124, 0.06465244
953, 1009945519, -0.41402125, -0.5965459, 0.3515446, -0.5908774, -0.2375147, 0.34601304, 0.010148048
954, 1009962186, -0.41424036, -0.59738386, 0.35210615, -0.58954144, -0.069762304, 0.37418908, -0.1035099
955, 1009978853, -0.4136422, -0.5984458, 0.35181043, -0.5890607, 0.26853663, 0.16227578, 0.21498013
956, 1009995520, -0.41275105, -0.5992637, 0.35081297, -0.58944905, 0.48482934, -0.09831642, 0.21827888
957, 1010012187, -0.4120157, -0.5997465, 0.3497874, -0.5900817, 0.017718654, -0.055066887, 0.19633198
958, 1010028854, -0.41171724, -0.60003763, 0.34904376, -0.5904342, -0.52487874, -0.17007928, 0.11627197
959, 1010045521, -0.41214558, -0.6000472, 0.349136, -0.59007114, -0.4955367, -0.036793362, 0.15267944
960, 1010062188, -0.41301015, -0.6000549, 0.34962872, -0.5891662, -0.009842952, 0.094756976, 0.06587219
961, 1010078855, -0.4137367, -0.60008013, 0.350214, -0.5882825, 0.14016832, 0.270794, 0.09374809
962, 1010095522, -0.41371033, -0.60033625, 0.3505077, -0.58786464, -0.16683476, -0.13231587, 0.04686451
963, 1010112189, -0.41363674, -0.60063094, 0.35081023, -0.5874348, -0.09090059, -0.2664536, 0.07570934
964, 1010128856, -0.4140631, -0.60064083, 0.3511638, -0.58691293, 0.12400633, -0.28542984, 0.18989658
965, 1010145523, -0.41471988, -0.60048276, 0.3510999, -0.5866491, 0.43383327, -0.14617881, 0.32568264
966, 1010162190, -0.4154914, -0.59997064, 0.3513143, -0.5864985, 0.012406981, 0.26538074, 0.09770584
967, 1010178857, -0.41562784, -0.5997851, 0.35146195, -0.5865035, -0.4510314, 0.20494841, -0.06767464
968, 1010195524, -0.4157165, -0.5997886, 0.3515742, -0.58636963, -0.21820866, 0.29211488, 0.04677391
969, 1010212191, -0.41583842, -0.5999995, 0.35157785, -0.586065, 0.16309829, 0.34437087, 0.060840607
970, 1010228858, -0.41570565, -0.60039645, 0.3512914, -0.58592457, 0.22977109, 0.11690957, 0.1412592
971, 1010245525, -0.4157858, -0.60045284, 0.35076776, -0.5861237, 0.007547697, 0.05815874, 0.17660904
972, 1010262192, -0.41587704, -0.6003169, 0.35045335, -0.5863862, -0.3432949, -0.03544245, 0.07070351
973, 1010278859, -0.41567412, -0.60038584, 0.35016975, -0.5866291, -0.25127214, -0.15460682, 0.059705734
974, 1010295526, -0.41562915, -0.60049534, 0.3499888, -0.5866567, 0.21321794, -0.061415996, 0.110095024
975, 1010312193, -0.41571787, -0.6005355, 0.34993142, -0.5865868, 0.2240819, 0.0153779145, 0.14588642
976, 1010328860, -0.41568363, -0.6006539, 0.3498005, -0.586568, -0.121727504, -0.010324511, 0.1065321
977, 1010345527, -0.41572702, -0.6007215, 0.34974784, -0.58649933, -0.1206314, -0.015415465, 0.033715248
978, 1010362194, -0.41566905, -0.6009657, 0.34960264, -0.5863769, 0.005575866, -0.12174818, 0.11748028
979, 1010378861, -0.41576743, -0.6010093, 0.34919944, -0.5865028, 0.18357946, 0.11620215, 0.16430092
980, 1010395528, -0.41586268, -0.60081184, 0.34903643, -0.58673435, -0.21804437, 0.1719436, 0.12568569
981, 1010412195, -0.41595188, -0.6005696, 0.34880266, -0.587058, -0.34473565, -0.10948067, 0.07635784
982, 1010428862, -0.41604325, -0.6004569, 0.34887314, -0.5870667, -0.090728715, -0.08472102, -0.009324074
983, 1010445529, -0.41605908, -0.60060894, 0.3489713, -0.5868417, 0.15549394, 0.040341184, 0.03209591
984, 1010462196, -0.4160014, -0.6007063, 0.3486529, -0.58697206, 0.19716324, -0.07922529, 0.20974636
985, 1010478863, -0.4158386, -0.6004506, 0.34767333, -0.58792925, 0.29028198, -0.3333897, 0.3745613
986, 1010495530, -0.4153225, -0.5999863, 0.3466413, -0.5893758, 0.091871314, -0.051609363, 0.15722275
987, 1010512197, -0.41450074, -0.599379, 0.34548318, -0.59124917, -0.061508752, -0.36660796, 0.05252552
988, 1010528864, -0.41367206, -0.5987188, 0.34416395, -0.5932644, -0.0918208, -0.42189077, 0.16996765
989, 1010545531, -0.4134411, -0.59778345, 0.34307915, -0.5949946, 0.04718448, -0.32068366, 0.23555183
990, 1010562198, -0.413186, -0.5967374, 0.3420861, -0.5967911, -0.1029361, -0.47442704, 0.25041485
991, 1010578865, -0.41283026, -0.59547937, 0.34110203, -0.5988531, -0.29588345, -0.5965355, 0.29119873
992, 1010595532, -0.4130128, -0.59381676, 0.34045473, -0.6007437, -0.25519258, -0.44039315, 0.1940155
993, 1010612199, -0.4135351, -0.59159005, 0.34013507, -0.602759, -0.44791102, -0.48823142, 0.22108269
994, 1010628866, -0.41437685, -0.58882946, 0.33998626, -0.60496414, -1.0200508, -0.4579148, 0.29733658
995, 1010645533, -0.4158786, -0.58543795, 0.34028223, -0.6070548, -0.8189451, -0.41467354, 0.29078293
996, 1010662200, -0.41822514, -0.58174586, 0.34217793, -0.607926, 0.17702885, -0.22101386, 0.07245827
997, 1010678867, -0.42073455, -0.5776265, 0.34554738, -0.60821664, 0.4086482, -0.20703268, -0.11083126
998, 1010695534, -0.42170033, -0.5746887, 0.34881157, -0.6084675, -0.11054426, -0.4770343, -0.24685192
999, 1010712201, -0.42181677, -0.5720769, 0.35191518, -0.60906047, 0.33569577, -0.30349103, -0.0016517639
1000, 1010728868, -0.42149788, -0.56903666, 0.3545119, -0.6106215, 0.052845057, -1.3719314, 0.14434528
1001, 1010745535, -0.4218916, -0.5651692, 0.35634366, -0.61287093, -0.08978817, -1.4918345, 0.2615118
1002, 1010762202, -0.4238034, -0.5592411, 0.35876295, -0.6155727, 0.14856403, -0.7553752, 0.38660622
1003, 1010778869, -0.42515382, -0.55226344, 0.3610971, -0.61956304, -0.26384318, -1.48888, 0.21004772
1004, 1010795536, -0.42520612, -0.5455372, 0.36329648, -0.62418336, -1.5114717, -1.5367092, 0.06929684
1005, 1010812203, -0.42608556, -0.53734493, 0.3661474, -0.62900573, -1.3637366, -0.85487556, -0.24706078
1006, 1010828870, -0.42816812, -0.5274804, 0.36903208, -0.6342338, -0.9984603, -0.2300677, -0.10469341
1007, 1010845537, -0.43138364, -0.5160333, 0.37132132, -0.64010817, -1.2829791, 0.60047024, 0.20129967
1008, 1010862204, -0.43482628, -0.5044104, 0.37378386, -0.6455867, -1.0933481, 0.83303905, -0.3781929
1009, 1010878871, -0.436993, -0.4939296, 0.37492678, -0.6515372, -0.26508582, 0.63783693, -0.74608326
1010, 1010895538, -0.43736404, -0.48498154, 0.37450272, -0.65822005, -0.20924646, -0.8174267, -0.33903503
1011, 1010912205, -0.43747622, -0.47612378, 0.37266433, -0.6656142, -0.45231178, -1.0209253, -0.20330715
1012, 1010928872, -0.43859822, -0.46553817, 0.3702388, -0.6736687, -0.49430013, -0.3555957, -0.30243874
1013, 1010945539, -0.44006926, -0.45447847, 0.368277, -0.6812934, -0.6326335, -0.08438508, -0.8296404
1014, 1010962206, -0.44261304, -0.44371113, 0.3685514, -0.6865744, -0.17917614, 0.7200461, -1.1241302
1015, 1010978873, -0.44402584, -0.43418247, 0.3695462, -0.6912037, 0.4174435, 0.8780929, -0.86286354
1016, 1010995540, -0.44381404, -0.42526695, 0.36913425, -0.6970778, 1.1475672, 0.6542752, -0.4037876
1017, 1011012207, -0.44334647, -0.41605207, 0.36769667, -0.70366496, 0.62703735, 0.106987715, -0.24381447
1018, 1011028874, -0.4436812, -0.406362, 0.36580145, -0.710075, -0.14367034, 0.12604041, -0.1779728
1019, 1011045541, -0.445105, -0.39560148, 0.36536092, -0.71546686, 0.6126262, 1.0327432, -0.2795925
1020, 1011062208, -0.44566748, -0.38520202, 0.3657078, -0.7205954, 1.0996444, 1.4365007, -0.35685635
1021, 1011078875, -0.44433352, -0.37640423, 0.36391658, -0.7269474, 1.459461, 1.1830511, -0.11842537
1022, 1011095542, -0.4424996, -0.36813745, 0.3603891, -0.73402226, 0.9876586, 0.19477478, 0.037563324
1023, 1011112209, -0.44135517, -0.35966742, 0.3560781, -0.7409817, -0.87258095, -0.64316577, -0.20244026
1024, 1011128876, -0.44144902, -0.35027552, 0.352859, -0.74694103, -1.3984771, -0.721491, -0.6270914
1025, 1011145543, -0.44264233, -0.3401082, 0.35047954, -0.7520364, -0.9682887, 0.70674306, -0.49289894
1026, 1011162210, -0.443678, -0.33006442, 0.34805748, -0.7570097, -0.570132, 0.9620063, 0.049092293
1027, 1011178877, -0.44376704, -0.32050213, 0.34608662, -0.76195383, -0.5372411, 1.1420944, 0.28767776
1028, 1011195544, -0.44384915, -0.3110407, 0.3443202, -0.76661325, -0.50784177, 0.83516276, 0.2668171
1029, 1011212211, -0.44411927, -0.30177262, 0.34266225, -0.77089196, -1.1600214, 0.2950125, 0.11079216
1030, 1011228878, -0.44451246, -0.29193902, 0.34141567, -0.77499413, -1.3414464, 0.08954108, -0.28106022
1031, 1011245545, -0.44523332, -0.28224275, 0.34021762, -0.7786904, -0.78809464, 0.41837814, 0.088661194
1032, 1011262212, -0.44583297, -0.2733395, 0.33829904, -0.7823508, -0.55710894, 0.9779769, 0.5023861
1033, 1011278879, -0.4460726, -0.26500723, 0.33604777, -0.78604233, -0.4472757, 0.95878696, 0.6500912
1034, 1011295546, -0.44640815, -0.25667182, 0.33328143, -0.7897867, -0.7339464, 0.5489827, 0.3023739
1035, 1011312213, -0.4475056, -0.24754813, 0.33056283, -0.7932133, -0.4811017, 0.21077764, 0.09714508
1036, 1011328880, -0.449219, -0.23782873, 0.328262, -0.7961684, 0.12218124, 0.93204844, 0.18288803
1037, 1011345547, -0.45070335, -0.22866786, 0.3263192, -0.79880756, 0.986106, 1.5006342, 0.5091114
1038, 1011362214, -0.45108855, -0.22074406, 0.32393032, -0.80178595, 1.7829628, 1.2210565, 1.2178612
1039, 1011378881, -0.45056066, -0.21398444, 0.32062492, -0.8052366, 1.1724081, 0.8059197, 0.74450874
1040, 1011395548, -0.44957057, -0.20757829, 0.31681424, -0.80896646, 0.6020574, 0.49574077, -0.13176632
1041, 1011412215, -0.44888473, -0.20053853, 0.31331083, -0.8124799, 1.4741831, 0.5836584, -0.22144985
1042, 1011428882, -0.44853586, -0.19334929, 0.3097152, -0.8157871, 1.8121625, 0.65891814, 0.43592453
1043, 1011445549, -0.4475974, -0.18681546, 0.30582988, -0.8192833, 1.596863, 1.0653019, 0.73843384
1044, 1011462216, -0.44611248, -0.18075173, 0.30207187, -0.8228399, 1.1053032, 0.855127, 0.8657036
1045, 1011478883, -0.44386396, -0.17522007, 0.29827183, -0.8266298, 0.387568, 0.72086185, 0.43566227
1046, 1011495550, -0.4412496, -0.17003863, 0.2942187, -0.83055484, 0.14505567, 0.08894413, -0.016450882
1047, 1011512217, -0.4391113, -0.1645954, 0.290389, -0.83412486, -0.099226676, -0.45171654, -0.109018326
1048, 1011528884, -0.43763185, -0.15912047, 0.2868988, -0.8371668, 0.24700764, -0.6169639, 0.20522118
1049, 1011545551, -0.43631935, -0.15401886, 0.28375566, -0.839873, -0.19820715, -0.71762246, 0.2841339
1050, 1011562218, -0.43466082, -0.14913762, 0.28075802, -0.8426171, -0.4157711, -0.54706544, 0.22617435
1051, 1011578885, -0.4330315, -0.14446469, 0.27767152, -0.8452885, -0.3773311, -0.38195604, -0.1898737
1052, 1011595552, -0.43177307, -0.13980772, 0.27508935, -0.84755653, -0.030223645, -0.33647278, 0.4203558
1053, 1011612219, -0.43032932, -0.1354907, 0.2724944, -0.8498273, 0.43864998, 0.17415716, 0.6498499
1054, 1011628886, -0.42895314, -0.13167436, 0.2696626, -0.8520232, 0.7048895, 0.018459432, 0.665349
1055, 1011645553, -0.4277478, -0.12812142, 0.2666763, -0.85410833, 0.9500798, 0.08631305, 0.40204048
1056, 1011662220, -0.4267275, -0.12486921, 0.2639591, -0.85594237, 0.61678725, -0.20641816, 0.051765442
1057, 1011678887, -0.42550623, -0.121508256, 0.2620571, -0.85761684, 0.49904576, -0.11547574, -0.0639801
1058, 1011695554, -0.42444676, -0.118556656, 0.26036993, -0.85906756, 0.6185794, 0.046902183, 0.2844143
1059, 1011712221, -0.42354771, -0.115928374, 0.2582215, -0.86051726, 0.6904576, 0.33208755, 0.28555393
1060, 1011728888, -0.42286313, -0.113562144, 0.25577748, -0.86189824, 0.541397, 0.14761306, 0.020253181
1061, 1011745555, -0.42209142, -0.111759625, 0.25293124, -0.8633508, 0.56324714, 0.05699033, 0.121902466
1062, 1011762222, -0.4214634, -0.110607445, 0.24958757, -0.86477804, 0.39109248, -0.013090734, 0.15580368
1063, 1011778889, -0.42109767, -0.10960357, 0.24665876, -0.86592364, -0.29559073, -0.42495775, 0.24635696
1064, 1011795556, -0.42075709, -0.10854134, 0.2445277, -0.86682683, -0.28632927, -0.16671312, 0.15824318
1065, 1011812223, -0.42036384, -0.107605584, 0.24290876, -0.86758924, -0.25592312, -0.09418255, 0.052316666
1066, 1011828890, -0.41995302, -0.1066654, 0.24170919, -0.86823905, -0.2958044, -0.1642674, 0.04479122
1067, 1011845557, -0.41960257, -0.10598114, 0.24048008, -0.8688333, 0.013717325, 0.018420123, 0.23097992
1068, 1011862224, -0.41948113, -0.10556421, 0.2388889, -0.86938155, -0.0028440906, 0.096115686, 0.27326775
1069, 1011878891, -0.41936693, -0.10531133, 0.23742813, -0.8698674, -0.21666262, -0.2347496, 0.07005215
1070, 1011895558, -0.41907254, -0.10495243, 0.23619331, -0.8703886, -0.16704006, -0.20239635, 0.020716667
1071, 1011912225, -0.4186965, -0.1047013, 0.23507026, -0.8709038, -0.041747637, -0.11207716, 0.066205025
1072, 1011928892, -0.41833594, -0.10449794, 0.23397243, -0.8713969, -0.08991988, -0.09131519, -0.00997448
1073, 1011945559, -0.4180587, -0.10435657, 0.23266971, -0.87189555, 0.05488439, -0.06932961, -0.017617226
1074, 1011962226, -0.4179296, -0.10425431, 0.23118006, -0.8723658, 0.03704459, 0.016096843, 0.019781113
1075, 1011978893, -0.4178574, -0.10392248, 0.22977495, -0.8728111, 0.0051167146, 0.19263023, -0.12040138
1076, 1011995560, -0.41774788, -0.103369825, 0.2282413, -0.8733314, 0.073117904, 0.13262661, -0.12312031
1077, 1012012227, -0.41754776, -0.102743186, 0.2265678, -0.8739367, 0.05072984, 0.17491119, 0.07487202
1078, 1012028894, -0.41717017, -0.10213923, 0.22487013, -0.8746259, 0.10148371, 0.23118576, 0.2743578
1079, 1012045561, -0.4166375, -0.10158519, 0.22299665, -0.8754238, 0.2728837, 0.36015666, 0.29986382
1080, 1012062228, -0.4160871, -0.10106276, 0.22095916, -0.87626207, 0.17743894, 0.2569534, 0.18017769
1081, 1012078895, -0.41549975, -0.10066608, 0.21901496, -0.8770742, 0.118759304, 0.04581605, -0.030472755
1082, 1012095562, -0.41484588, -0.1003924, 0.21705139, -0.8779028, 0.14110696, 0.009052107, 0.058371544
1083, 1012112229, -0.41404837, -0.10035362, 0.21521083, -0.8787366, -0.0050691064, -0.058387592, 0.23412418
1084, 1012128896, -0.41310546, -0.10035016, 0.21363708, -0.8795643, -0.20776367, -0.08834031, 0.27505493
1085, 1012145563, -0.41211966, -0.10034364, 0.21259901, -0.8802789, -0.1612251, -0.1592795, 0.13446236
1086, 1012162230, -0.4111071, -0.1002615, 0.2118939, -0.8809314, -0.22666885, -0.19401763, -0.11033058
1087, 1012178897, -0.4102065, -0.10019632, 0.21146785, -0.88146067, -0.2629128, -0.38602868, -0.035449028
1088, 1012195564, -0.4095489, -0.10028453, 0.21109754, -0.8818451, -0.45015347, -0.4608398, 0.0064706802
1089, 1012212231, -0.40911043, -0.10036329, 0.21084967, -0.882099, -0.4948164, -0.533937, 0.07107639
1090, 1012228898, -0.40884247, -0.10048743, 0.21072274, -0.88223946, -0.4555097, -0.48243707, -0.048064232
1091, 1012245565, -0.40865338, -0.10057779, 0.21058878, -0.88234866, -0.3715463, -0.3966475, -0.025229454
1092, 1012262232, -0.40862215, -0.10062959, 0.21059006, -0.8823569, -0.34339005, -0.3088034, -0.0039339066
1093, 1012278899, -0.4087217, -0.10054244, 0.21065935, -0.8823042, -0.31627637, -0.20706305, -0.0058231354
1094, 1012295566, -0.4089049, -0.100416884, 0.2107784, -0.8822051, -0.22802027, -0.18044679, 0.098929405
1095, 1012312233, -0.40913746, -0.10031962, 0.21095705, -0.8820658, -0.14331411, -0.14798036, -3.786087E-4
1096, 1012328900, -0.4094862, -0.09998235, 0.21137907, -0.88184124, -0.09934586, -0.13313384, -0.07536316
1097, 1012345567, -0.40984303, -0.0997294, 0.21182047, -0.88159794, 0.02185398, -0.08937995, -0.07311535
1098, 1012362234, -0.41018417, -0.09932328, 0.21215747, -0.88140416, 0.15512285, 0.08879921, -7.715225E-4
1099, 1012378901, -0.41046324, -0.09884892, 0.21240449, -0.8812681, 0.1701859, 0.21563295, 0.022163391
1100, 1012395568, -0.41064063, -0.09836314, 0.21245337, -0.8812281, 0.19642386, 0.16661426, 0.149436
1101, 1012412235, -0.41072395, -0.09802278, 0.21237747, -0.8812454, 0.19780718, 0.20104279, 0.14628792
1102, 1012428902, -0.4107678, -0.09775563, 0.21205701, -0.88133186, 0.17098501, 0.11679231, 0.11386299
1103, 1012445569, -0.4107776, -0.0975495, 0.21160212, -0.88145953, 0.20052442, 0.0023516915, 0.09726524
1104, 1012462236, -0.4108184, -0.09746377, 0.21126461, -0.88153076, 0.10932818, -0.082120255, 0.052137375
1105, 1012478903, -0.4108952, -0.09732104, 0.21122445, -0.8815205, -0.012707438, -0.08480805, 0.040002823
1106, 1012495570, -0.4110054, -0.097137064, 0.21145009, -0.88143516, 0.030737223, 0.0033203128, 0.1705904
1107, 1012512237, -0.41109127, -0.09700836, 0.21190631, -0.8812998, 0.03517133, 0.041329615, 0.23737335
1108, 1012528904, -0.41105515, -0.096880674, 0.21234941, -0.8812243, 0.055807274, 0.16107559, 0.16801453
1109, 1012545571, -0.41094342, -0.09684162, 0.21262398, -0.8812142, 0.125141, 0.15454054, 0.06921673
1110, 1012562238, -0.41084227, -0.09701416, 0.21279669, -0.8812008, 0.124094784, -0.005898395, -0.03913021
1111, 1012578905, -0.41068327, -0.09724119, 0.2128706, -0.88123196, 0.1297429, 0.011896952, 0.048819542
1112, 1012595572, -0.41049808, -0.09741816, 0.21280539, -0.8813146, 0.13936105, 0.07810873, 0.20266247
1113, 1012612239, -0.41033015, -0.09756855, 0.21269684, -0.88140225, 0.023958353, -0.028897347, 0.11898327
1114, 1012628906, -0.4101584, -0.09755178, 0.21259421, -0.88150877, 0.013416253, -0.008202339, -0.014393806
1115, 1012645573, -0.41001496, -0.09753674, 0.21258083, -0.88158035, 0.02231531, -0.04742551, -0.016724586
1116, 1012662240, -0.4098264, -0.097539544, 0.21264754, -0.8816517, -0.06246399, -0.06993595, -0.07120514
1117, 1012678907, -0.4096305, -0.09750053, 0.21260464, -0.8817575, -0.06857707, -0.031077325, 0.025305748
1118, 1012695574, -0.40943602, -0.09745055, 0.21243417, -0.88189423, -0.078679524, -0.022114959, 0.10430527
1119, 1012712241, -0.40926513, -0.097411156, 0.21215552, -0.88204503, -0.078455, -0.046702698, 0.0398674
1120, 1012728908, -0.4091612, -0.09736268, 0.21186925, -0.8821674, -0.057007425, -0.09093016, -0.020497322
1121, 1012745575, -0.40909293, -0.097265586, 0.21165532, -0.88226116, -0.08073986, -0.121517956, 0.06480503
1122, 1012762242, -0.4090586, -0.09710836, 0.21142523, -0.8823496, -0.08428729, -0.019447416, 0.085627556
1123, 1012778909, -0.4090364, -0.09697049, 0.21123438, -0.88242066, -0.069075726, -0.063352205, 0.057538033
1124, 1012795576, -0.40905327, -0.09684633, 0.21108493, -0.88246226, 0.018977033, 0.012265692, -0.0396595
1125, 1012812243, -0.40905675, -0.09670298, 0.21091309, -0.8825175, 0.0022073023, 0.055317502, 0.05849743
1126, 1012828910, -0.40905532, -0.09652061, 0.2106236, -0.8826073, 0.074794255, 0.108949214, 0.16145802
1127, 1012845577, -0.40904692, -0.09634552, 0.21022905, -0.8827244, 0.11171491, 0.03476339, 0.063806534
1128, 1012862244, -0.40906352, -0.096196294, 0.20975098, -0.88284665, 0.18553671, -0.00694438, -0.027909279
1129, 1012878911, -0.40907905, -0.09610048, 0.20911993, -0.8829996, 0.2928071, 0.0779017, 0.036602974
1130, 1012895578, -0.4090234, -0.09620512, 0.20812531, -0.8832489, 0.42562786, 0.1119387, 0.16443443
1131, 1012912245, -0.40888968, -0.09654623, 0.20685138, -0.88357294, 0.47318566, 0.1914408, 0.19444942
1132, 1012928912, -0.40860623, -0.09703358, 0.20544899, -0.8839777, 0.4616956, 0.24515133, 0.16589165
1133, 1012945579, -0.40802714, -0.097641125, 0.20402882, -0.88450694, 0.39746565, 0.3015758, 0.2589817
1134, 1012962246, -0.40708756, -0.0983239, 0.20266835, -0.8851768, 0.3912905, 0.3681794, 0.35246563
1135, 1012978913, -0.40583992, -0.09906884, 0.20134066, -0.88596934, 0.32185945, 0.1997942, 0.25735855
1136, 1012995580, -0.4044217, -0.09990525, 0.19993772, -0.8868413, 0.21451232, 0.08564324, 0.15882206
1137, 1013012247, -0.4030177, -0.10081347, 0.1983729, -0.8877285, -0.035336282, 0.05970889, 0.07000065
1138, 1013028914, -0.40170753, -0.10165259, 0.19684184, -0.888567, -0.23433428, -0.012408406, 0.023171425
1139, 1013045581, -0.4006282, -0.10249456, 0.19548886, -0.88925594, -0.2726368, -0.18288511, -0.0463686
1140, 1013062248, -0.39982352, -0.103375636, 0.19427116, -0.88978285, -0.30195573, -0.23871234, -0.11603069
1141, 1013078915, -0.39929834, -0.104182765, 0.19312726, -0.89017355, -0.44617113, -0.047984656, -0.11360836
1142, 1013095582, -0.39885733, -0.1049052, 0.19201891, -0.8905261, -0.46018183, -0.32585087, -0.0015087128
1143, 1013112249, -0.39842007, -0.10554436, 0.1917885, -0.89069605, -0.4391573, -0.44797915, -0.3266697
1144, 1013128916, -0.39788395, -0.1060212, 0.19199349, -0.89083487, -0.25498158, -0.21681607, -0.2427702
1145, 1013145583, -0.39685944, -0.10657628, 0.19235395, -0.891148, -0.20079605, -0.36530742, 0.065945625
1146, 1013162250, -0.39561716, -0.1070748, 0.19412977, -0.8912553, -0.025295576, -0.30248776, 0.09045124
1147, 1013178917, -0.39439517, -0.107509464, 0.19782159, -0.8909328, -0.25532925, -1.2181419, 0.23217869
1148, 1013195584, -0.3929935, -0.10853854, 0.20244163, -0.8903893, -0.061380345, -0.6914918, -0.22029781
1149, 1013212251, -0.39174387, -0.11005238, 0.20726928, -0.88964325, 0.5882449, -0.24594477, 0.11948013
1150, 1013228918, -0.39082566, -0.11223089, 0.21143527, -0.8887941, 1.7323259, -0.3130744, 0.22070312
1151, 1013245585, -0.39022124, -0.115713045, 0.21422808, -0.887944, 1.7653491, -0.252411, 0.12143612
1152, 1013262252, -0.38979822, -0.12027061, 0.21601947, -0.8870898, 1.9766428, 0.30458918, 0.55779743
1153, 1013278919, -0.38951525, -0.12543808, 0.21710582, -0.88623285, 2.4645123, 0.92125326, 1.1896791
1154, 1013295586, -0.38882676, -0.13098606, 0.21796153, -0.8855222, 1.4313468, 0.18830013, 0.48961544
1155, 1013312253, -0.3875279, -0.13584809, 0.22041224, -0.88475204, 0.011422741, -0.76143956, -0.3195486
1156, 1013328920, -0.385955, -0.14062974, 0.22380455, -0.8838404, 0.35320473, -0.73091805, -0.20580864
1157, 1013345587, -0.38493022, -0.14562234, 0.22655335, -0.882778, 0.007901183, -1.0414969, -0.20924854
1158, 1013362254, -0.38484132, -0.1506519, 0.22901231, -0.8813369, -0.6916801, -1.7254874, -0.30136395
1159, 1013378921, -0.38584325, -0.15539399, 0.23169158, -0.8793731, -1.0895897, -1.4392544, -0.38281727
1160, 1013395588, -0.38755536, -0.15998243, 0.23470645, -0.87699467, -1.275272, -1.294136, -0.19995499
1161, 1013412255, -0.38940087, -0.16486262, 0.23807667, -0.8743611, -1.080291, -0.9520842, -0.07390022
1162, 1013428922, -0.39157453, -0.17001395, 0.241762, -0.8713876, -0.96026397, -0.7453452, -0.04705715
1163, 1013445589, -0.39421064, -0.17526518, 0.2457451, -0.86803794, -0.97852004, -0.580345, 0.17440224
1164, 1013462256, -0.39731532, -0.18064995, 0.25013041, -0.86425763, -0.6072398, -0.17325333, 0.40787315
1165, 1013478923, -0.4007542, -0.18608537, 0.2546185, -0.86019665, -0.24466577, 0.55328393, 0.46587276
1166, 1013495590, -0.40412372, -0.19160014, 0.25885028, -0.8561369, -0.11152559, 0.8443479, 0.5502987
1167, 1013512257, -0.40708777, -0.19732322, 0.26314142, -0.8521151, 0.041359395, 1.0438049, 0.59560585
