sep=,
DeviceTag:,46,,,,,,,,,,,,,,,,,
FirmwareVersion:,1.6.0,,,,,,,,,,,,,,,,,
AppVersion:,2020.4,,,,,,,,,,,,,,,,,
SyncStatus:,Synced,,,,,,,,,,,,,,,,,
OutputRate:,60Hz,,,,,,,,,,,,,,,,,
FilterProfile:,General,,,,,,,,,,,,,,,,,
Measurement Mode:,Sensor fusion Mode - Complete (Quaternion),,,,,,,,,,,,,,,,,
StartTime:,2021-03-24 15:27:58.957 +0800,,,,,,,,,,,,,,,,,
© Xsens Technologies B. V. 2005-2021,,,,,,,,,,,,,,,,,,,

PacketCounter,SampleTimeFine,Quat_W,Quat_X,Quat_Y,Quat_Z,FreeAcc_X,FreeAcc_Y,FreeAcc_Z
1, 994045201, 0.51182485, -0.15882017, -0.7824829, -0.31706855, -0.010400505, 0.0048531927, 0.118003845
2, 994061868, 0.5118067, -0.15887628, -0.78247863, -0.31708035, -0.02393913, 0.022352636, 0.121193886
3, 994078535, 0.51181406, -0.15887147, -0.7824886, -0.31704623, 0.015713856, 0.0035590527, 0.12232876
4, 994095202, 0.511821, -0.1588613, -0.78249073, -0.3170348, 0.03612461, -0.00823567, 0.11725521
5, 994111869, 0.5117908, -0.15896179, -0.7824657, -0.3170948, 0.026672695, -0.026068987, 0.10609245
6, 994128536, 0.5118046, -0.1589734, -0.78245044, -0.31710422, 0.028114354, -0.012785668, 0.12436104
7, 994145203, 0.51185185, -0.15892385, -0.7824348, -0.31709155, 0.00909653, -0.016755704, 0.13031769
8, 994161870, 0.51185966, -0.15894894, -0.7824038, -0.31714296, 0.038937744, -0.014277561, 0.11873531
9, 994178537, 0.5118798, -0.15897289, -0.7823662, -0.31719148, -0.0023014273, 7.896068E-4, 0.1158514
10, 994195204, 0.51189613, -0.15900275, -0.7823253, -0.3172509, -0.010969569, 5.7554585E-6, 0.11753273
11, 994211871, 0.51185966, -0.15915403, -0.7822597, -0.31739584, -0.031070089, 0.018144503, 0.126297
12, 994228538, 0.51186, -0.15917662, -0.7822265, -0.31746548, -0.0073254136, 0.012250745, 0.11906433
13, 994245205, 0.51190597, -0.1590788, -0.7822301, -0.31743178, 0.015754534, 0.013262812, 0.1213274
14, 994261872, 0.51188964, -0.15913159, -0.78220016, -0.31750515, -0.025745563, -0.0045649726, 0.12947845
15, 994278539, 0.51190794, -0.15912417, -0.78217953, -0.31753, -0.035736144, -0.018518608, 0.11362839
16, 994295206, 0.5119008, -0.15914178, -0.78215873, -0.317584, -0.0030026732, 0.020936571, 0.13217545
17, 994311873, 0.5118518, -0.15925887, -0.7821176, -0.31770554, -0.044181358, 0.016925743, 0.10027313
18, 994328540, 0.5118175, -0.15931231, -0.78210276, -0.31777057, -0.035891265, 0.031607136, 0.11266518
19, 994345207, 0.51178896, -0.15932502, -0.78209895, -0.31781974, -0.038403995, 0.03026114, 0.10909271
20, 994361874, 0.5117426, -0.15938744, -0.78209275, -0.3178783, -0.046399053, -0.0065687103, 0.11817455
21, 994378541, 0.5117474, -0.15934616, -0.78210104, -0.31787103, -0.0028256509, 0.0069047622, 0.12470913
22, 994395208, 0.5117229, -0.15935504, -0.7820972, -0.31791532, 0.069221966, -0.01244386, 0.14173412
23, 994411875, 0.5116839, -0.15941884, -0.7820677, -0.31801847, 0.055526875, -0.034805994, 0.13596725
24, 994428542, 0.5116169, -0.15959685, -0.7820098, -0.31817964, 0.022147005, -0.017745309, 0.11386776
25, 994445209, 0.511531, -0.15980697, -0.78194356, -0.31837514, -0.02323596, -0.0052675856, 0.11072159
26, 994461876, 0.51154226, -0.15975063, -0.78194046, -0.3183925, -0.0051437886, 0.03003194, 0.10660267
27, 994478543, 0.51157683, -0.15964088, -0.7819472, -0.31837547, 0.01513451, 0.025028646, 0.119888306
28, 994495210, 0.51154584, -0.15969725, -0.78192246, -0.3184577, -0.034409374, 0.02753769, 0.11518383
29, 994511877, 0.5115283, -0.15971118, -0.78191304, -0.31850186, -0.034057114, 0.048506614, 0.09298515
30, 994528544, 0.5114962, -0.15973894, -0.78191155, -0.31854355, -0.059255965, 0.044563062, 0.10588932
31, 994545211, 0.511448, -0.15978557, -0.78191376, -0.3185921, -0.023083525, 0.057695568, 0.12493515
32, 994561878, 0.51139104, -0.1598636, -0.7819065, -0.3186621, 0.020049112, 0.008648611, 0.10894394
33, 994578545, 0.51131696, -0.159954, -0.78190446, -0.31874067, 6.5310486E-4, -0.012989791, 0.11645985
34, 994595212, 0.51125014, -0.16005887, -0.7818939, -0.318821, 0.016784482, -0.023251662, 0.1164999
35, 994611879, 0.5111939, -0.16012807, -0.781895, -0.31887418, 0.027760755, -0.0046991366, 0.10902977
36, 994628546, 0.5111914, -0.16008365, -0.7819159, -0.31884876, 0.009120669, -3.9690314E-4, 0.10931206
37, 994645213, 0.511181, -0.16007338, -0.7819287, -0.3188392, -0.049496945, 0.0018182779, 0.12240982
38, 994661880, 0.5112153, -0.15994883, -0.78197414, -0.3187353, 0.009945433, 0.0151248425, 0.11223698
39, 994678547, 0.51121914, -0.15989318, -0.7820064, -0.31867832, 0.027438004, 0.032614786, 0.12555218
40, 994695214, 0.51122403, -0.15983637, -0.7820371, -0.31862345, 0.0017585999, -0.009044899, 0.13013744
41, 994711881, 0.511213, -0.15983206, -0.7820571, -0.31859416, 0.024859112, 3.8695682E-4, 0.12201309
42, 994728548, 0.51121974, -0.15979186, -0.78207314, -0.31856388, 0.017471561, -0.025724944, 0.10101986
43, 994745215, 0.511202, -0.15983772, -0.78206754, -0.3185833, 0.022060711, -0.0065727364, 0.1344614
44, 994761882, 0.5112035, -0.15983902, -0.7820744, -0.31856334, 0.00645416, 0.010319705, 0.11699104
45, 994778549, 0.51118594, -0.15986416, -0.78208745, -0.31854686, -0.008899839, 0.045260254, 0.11164284
46, 994795216, 0.5111651, -0.15988854, -0.7821054, -0.31852397, -0.056768715, 0.06181586, 0.10308933
47, 994811883, 0.5111101, -0.1599986, -0.7821146, -0.31853455, -0.040039215, 0.035575382, 0.11095238
48, 994828550, 0.51109326, -0.16000703, -0.78215456, -0.31845912, 0.011438499, 0.058762003, 0.104696274
49, 994845217, 0.51114243, -0.15982655, -0.7822263, -0.31829447, -0.036033865, -0.00856239, 0.11987877
50, 994861884, 0.51113945, -0.1597773, -0.78227943, -0.31819376, -0.018954346, -0.031608757, 0.11784744
51, 994878551, 0.51115805, -0.15967824, -0.7823376, -0.31807005, 0.05148934, 0.021887058, 0.11897564
52, 994895218, 0.51110053, -0.15975513, -0.78235745, -0.31807512, 0.021459926, -0.010349879, 0.12458134
53, 994911885, 0.5110543, -0.15980065, -0.78238046, -0.31806985, -0.024001269, -0.014915131, 0.12227726
54, 994928552, 0.5110041, -0.15985192, -0.78241444, -0.3180413, -2.0205571E-4, 0.014923513, 0.12718105
55, 994945219, 0.5109305, -0.15994623, -0.7824327, -0.31806725, -0.042752665, 0.0060282005, 0.12998009
56, 994961886, 0.5109505, -0.15982346, -0.7824993, -0.317933, -0.036908247, -0.0032888255, 0.10291958
57, 994978553, 0.5109155, -0.1598138, -0.78255355, -0.3178604, 0.021441597, 0.0053297784, 0.12702751
58, 994995220, 0.51086986, -0.15985778, -0.782588, -0.31782672, 0.01920468, 0.0071836505, 0.12364006
59, 995011887, 0.5108349, -0.15985022, -0.7826399, -0.3177594, -0.028375864, 0.017546326, 0.11924839
60, 995028554, 0.5107905, -0.1598493, -0.78269815, -0.31768745, -0.0045972145, 0.023034183, 0.10765648
61, 995045221, 0.5107275, -0.15990466, -0.7827374, -0.31766406, 6.9069647E-4, -0.010421245, 0.14715958
62, 995061888, 0.5106423, -0.16000503, -0.78276443, -0.31768388, 0.067734264, -0.051160607, 0.13136292
63, 995078555, 0.51057744, -0.1600885, -0.78278154, -0.31770375, 0.02264678, -0.050590314, 0.12250519
64, 995095222, 0.5105746, -0.16005002, -0.7828144, -0.31764734, -0.0062901014, -0.042106822, 0.11201286
65, 995111889, 0.5105159, -0.1601568, -0.78281194, -0.31769386, 0.029979793, 0.012628091, 0.14035225
66, 995128556, 0.51044196, -0.16027409, -0.78280544, -0.3177693, 0.0013357134, -0.011443584, 0.13233757
67, 995145223, 0.5104198, -0.16028345, -0.7828214, -0.31776103, 0.017829182, -0.018583817, 0.12132549
68, 995161890, 0.5104183, -0.16024327, -0.78284293, -0.3177303, -0.02582871, -3.6991393E-4, 0.1205883
69, 995178557, 0.51041496, -0.16020064, -0.7828683, -0.31769454, -0.04210224, 0.01967674, 0.119395256
70, 995195224, 0.5103884, -0.16022238, -0.78287584, -0.31770796, -0.020288719, 0.028648214, 0.11619091
71, 995211891, 0.510337, -0.1602516, -0.78288835, -0.31774473, -0.004278932, 0.03124605, 0.100325584
72, 995228558, 0.5102879, -0.16029234, -0.7828928, -0.3177924, -0.019907406, 0.012957772, 0.1136322
73, 995245225, 0.51024234, -0.16030896, -0.78291255, -0.31780842, -0.04839726, 0.026622238, 0.11192608
74, 995261892, 0.51018715, -0.16035897, -0.78292805, -0.3178336, 0.010223036, 0.016465921, 0.12245941
75, 995278559, 0.51018417, -0.16028796, -0.78297013, -0.31777033, 0.03691674, -0.0128973685, 0.11755943
76, 995295226, 0.5101371, -0.16035451, -0.78296614, -0.31782255, 0.013903847, -0.047251813, 0.13035393
77, 995311893, 0.5101581, -0.16027912, -0.7829836, -0.3177835, -0.0030728562, -0.05464372, 0.109583855
78, 995328560, 0.5101997, -0.16018264, -0.7829883, -0.31775385, 0.042482078, -0.04765325, 0.1178503
79, 995345227, 0.51021636, -0.16018339, -0.782965, -0.317784, 0.07335024, -0.037776317, 0.13394928
80, 995361894, 0.5102339, -0.16016191, -0.78294307, -0.3178212, 0.100405596, -8.0565247E-4, 0.1327591
81, 995378561, 0.5102184, -0.16026872, -0.78288466, -0.317936, 0.034688316, -0.020710543, 0.12563992
82, 995395228, 0.51028645, -0.16020057, -0.78286296, -0.31791437, 0.014172062, -0.019793693, 0.11534214
83, 995411895, 0.51029634, -0.16027416, -0.78281426, -0.31798127, 0.07312226, 0.042341847, 0.12135601
84, 995428562, 0.5103392, -0.16024825, -0.78278416, -0.31799993, 0.008769307, 0.009459739, 0.13261127
85, 995445229, 0.5104176, -0.16018775, -0.78275555, -0.3179748, -0.011942297, -7.175325E-4, 0.11833
86, 995461896, 0.5105537, -0.15998292, -0.78276217, -0.3178431, -0.032603834, 0.018053643, 0.11047554
87, 995478563, 0.51062715, -0.15993623, -0.78274256, -0.31779715, -0.012808633, 0.06468694, 0.11186218
88, 995495230, 0.5106338, -0.16001944, -0.7827059, -0.31783473, -0.029543495, 0.034638528, 0.106407166
89, 995511897, 0.5107352, -0.15986826, -0.7827246, -0.31770155, -0.0072382437, 0.01783516, 0.11859131
90, 995528564, 0.5107508, -0.15989469, -0.78271294, -0.31769186, 0.029210461, 0.03745686, 0.101145744
91, 995545231, 0.5107722, -0.15991333, -0.7826978, -0.3176856, -0.033699494, 0.01948692, 0.12255573
92, 995561898, 0.51078904, -0.15994568, -0.78268135, -0.3176827, -0.042044576, -0.008665932, 0.12585545
93, 995578565, 0.5108143, -0.1599627, -0.7826655, -0.31767258, 0.038416512, 0.024304017, 0.12409687
94, 995595232, 0.51083297, -0.15997621, -0.7826489, -0.31767678, 0.024446953, -0.013370545, 0.11532402
95, 995611899, 0.5108267, -0.16004056, -0.78262216, -0.31772035, -0.010015769, -0.017959282, 0.12612152
96, 995628566, 0.510856, -0.16002525, -0.78261, -0.317711, -0.02295791, 0.025306808, 0.12519646
97, 995645233, 0.5108761, -0.16001892, -0.7826063, -0.317691, -0.073705636, 0.05298408, 0.103037834
98, 995661900, 0.51083785, -0.16012588, -0.78259254, -0.3177321, -0.09954149, 0.04423081, 0.118335724
99, 995678567, 0.5108649, -0.16004619, -0.78263044, -0.31763545, -0.062830836, 0.047701072, 0.12846565
100, 995695234, 0.5108308, -0.16010217, -0.78263885, -0.31764132, 0.06444325, 0.0010102227, 0.11650562
101, 995711901, 0.5107625, -0.16022593, -0.782621, -0.31773278, 0.11236354, -0.046812218, 0.13117504
102, 995728568, 0.5107169, -0.16034289, -0.7825822, -0.31784275, 0.022311063, -0.028074624, 0.12634563
103, 995745235, 0.51077867, -0.16023923, -0.7825829, -0.3177943, -0.09079186, 0.06555473, 0.1016798
104, 995761902, 0.5108055, -0.16028647, -0.7825523, -0.31780273, -0.16641925, 0.12993188, 0.09156227
105, 995778569, 0.5108758, -0.16021277, -0.7825677, -0.31768894, -0.12800677, 0.10509478, 0.11957264
106, 995795236, 0.51089656, -0.16020079, -0.78258365, -0.31762224, 0.13614398, 0.058174945, 0.1646595
107, 995811903, 0.510932, -0.16026619, -0.7825513, -0.31761178, 0.36514887, -0.11161013, 0.14540291
108, 995828570, 0.510948, -0.16047508, -0.78243303, -0.3177721, 0.439173, -0.2444222, 0.14182949
109, 995845237, 0.51113695, -0.16046779, -0.78227603, -0.31785822, 0.32284725, -0.4055291, 0.1770134
110, 995861904, 0.51140904, -0.16047885, -0.78203577, -0.31800625, 0.30189827, -0.3142367, 0.14658642
111, 995878571, 0.51170534, -0.16053118, -0.7817271, -0.318262, 0.16675363, -0.14858001, 0.16234589
112, 995895238, 0.51207477, -0.16051745, -0.7813952, -0.31848955, -0.015720561, -0.07482688, 0.15274525
113, 995911905, 0.5125112, -0.16037819, -0.781099, -0.31858435, -0.009888359, 0.025941296, 0.086707115
114, 995928572, 0.5129421, -0.16024369, -0.7808096, -0.31866795, -0.055002514, 0.040680923, 0.07550526
115, 995945239, 0.5134166, -0.1600336, -0.7805469, -0.31865293, -0.09175743, 0.042532895, 0.0925293
116, 995961906, 0.51391524, -0.15976034, -0.78032327, -0.31853402, -0.014474699, 0.10687641, 0.09893036
117, 995978573, 0.5143095, -0.15966432, -0.7800748, -0.31855437, -0.014558293, 0.16656186, 0.12095356
118, 995995240, 0.5146822, -0.15958789, -0.77983356, -0.31858116, -0.10905197, 0.11722578, 0.10780811
119, 996011907, 0.51503044, -0.15956728, -0.7795995, -0.3186015, -0.09719774, 0.11079425, 0.118076324
120, 996028574, 0.51538146, -0.15947828, -0.7793911, -0.31858844, -0.03476163, 0.089631714, 0.09649181
121, 996045241, 0.51569605, -0.159445, -0.7791885, -0.3185912, 0.00796466, 0.10158273, 0.08062649
122, 996061908, 0.515921, -0.1596044, -0.7789574, -0.31871253, -0.035846114, 0.05799865, 0.11166954
123, 996078575, 0.51622474, -0.15959257, -0.7787651, -0.31869698, -0.09527821, -0.036541853, 0.13300991
124, 996095242, 0.5166182, -0.15940766, -0.7785999, -0.31855544, 0.025940914, -0.10671347, 0.13889217
125, 996111909, 0.5170021, -0.15924446, -0.77841395, -0.3184689, 0.24662241, -0.071161665, 0.13477325
126, 996128576, 0.5173236, -0.15923399, -0.7781785, -0.31852707, 0.18034723, -0.08676259, 0.14271641
127, 996145243, 0.51781315, -0.15889816, -0.77799815, -0.31833994, -0.09749367, -0.07116272, 0.06010914
128, 996161910, 0.5183873, -0.15837955, -0.7778694, -0.31797826, -0.13561603, 0.016121374, 0.116371155
129, 996178577, 0.5189269, -0.15794845, -0.77774173, -0.31762472, -0.061131686, 0.13143545, 0.06753731
130, 996195244, 0.51934224, -0.15774347, -0.7776111, -0.31736735, -0.14433499, 0.19898552, 0.08675289
131, 996211911, 0.5197622, -0.15739441, -0.77757, -0.31695375, -0.3408975, 0.20316479, 0.025295258
132, 996228578, 0.5202105, -0.15684836, -0.7776566, -0.31627566, -0.24797243, 0.32854438, -4.196167E-4
133, 996245245, 0.5205142, -0.15657392, -0.77773315, -0.31572318, -0.12677342, 0.37274775, 0.1048193
134, 996261912, 0.52070504, -0.15650578, -0.7777746, -0.3153401, -0.023665998, 0.20121793, 0.22184277
135, 996278579, 0.5208669, -0.15648322, -0.7778065, -0.31500486, 0.07445663, -0.07346597, 0.18126678
136, 996295246, 0.52104133, -0.15648076, -0.7777689, -0.31481028, 0.108953625, -0.33324608, 0.18268585
137, 996311913, 0.521308, -0.1563937, -0.7776793, -0.3146336, 0.15499595, -0.35182136, 0.15220165
138, 996328580, 0.52157205, -0.15640374, -0.7775024, -0.3146287, 0.25629425, -0.23357914, 0.1757164
139, 996345247, 0.5218397, -0.15647349, -0.7772669, -0.31473204, 0.18704279, -0.09360561, 0.17834854
140, 996361914, 0.5221774, -0.15650071, -0.77700657, -0.31480086, 0.0028444258, 0.014090033, 0.13711071
141, 996378581, 0.52254826, -0.1564406, -0.7767709, -0.31479722, -0.13691778, 0.07716802, 0.097756386
142, 996395248, 0.5230294, -0.1561881, -0.77658015, -0.31459388, -0.1142102, 0.10827554, 0.12729359
143, 996411915, 0.5234405, -0.15611897, -0.77636236, -0.31448212, 0.09143468, 0.16834308, 0.11842251
144, 996428582, 0.52377087, -0.15623213, -0.7761053, -0.3145099, 0.070535325, 0.018378353, 0.1326046
145, 996445249, 0.52412015, -0.15634736, -0.77583206, -0.31454507, 0.07353666, -0.044428173, 0.09355545
146, 996461916, 0.5245227, -0.15639971, -0.7755497, -0.3145443, 0.025390625, -0.029711578, 0.10216522
147, 996478583, 0.5249433, -0.15642065, -0.775266, -0.3145315, 0.06473338, 0.0523155, 0.088944435
148, 996495250, 0.5253402, -0.15654007, -0.77493906, -0.31461495, 0.116825156, 0.021823717, 0.14756775
149, 996511917, 0.52578443, -0.15657447, -0.77460635, -0.31467518, 0.23109362, -0.09448675, 0.17410088
150, 996528584, 0.5262927, -0.15660459, -0.77423584, -0.3147226, 0.42079085, -0.11986994, 0.16204739
151, 996545251, 0.5267971, -0.15679204, -0.7737709, -0.31492898, 0.32137007, -0.24973522, 0.17471981
152, 996561918, 0.52747864, -0.15685242, -0.7732499, -0.31503755, 0.15944877, -0.25472, 0.1267767
153, 996578585, 0.5283353, -0.15670744, -0.77269816, -0.31502807, 0.06925772, -0.22104464, 0.15119553
154, 996595252, 0.5293273, -0.15642703, -0.77213204, -0.31489012, 0.2272045, -0.052068684, 0.112158775
155, 996611919, 0.5303331, -0.15632488, -0.7714779, -0.3148523, 0.3136164, 0.07195586, 0.089095116
156, 996628586, 0.5313939, -0.15626904, -0.77080566, -0.31473807, 0.08179457, 0.12323906, 0.020567894
157, 996645253, 0.53256464, -0.15611127, -0.7701706, -0.31439123, -0.10539217, 0.28823587, 0.04165268
158, 996661920, 0.53383815, -0.1559077, -0.7695753, -0.31378943, -0.1827348, 0.48285872, 0.07690334
159, 996678587, 0.5351943, -0.1556435, -0.76912534, -0.3127123, -0.15961775, 0.8678977, 0.014634132
160, 996695254, 0.53654045, -0.15558194, -0.7688019, -0.31122822, -0.12282305, 1.3123038, -0.07227421
161, 996711921, 0.53772986, -0.1557649, -0.768685, -0.3093668, -0.49232304, 1.4058708, -0.10970783
162, 996728588, 0.53894734, -0.1556525, -0.76887584, -0.30682042, -0.70153743, 1.147455, -0.12697506
163, 996745255, 0.5401883, -0.15537855, -0.76933277, -0.30361462, -0.24358487, 1.275173, -0.18536186
164, 996761922, 0.54104, -0.15583216, -0.7699261, -0.30034432, 0.07494568, 1.7389653, -0.11189556
165, 996778589, 0.5412931, -0.15718248, -0.77071774, -0.29713625, -0.24100254, 1.8963807, -0.04248047
166, 996795256, 0.5411894, -0.15885618, -0.7718652, -0.2934338, -0.36936948, 2.1642785, -0.33572006
167, 996811923, 0.54045063, -0.16145056, -0.7732267, -0.28977203, -0.40785483, 2.518671, -0.37814617
168, 996828590, 0.5389768, -0.1647491, -0.7748433, -0.28632176, -0.6783529, 1.6521581, -0.5140648
169, 996845257, 0.5375778, -0.16814259, -0.77685314, -0.28149253, 0.18476385, 1.5775857, -0.7263775
170, 996861924, 0.535311, -0.17310338, -0.7789238, -0.2770479, 1.0236657, 1.7088093, -0.58428764
171, 996878591, 0.5325332, -0.17939681, -0.7805665, -0.27375424, 0.5523778, 0.0965885, 0.3577118
172, 996895258, 0.5305694, -0.18531829, -0.7819966, -0.26950932, 0.49184808, -0.20241557, -0.13316345
173, 996911925, 0.5279235, -0.19252901, -0.78333753, -0.26572937, 0.37624517, 1.0903122, -0.4389267
174, 996928592, 0.5246236, -0.20055643, -0.7844116, -0.26314676, -0.6621285, 0.491215, -0.1636591
175, 996945259, 0.5223716, -0.20706792, -0.78528696, -0.25995353, -1.2766168, -0.27264234, -0.36436272
176, 996961926, 0.5212407, -0.21163769, -0.78637236, -0.25521883, -0.72087777, -1.191619, 0.055243492
177, 996978593, 0.5208393, -0.21480802, -0.78784597, -0.2487637, 0.37639603, -0.64223576, -0.18514538
178, 996995260, 0.5196749, -0.2186993, -0.78953904, -0.2423573, 1.0843823, 1.1825675, -0.42289162
179, 997011927, 0.5171079, -0.22444046, -0.7911947, -0.23714401, 0.82426167, 1.9694272, -0.58004665
180, 997028594, 0.5139421, -0.23145166, -0.7925133, -0.23284484, 0.0132426955, 0.9428836, -0.9142027
181, 997045261, 0.51187795, -0.23768531, -0.79328024, -0.22845899, -0.5320867, -1.0920994, -0.32931328
182, 997061928, 0.511365, -0.24215646, -0.79399884, -0.22233416, -0.8007899, -1.7993681, 0.6997576
183, 997078595, 0.51069474, -0.24561374, -0.7953327, -0.21520065, -0.011234208, -0.8205346, -0.046452522
184, 997095262, 0.5090983, -0.2497723, -0.79673594, -0.20891446, -0.11941269, 0.39771202, -0.72757435
185, 997111929, 0.50756323, -0.25430548, -0.79775584, -0.20321, -0.74186563, 0.35862362, -0.17547035
186, 997128596, 0.5067649, -0.25817937, -0.79867315, -0.1966071, -0.6808598, -0.14308707, 0.041604996
187, 997145263, 0.5063077, -0.2613575, -0.7994868, -0.19017376, -0.51936096, -1.518282, 0.35979176
188, 997161930, 0.5064619, -0.26347223, -0.8003537, -0.1830662, -0.46415594, -2.1224258, 0.6410055
189, 997178597, 0.5064279, -0.26478657, -0.80152404, -0.17600788, -0.2735432, -1.5377768, 0.6212568
190, 997195264, 0.50620514, -0.26591456, -0.8027037, -0.16944999, -0.4198816, -0.9285723, 0.6096201
191, 997211931, 0.50621855, -0.26701984, -0.8035798, -0.16341145, -0.25831527, -0.47768217, 0.17924118
192, 997228598, 0.50650084, -0.26833406, -0.80395085, -0.15848511, -0.26599607, -0.9034452, 1.0469599
193, 997245265, 0.5068758, -0.26917902, -0.80442446, -0.1533669, 0.053749055, -1.2082531, 0.9622116
194, 997261932, 0.50676906, -0.26979342, -0.805147, -0.14878015, 0.83241546, -1.156953, 0.37487888
195, 997278599, 0.5066764, -0.2706317, -0.8057623, -0.14417094, 1.0652335, -0.35090974, 0.32333755
196, 997295266, 0.5063154, -0.27187514, -0.8062108, -0.14054692, 0.6700789, 0.32046908, 0.34399128
197, 997311933, 0.50639915, -0.27319032, -0.80625, -0.13743636, 0.04747192, -0.99846804, 0.9495344
198, 997328600, 0.5069769, -0.274158, -0.80613613, -0.13400386, 0.44805652, -1.1129471, 0.6534462
199, 997345267, 0.5070279, -0.27507952, -0.8061758, -0.1316619, 0.19806154, -0.92732364, 0.9090977
200, 997361934, 0.50722873, -0.2753411, -0.8063773, -0.12908253, -0.0018177163, -1.0950874, 0.8322048
201, 997378601, 0.50731266, -0.27550974, -0.8066858, -0.12643865, 0.40209377, -0.7439707, 0.174407
202, 997395268, 0.5072712, -0.27565035, -0.80694747, -0.12461596, 0.09525675, -0.42872265, 0.56052303
203, 997411935, 0.5075505, -0.27557775, -0.8070608, -0.12289482, 0.18075895, -0.6346872, 0.7945385
204, 997428602, 0.5077728, -0.2756716, -0.80709153, -0.12155613, 0.41246367, -0.014016163, 0.3300228
205, 997445269, 0.50775486, -0.2760162, -0.8071004, -0.120788395, -0.18535662, -0.2057619, 0.46436882
206, 997461936, 0.5078419, -0.27604988, -0.80718756, -0.119757526, -0.20346831, -0.7725596, 0.3985138
207, 997478603, 0.5078817, -0.27561358, -0.80744827, -0.1188329, -0.047745943, -1.0345117, 0.49523258
208, 997495270, 0.5077944, -0.274914, -0.8078717, -0.11794432, 0.3333242, -0.91547185, 0.3562765
209, 997511937, 0.5069358, -0.27509898, -0.80836016, -0.117861174, -0.14402996, 0.3754281, 0.24076366
210, 997528604, 0.5049544, -0.2757788, -0.8091782, -0.11915759, -1.8612965, 0.2928525, 0.3403368
211, 997545271, 0.50355476, -0.27491388, -0.8102202, -0.11999492, -1.731902, -0.55387205, 0.84640217
212, 997561938, 0.5026133, -0.27333784, -0.8113408, -0.11997006, -0.50995463, -0.50522184, 0.20813656
213, 997578605, 0.5012832, -0.27180582, -0.81261253, -0.12040684, -0.04476562, -0.7688344, -0.22005844
214, 997595272, 0.50030243, -0.2699444, -0.8138119, -0.1205742, 0.021484066, -0.4821056, -0.04928875
215, 997611939, 0.49920002, -0.2686012, -0.8148703, -0.12099431, 0.21860327, 0.28767616, 0.3243208
216, 997628606, 0.49793968, -0.26755035, -0.8158881, -0.12165519, 0.4515029, 0.33211747, 0.2134552
217, 997645273, 0.4966872, -0.26674896, -0.8168129, -0.122328185, 0.8391667, 0.2595132, -0.0078020096
218, 997661940, 0.49539408, -0.26614538, -0.81767285, -0.123137854, 0.7717889, 0.311648, 0.06393623
219, 997678607, 0.4942702, -0.2655069, -0.81843615, -0.123959176, 0.68043154, 0.37988138, 0.19451714
220, 997695274, 0.4935744, -0.26476657, -0.8190287, -0.12440094, 0.7501403, 0.062302448, -0.052466393
221, 997711941, 0.49325544, -0.26424232, -0.8194113, -0.12426195, 0.92782396, 0.11216472, -0.19457531
222, 997728608, 0.49282086, -0.26442114, -0.81959987, -0.1243605, 0.7524657, 0.51340264, 0.075855255
223, 997745275, 0.49203455, -0.26503077, -0.8197622, -0.12510484, 0.42776042, 0.43874642, 0.23450184
224, 997761942, 0.4911365, -0.2658526, -0.81988794, -0.12606294, 0.17287922, 0.20814767, 0.13861275
225, 997778609, 0.4905044, -0.26633102, -0.81999785, -0.12679702, -0.014428656, -0.11954088, 0.13930988
226, 997795276, 0.49025893, -0.2663004, -0.8201152, -0.12705013, 0.14265491, -0.16956364, 0.099658966
227, 997811943, 0.49001852, -0.26616204, -0.8202622, -0.12731832, 0.32354462, -0.09602709, 0.10257149
228, 997828610, 0.48959273, -0.2661344, -0.8204341, -0.12790623, 0.25256607, -0.0066403463, 0.24611378
229, 997845277, 0.4891288, -0.2660533, -0.8206325, -0.1285747, 0.079291224, -0.049052153, 0.2748747
230, 997861944, 0.48870057, -0.26586398, -0.8208524, -0.12918977, -0.045068704, -0.066085294, 0.22380638
231, 997878611, 0.4883704, -0.26544312, -0.821111, -0.12965958, -0.15082788, -0.060492665, 0.042373657
232, 997895278, 0.48808113, -0.26493746, -0.8213781, -0.1300895, -0.0928589, 0.047779024, -0.045376778
233, 997911945, 0.4877005, -0.26456824, -0.8216438, -0.13059081, -0.107921444, 0.004999985, 0.082219124
234, 997928612, 0.48729068, -0.26423365, -0.82193255, -0.13098001, -0.28823456, -0.025034392, 0.18972969
235, 997945279, 0.4867807, -0.26361224, -0.82236975, -0.13138385, -0.25648558, 0.08364011, 0.1362772
236, 997961946, 0.4861476, -0.26291955, -0.8228793, -0.1319234, -0.1243872, 0.15927209, -0.009628296
237, 997978613, 0.4855208, -0.2622386, -0.823393, -0.13238184, 0.022743337, 0.2266456, -0.056973457
238, 997995280, 0.4849662, -0.26162836, -0.8238676, -0.13266893, 0.25660583, 0.32125628, -0.015507698
239, 998011947, 0.48437893, -0.26119164, -0.82430756, -0.13294205, 0.41730985, 0.449678, 0.025556564
240, 998028614, 0.48369223, -0.2610128, -0.82469827, -0.13336954, 0.3942489, 0.40466517, 0.0131492615
241, 998045281, 0.483065, -0.26088575, -0.82505506, -0.13368426, 0.34572917, 0.34831253, -0.040358543
242, 998061948, 0.48247933, -0.26085737, -0.8253773, -0.13386527, 0.37224877, 0.40385035, -0.06249237
243, 998078615, 0.48193073, -0.26094627, -0.8256538, -0.13396275, 0.30945703, 0.37332118, -0.12484741
244, 998095282, 0.4815267, -0.26117837, -0.82583433, -0.13385029, 0.22057576, 0.30152357, -0.2002039
245, 998111949, 0.48118767, -0.26154494, -0.8259414, -0.13369344, 0.17571293, 0.30079257, -0.057113647
246, 998128616, 0.48083732, -0.26202172, -0.8260141, -0.13357161, 0.18917511, 0.26987076, 0.17154217
247, 998145283, 0.480462, -0.26259112, -0.82607013, -0.13345793, 0.23988752, 0.28320834, 0.13488483
248, 998161950, 0.4800941, -0.26319036, -0.82610726, -0.13337061, 0.24626277, 0.090042755, 0.030691147
249, 998178617, 0.4798276, -0.26381662, -0.82609123, -0.13319242, 0.32287854, 0.020039948, 0.062812805
250, 998195284, 0.47959653, -0.26447254, -0.82604206, -0.13302954, 0.4139393, 0.10522252, 0.19849586
251, 998211951, 0.47934863, -0.26523063, -0.82594895, -0.13299042, 0.4366748, 0.050662227, 0.17835331
252, 998228618, 0.4791674, -0.2660493, -0.8257909, -0.13299021, 0.37238464, -0.0045660846, 0.20290375
253, 998245285, 0.4790849, -0.26676136, -0.825614, -0.13296032, 0.3399518, -0.09816957, 0.16099072
254, 998261952, 0.47903413, -0.26744416, -0.8254142, -0.13301098, 0.3055277, -0.10821268, 0.18314075
255, 998278619, 0.4790901, -0.26801175, -0.82519174, -0.13304754, 0.2480149, -0.064024724, 0.26285934
256, 998295286, 0.47933787, -0.2684645, -0.8249112, -0.1329823, 0.22239584, -0.012027679, 0.2557974
257, 998311953, 0.47962388, -0.26893625, -0.82459754, -0.13294208, 0.23629476, 0.042161696, 0.13716888
258, 998328620, 0.4798764, -0.26948518, -0.8242521, -0.13306098, 0.16936962, 0.09706788, 0.1427517
259, 998345287, 0.4801103, -0.27005553, -0.82390356, -0.13321953, 0.07169536, 0.023495346, 0.12599182
260, 998361954, 0.48033607, -0.27059796, -0.82356536, -0.13339595, -2.346886E-4, -0.021073919, 0.11994934
261, 998378621, 0.48057443, -0.271007, -0.82326955, -0.13353312, -0.13344215, -0.06672633, 0.077264786
262, 998395288, 0.48075864, -0.27135086, -0.8230229, -0.13369182, -0.19305573, -0.08072439, 0.02798748
263, 998411955, 0.48086733, -0.27160308, -0.822846, -0.13387771, -0.2571968, -0.04558245, 0.10920143
264, 998428622, 0.4809461, -0.27174285, -0.8227284, -0.13403402, -0.27244663, -0.041226964, 0.15309048
265, 998445289, 0.48096716, -0.2717728, -0.82268196, -0.1341826, -0.22857642, 0.04349037, 0.1296215
266, 998461956, 0.48090917, -0.27175802, -0.82269675, -0.13432983, -0.18161948, 0.048188277, 0.054327965
267, 998478623, 0.48078936, -0.27168176, -0.82276666, -0.13448521, -0.17378534, 0.051362943, 0.06868172
268, 998495290, 0.48059973, -0.271566, -0.82288647, -0.13466258, -0.08897649, 0.060415216, 0.052490234
269, 998511957, 0.480407, -0.27143148, -0.8230173, -0.13482231, -0.027602823, 0.09161463, 0.06389046
270, 998528624, 0.4802215, -0.27124324, -0.8231708, -0.13492467, 0.01950374, 0.03350068, 0.059365273
271, 998545291, 0.48007604, -0.2710031, -0.82332677, -0.13497406, 0.08429836, 0.04863474, 0.059604645
272, 998561958, 0.47993606, -0.27076936, -0.8234766, -0.13502645, 0.1184498, 0.07433203, 0.11739731
273, 998578625, 0.4797842, -0.2705242, -0.82363504, -0.13509189, 0.14040995, 0.09198017, 0.18041801
274, 998595292, 0.47963884, -0.2703079, -0.82377934, -0.13516155, 0.17394717, 0.08520839, 0.15733528
275, 998611959, 0.47951433, -0.27011657, -0.82390124, -0.13524136, 0.24898627, 0.090340585, 0.0879879
276, 998628626, 0.47942603, -0.27000844, -0.82396936, -0.13535541, 0.26138118, 0.08516917, 0.07977486
277, 998645293, 0.47935572, -0.2699342, -0.8240152, -0.13547376, 0.2663834, 0.09755346, 0.053482056
278, 998661960, 0.47929493, -0.269875, -0.8240484, -0.13560392, 0.23452902, 0.1493518, 0.104094505
279, 998678627, 0.4792513, -0.26984373, -0.8240625, -0.13573425, 0.21683885, 0.123192854, 0.12627316
280, 998695294, 0.47925165, -0.2698272, -0.8240581, -0.13579297, 0.172168, 0.14581907, 0.11672974
281, 998711961, 0.4792252, -0.26986778, -0.8240454, -0.13588344, 0.17660831, 0.13620746, 0.09706783
282, 998728628, 0.47922444, -0.26993263, -0.82401353, -0.13595025, 0.15649393, 0.114406444, 0.08449364
283, 998745295, 0.47927296, -0.27003095, -0.82395, -0.13596909, 0.1482007, 0.1105551, 0.020961761
284, 998761962, 0.47927314, -0.27019927, -0.823884, -0.13603398, 0.1346089, 0.08586887, 0.08994007
285, 998778629, 0.47922862, -0.27037108, -0.8238333, -0.13615674, 0.08073154, 0.09437812, 0.18668175
286, 998795296, 0.47917694, -0.2704822, -0.8238082, -0.13626882, 0.028745042, 0.07847943, 0.10378647
287, 998811963, 0.47921923, -0.27047798, -0.82379067, -0.13623498, 0.012236888, 0.026898779, 0.0013198853
288, 998828630, 0.47929174, -0.27049336, -0.8237578, -0.1361487, 0.091939375, 0.05516579, -0.00730896
289, 998845297, 0.47931165, -0.27055553, -0.8237361, -0.1360866, 0.054088347, 0.07800412, 0.13231087
290, 998861964, 0.47936645, -0.27056465, -0.8237217, -0.13596253, 0.08896665, 0.06443286, 0.1629219
291, 998878631, 0.47940552, -0.2705361, -0.8237242, -0.13586602, 0.11506224, 0.045958176, 0.110630035
292, 998895298, 0.4794186, -0.27051273, -0.82372916, -0.13583666, 0.12634249, 0.060724225, 0.1292324
293, 998911965, 0.47948042, -0.2704426, -0.82373405, -0.13572814, 0.09842348, 0.047660787, 0.100382805
294, 998928632, 0.4796109, -0.27034163, -0.8237275, -0.1355083, 0.13728881, -0.01500353, 0.039488792
295, 998945299, 0.4797443, -0.27024448, -0.8237136, -0.13531409, 0.18087205, 0.0061490647, 0.08068466
296, 998961966, 0.47984964, -0.27019164, -0.823686, -0.13521285, 0.16758017, 0.09075062, 0.23378277
297, 998978633, 0.47994682, -0.27014837, -0.82365996, -0.13511318, 0.17795566, 0.10863814, 0.17597485
298, 998995300, 0.48006186, -0.27013353, -0.8236202, -0.13497652, 0.17657791, 0.14713891, 0.00121212
299, 999011967, 0.4801233, -0.27019948, -0.8235797, -0.13487276, 0.17037857, 0.18597496, -0.015318871
300, 999028634, 0.48010197, -0.27040035, -0.8235243, -0.13488494, 0.10440916, 0.22947964, 0.07953739
301, 999045301, 0.4800688, -0.2706466, -0.82347065, -0.13483708, 0.025390625, 0.17369069, 0.14352322
302, 999061968, 0.48006898, -0.2708988, -0.82340753, -0.13471618, -0.001259719, 0.1231914, 0.13092613
303, 999078635, 0.48006606, -0.27107513, -0.82337254, -0.1345843, -0.033940442, -0.008869106, 0.09951687
304, 999095302, 0.4800802, -0.27117792, -0.82334846, -0.13447395, -0.042330973, -0.073938385, 0.1569252
305, 999111969, 0.4801455, -0.27113137, -0.8233523, -0.13431193, -0.011058527, -0.062833406, 0.17103863
306, 999128636, 0.48018232, -0.27104834, -0.82338125, -0.13416992, 0.0735599, -0.07177314, 0.04983902
307, 999145303, 0.48012936, -0.2710449, -0.82341266, -0.13417308, 0.09826613, -0.061653256, 0.0666914
308, 999161970, 0.48003736, -0.27108106, -0.8234358, -0.1342875, 0.0380352, -0.055470664, 0.18870544
309, 999178637, 0.4800135, -0.27101058, -0.8234621, -0.13435374, 0.038390137, -0.11273189, 0.23534489
310, 999195304, 0.4800645, -0.27086318, -0.8234782, -0.13437003, 0.12993881, -0.17108129, 0.15997314
311, 999211971, 0.48013327, -0.27072874, -0.82346755, -0.13446064, 0.20708185, -0.27847388, 0.14725399
312, 999228638, 0.4802645, -0.2705681, -0.82340777, -0.1346809, 0.19179378, -0.340771, 0.29398823
313, 999245305, 0.4805075, -0.27039745, -0.82328075, -0.13493297, 0.28190213, -0.3536621, 0.3235836
314, 999261972, 0.48085052, -0.27019554, -0.82309353, -0.13525732, 0.28856686, -0.30501437, 0.29544926
315, 999278639, 0.4813121, -0.26989132, -0.8228537, -0.13568239, 0.2177034, -0.34592798, 0.34636116
316, 999295306, 0.4820874, -0.26923522, -0.8225622, -0.13600065, 0.16452253, -0.33156314, 0.5290575
317, 999311973, 0.48329884, -0.26798913, -0.8222906, -0.13580395, 0.40668765, -0.18309186, 0.30310535
318, 999328640, 0.48477954, -0.26641595, -0.8220154, -0.13528673, 0.66192377, 0.23187111, -0.18435001
319, 999345307, 0.4859579, -0.26518065, -0.82174355, -0.13513762, 0.7326022, 0.718418, -0.27271557
320, 999361974, 0.4868097, -0.26441967, -0.8214622, -0.13527386, 0.5234671, 0.7420908, -0.19995499
321, 999378641, 0.4876009, -0.26397067, -0.8211645, -0.13510807, 0.14869376, 0.51877236, -0.3297596
322, 999395308, 0.4884793, -0.26349038, -0.8208985, -0.13448752, -0.2602348, 0.5157108, -0.3628006
323, 999411975, 0.48963365, -0.26266396, -0.82066065, -0.13335347, -0.61646575, 0.76296157, -0.2842703
324, 999428642, 0.49098074, -0.2614753, -0.8205112, -0.13164566, -0.6800842, 1.1140963, -0.60081005
325, 999445309, 0.49198014, -0.26030254, -0.82052016, -0.13017419, -1.0067191, 1.5121343, -0.6638365
326, 999461976, 0.49298194, -0.2589831, -0.82052076, -0.12900756, -1.7159134, 1.0769744, -0.14785576
327, 999478643, 0.49452728, -0.25724673, -0.8205062, -0.1266377, -0.78433156, 0.7540936, 0.03412819
328, 999495310, 0.4949741, -0.2566688, -0.82068294, -0.12490684, 0.2647522, 1.1507174, -0.88460445
329, 999511977, 0.49411285, -0.2572123, -0.8210392, -0.124857515, -1.2367696, -0.030009296, 0.13656807
330, 999528644, 0.49383888, -0.25645608, -0.8216317, -0.12359184, -1.7648096, -0.9161083, 0.5664215
331, 999545311, 0.49362466, -0.25533718, -0.8224307, -0.12143333, -0.368787, -0.06418454, -0.33916855
332, 999561978, 0.49204618, -0.2553949, -0.82343674, -0.12089923, -0.29245016, 0.63921016, 0.042497635
333, 999578645, 0.48961082, -0.25592628, -0.82470095, -0.12104561, -0.68597245, 0.31088272, 0.1488018
334, 999595312, 0.4868996, -0.25661522, -0.82612777, -0.12079239, -0.17025831, 0.24838436, -0.41762733
335, 999611979, 0.48377517, -0.2577162, -0.8276499, -0.12058246, 0.24539822, 0.5746231, -0.36650944
336, 999628646, 0.4801963, -0.25918493, -0.8292641, -0.1206492, 0.123325065, 0.6090033, -0.0328722
337, 999645313, 0.4765188, -0.26080674, -0.83085525, -0.12078753, 0.21807176, 0.028583843, 0.17015266
338, 999661980, 0.47288087, -0.26261914, -0.8323575, -0.12081517, 0.7602433, -0.1947251, 0.22954369
339, 999678647, 0.46884733, -0.2648413, -0.83384055, -0.12145688, 1.1259879, -0.19163118, 0.3728962
340, 999695314, 0.46469775, -0.2673731, -0.83519775, -0.122527465, 1.0865146, -0.23819932, 0.45888996
341, 999711981, 0.46052396, -0.2701663, -0.8363693, -0.124156214, 1.055401, -0.4754094, 0.71922874
342, 999728648, 0.4564086, -0.27293566, -0.8373968, -0.12635091, 1.0991563, -0.48921567, 0.9533844
343, 999745315, 0.4524655, -0.27561748, -0.83826023, -0.12895826, 1.2321509, -0.52577937, 0.8330145
344, 999761982, 0.44886798, -0.27836165, -0.83884686, -0.13179114, 1.4752591, -0.8515848, 0.77634335
345, 999778649, 0.44560072, -0.28121734, -0.8391354, -0.13494115, 1.5215061, -0.58290803, 0.84789944
346, 999795316, 0.44256845, -0.2840437, -0.83917767, -0.13868675, 1.607048, -0.6359345, 1.151289
347, 999811983, 0.44026735, -0.2867338, -0.83887774, -0.14224233, 1.5957421, -0.7985055, 1.2801056
348, 999828650, 0.43853182, -0.28936902, -0.83822936, -0.14603943, 1.4933782, -0.82888246, 1.2769156
349, 999845317, 0.43750677, -0.29183507, -0.8372275, -0.14990276, 1.1788846, -1.1956217, 1.1054068
350, 999861984, 0.4367167, -0.29433408, -0.8359615, -0.15432, 1.1465222, -1.2050918, 0.9604149
351, 999878651, 0.43605357, -0.2968608, -0.83441156, -0.15965113, 0.62309444, -1.7171758, 1.1488323
352, 999895318, 0.43574968, -0.2991486, -0.83262813, -0.16541879, -0.2631749, -1.8703656, 1.327321
353, 999911985, 0.43553123, -0.30063558, -0.8308939, -0.17189158, -1.0296509, -2.1750686, 1.2418594
354, 999928652, 0.43576843, -0.30091834, -0.82925934, -0.1785601, -1.6616391, -2.4745944, 1.0631046
355, 999945319, 0.43645868, -0.2998774, -0.82778406, -0.18534172, -2.0699139, -2.31557, 1.0488892
356, 999961986, 0.4373689, -0.29749146, -0.826575, -0.19230618, -2.2550716, -2.1529906, 0.87381935
357, 999978653, 0.43844962, -0.29365715, -0.82571024, -0.19932547, -2.333217, -1.9767225, 0.7462225
358, 999995320, 0.440129, -0.2881459, -0.82516885, -0.20580415, -1.9102914, -1.838023, 0.33778858
359, 1000011987, 0.44233823, -0.28144598, -0.8247732, -0.2118369, -1.1358714, -1.4837769, 0.04687214
360, 1000028654, 0.44473022, -0.27403766, -0.82440495, -0.2178885, -0.45354602, -0.96559864, -0.061205864
361, 1000045321, 0.44737065, -0.26600698, -0.8240711, -0.22362316, -0.04477702, -0.8707528, -0.14495373
362, 1000061988, 0.45058864, -0.25750872, -0.82366014, -0.22856848, 0.68631107, -0.4653049, -0.46002007
363, 1000078655, 0.45410243, -0.24906634, -0.8230249, -0.23321052, 1.3114825, 0.30836874, -0.30255985
364, 1000095322, 0.45765984, -0.24122123, -0.82205725, -0.23786992, 1.744956, 0.4973213, -0.360672
365, 1000111989, 0.46121076, -0.2344468, -0.8206308, -0.24266253, 1.9678434, 0.9284944, -0.5580578
366, 1000128656, 0.4642047, -0.22901015, -0.81875986, -0.24839695, 1.6146603, 0.7742951, -0.27690315
367, 1000145323, 0.46719357, -0.22425047, -0.8166549, -0.25400165, 1.1562363, 0.7053664, -0.47774315
368, 1000161990, 0.46994263, -0.21996076, -0.8144948, -0.2595571, 0.49669003, 0.6026415, -0.41797543
369, 1000178657, 0.47259554, -0.2155969, -0.81239235, -0.26493526, -0.37677714, 0.025883136, -0.71311283
370, 1000195324, 0.4756387, -0.21045098, -0.81053424, -0.26928276, -1.0113696, 0.13752618, -0.37929058
371, 1000211991, 0.4788878, -0.20447913, -0.8089926, -0.27273843, -1.1205223, 0.38760522, -0.41127777
372, 1000228658, 0.4822393, -0.19792406, -0.80771005, -0.2754567, -1.0064391, 0.58800673, -0.44362068
373, 1000245325, 0.48592687, -0.19094294, -0.80650675, -0.2774226, -0.005146024, 0.6278857, -0.5218067
374, 1000261992, 0.4896363, -0.18437499, -0.8052431, -0.2790099, 1.1385813, 1.7670456, -0.38789654
375, 1000278659, 0.4925454, -0.17929119, -0.8038393, -0.28124118, 1.5926445, 2.2280989, -0.33069134
376, 1000295326, 0.4951459, -0.17554328, -0.80227935, -0.28348452, 1.5208677, 2.024538, -0.43420124
377, 1000311993, 0.49727285, -0.17331901, -0.8004991, -0.28615075, 1.1047888, 1.8438375, -0.36269665
378, 1000328660, 0.49887595, -0.17220813, -0.7985914, -0.28934306, 0.19677365, 1.0256411, -0.12877846
379, 1000345327, 0.5003922, -0.1714667, -0.7967311, -0.2922788, -0.35233644, 0.86362207, -0.17984104
380, 1000361994, 0.5017328, -0.17081225, -0.79501575, -0.29502168, -0.78061676, 0.86473525, -0.1262703
381, 1000378661, 0.5031558, -0.1695618, -0.7936615, -0.29695964, -1.01162, 0.7463612, -0.1355772
382, 1000395328, 0.50452554, -0.16789034, -0.7926264, -0.29834664, -0.8401244, 0.70662266, -0.14647865
383, 1000411995, 0.50583637, -0.16611339, -0.7917455, -0.29945895, -0.4236527, 0.5219397, -0.05914688
384, 1000428662, 0.5068714, -0.16484728, -0.79084903, -0.3007746, 0.020966856, 0.64435065, -0.064478874
385, 1000445329, 0.5076475, -0.16393448, -0.789925, -0.3023882, -0.15589358, 0.1512482, 0.069592476
386, 1000461996, 0.5087143, -0.16253465, -0.7891822, -0.303289, -0.06059481, 0.04019657, -0.09153557
387, 1000478663, 0.50983214, -0.16099602, -0.78851277, -0.30397323, 0.18482912, 0.3414491, 0.075102806
388, 1000495330, 0.5108619, -0.1596094, -0.7879276, -0.3044922, -0.21653578, 0.6731726, -0.043649673
389, 1000511997, 0.51175714, -0.15826246, -0.7875354, -0.30470678, -0.79630584, 1.0940136, -0.24839878
390, 1000528664, 0.5125153, -0.15685023, -0.787418, -0.30446583, -1.1527041, 1.2154317, -0.27872562
391, 1000545331, 0.51303643, -0.15545274, -0.7875886, -0.30386335, -1.0382314, 1.1319455, -0.21450615
392, 1000561998, 0.5131436, -0.1545512, -0.78791016, -0.30330813, -0.53171, 1.0977119, -0.15069199
393, 1000578665, 0.5127662, -0.15430947, -0.7882202, -0.30326343, -0.28769425, 0.4860772, 0.046891212
394, 1000595332, 0.5122788, -0.15419838, -0.78856283, -0.30325297, -0.068965815, -0.012862556, 0.14879513
395, 1000611999, 0.5116645, -0.15431817, -0.7888474, -0.3034893, 0.050500963, -0.1584609, 0.1793127
396, 1000628666, 0.511099, -0.15448043, -0.78905207, -0.30382764, -0.02235353, -0.27986687, 0.18251419
397, 1000645333, 0.510684, -0.15440322, -0.7892806, -0.30397037, 0.12695983, -0.13788219, 0.15678596
398, 1000662000, 0.5102944, -0.15431778, -0.78948736, -0.3041314, 0.08499572, -0.011411342, 0.10873318
399, 1000678667, 0.51004934, -0.15394564, -0.789767, -0.30400488, -0.17094673, -0.054024532, 0.017091751
400, 1000695334, 0.5098357, -0.15348876, -0.7900878, -0.30376053, -0.155274, 0.1058806, 0.0011177063
401, 1000712001, 0.5095689, -0.15312973, -0.79038775, -0.3036093, -0.17026904, 0.0046448787, 0.119651794
402, 1000728668, 0.5093324, -0.15272272, -0.79070765, -0.303378, 0.15952656, -0.05816718, 0.101270676
403, 1000745335, 0.50903606, -0.1525854, -0.7909147, -0.30340487, 0.48243618, -0.033488892, 0.24825573
404, 1000762002, 0.5087177, -0.15265237, -0.7910048, -0.30367032, 0.30444163, -0.14588986, 0.26877403
405, 1000778669, 0.50854784, -0.15247901, -0.7910899, -0.30382007, 0.0017805042, -0.29016453, 0.24130058
406, 1000795336, 0.50853527, -0.15206595, -0.7911838, -0.3038036, 0.07439495, -0.067853056, 0.117025375
407, 1000812003, 0.50841683, -0.15188771, -0.79122555, -0.3039823, 0.1693352, 0.20709933, 0.03834057
408, 1000828670, 0.5081494, -0.15204741, -0.7912086, -0.30439338, 0.031132303, 0.2770361, 0.03567791
409, 1000845337, 0.5079019, -0.15210201, -0.79126465, -0.30463317, -0.23236676, 0.15565151, 0.053297043
410, 1000862004, 0.5077512, -0.15197755, -0.7913907, -0.30461928, -0.11998622, 0.13207062, 0.07962322
411, 1000878671, 0.50756645, -0.15199372, -0.79148763, -0.30466685, 0.0855393, 0.08110296, 0.11262512
412, 1000895338, 0.5073992, -0.15200011, -0.79157037, -0.30472738, 0.080237575, -0.10345197, 0.14811039
413, 1000912005, 0.5073179, -0.1519101, -0.7916532, -0.3046925, 0.19639368, -0.049848028, 0.14528751
414, 1000928672, 0.5072366, -0.15188973, -0.79168135, -0.30476516, 0.22597294, -0.082420014, 0.16849709
415, 1000945339, 0.50716716, -0.15188074, -0.7916837, -0.304879, 0.13939296, -0.097138114, 0.13361645
416, 1000962006, 0.5071951, -0.15175943, -0.7916763, -0.30491206, 0.07439629, -0.05503185, 0.12104607
417, 1000978673, 0.5072445, -0.15168552, -0.7916352, -0.3049732, 0.018148357, -0.011644298, 0.11782932
418, 1000995340, 0.5073209, -0.1516103, -0.7915876, -0.30500716, -0.022120183, -0.010505109, 0.11103058
419, 1001012007, 0.5073807, -0.15156965, -0.79154134, -0.30504808, 0.091660425, 0.099321224, 0.059306145
420, 1001028674, 0.5074057, -0.151574, -0.7915026, -0.3051048, -0.0030415643, 0.09355789, 0.073812485
421, 1001045341, 0.50752586, -0.15138689, -0.7915225, -0.30494627, -0.090467766, -0.012644296, 0.097275734
422, 1001062008, 0.50764424, -0.15117583, -0.79157007, -0.30473027, 0.033032086, 0.06647231, 0.093512535
423, 1001078675, 0.5076708, -0.1511837, -0.79154557, -0.3047455, 0.12526247, 0.03906526, 0.12636757
424, 1001095342, 0.50768924, -0.15123194, -0.79148185, -0.3048566, 0.025454102, -0.105074055, 0.16203785
425, 1001112009, 0.50779176, -0.1511761, -0.79141504, -0.304887, 0.069868974, -0.11760884, 0.16954327
426, 1001128676, 0.50789136, -0.15116258, -0.79131967, -0.30497548, 0.111375615, 3.1185645E-4, 0.1441307
427, 1001145343, 0.5079776, -0.15118021, -0.7912073, -0.30511418, 0.010764384, -0.006504171, 0.13265419
428, 1001162010, 0.5081488, -0.151035, -0.79113644, -0.30508476, -0.04622516, -0.0040639127, 0.09649849
429, 1001178677, 0.5083294, -0.15089098, -0.79107493, -0.30501497, -0.0028328032, 0.06374902, 0.07885456
430, 1001195344, 0.50845313, -0.15087365, -0.790998, -0.3050169, -0.0688621, 0.10851001, 0.07993221
431, 1001212011, 0.50856006, -0.15089923, -0.79091054, -0.30505285, -0.109833375, 0.1012165, 0.16170025
432, 1001228678, 0.50861555, -0.15102051, -0.79082304, -0.30512694, -0.04130609, 0.15919341, 0.120568275
433, 1001245345, 0.5086539, -0.15107457, -0.79076284, -0.30519226, -0.1547796, -0.010749688, 0.14542007
434, 1001262012, 0.5087798, -0.1509238, -0.79076606, -0.3050486, 0.067794606, 0.007060942, 0.1094408
435, 1001278679, 0.50878567, -0.15107358, -0.79068804, -0.30516684, 0.2595325, 0.07145698, 0.097519875
436, 1001295346, 0.5087081, -0.15141612, -0.7905616, -0.30545408, -0.039720487, 0.046495557, 0.091861725
437, 1001312013, 0.5086765, -0.1516751, -0.7904862, -0.30557308, -0.28409615, 0.31173787, 0.060640335
438, 1001328680, 0.50858843, -0.151998, -0.79046005, -0.3056266, -0.4979721, 0.4770223, 0.018286705
439, 1001345347, 0.50854105, -0.15211673, -0.790572, -0.3053567, -0.4657943, 0.33945674, 0.06972885
440, 1001362014, 0.5083883, -0.15240894, -0.7907202, -0.30508134, -0.062061947, 0.4718683, 0.0021715164
441, 1001378681, 0.5080435, -0.15306374, -0.7908487, -0.3049957, -0.1514479, 0.4938684, -0.030771255
442, 1001395348, 0.50768024, -0.15383632, -0.79100806, -0.30479786, -0.32066062, 0.54841363, -0.0020179749
443, 1001412015, 0.5073376, -0.15468195, -0.79123753, -0.30434445, -0.20871371, 0.6392603, 0.01954174
444, 1001428682, 0.50692683, -0.1557458, -0.7915144, -0.30376637, 0.065340884, 0.72680527, 0.058384895
445, 1001445349, 0.5064205, -0.15701252, -0.7918161, -0.30317152, -0.015526551, 0.58909875, -0.008757591
446, 1001462016, 0.5060746, -0.1579028, -0.79225105, -0.30214876, -0.059988644, 0.15195523, 0.06516075
447, 1001478683, 0.50601536, -0.1585002, -0.7927643, -0.30058494, 0.46691543, 0.2341672, -0.013257027
448, 1001495350, 0.5057992, -0.15975234, -0.79309666, -0.2994071, 0.8533957, 0.41645807, -0.11141014
449, 1001512017, 0.5054357, -0.1616144, -0.79328233, -0.29852837, 0.5823831, 0.5167552, -0.13759613
450, 1001528684, 0.5051668, -0.1633438, -0.79358053, -0.29724714, 0.07805788, 0.6121451, -0.1623888
451, 1001545351, 0.50520086, -0.1644933, -0.79416704, -0.29498005, -0.43257087, 0.8051373, -0.33010483
452, 1001562018, 0.50550693, -0.16511673, -0.79509467, -0.29158887, -0.5961629, 1.1511673, -0.47744465
453, 1001578685, 0.505868, -0.16586825, -0.7962646, -0.28731233, -0.3834767, 1.6156968, -0.5823345
454, 1001595352, 0.5058079, -0.16775419, -0.79747045, -0.28294578, 0.279397, 2.0558922, -0.15427685
455, 1001612019, 0.50486386, -0.17114313, -0.7984611, -0.27979097, 0.36654514, 1.3502936, 0.41926384
456, 1001628686, 0.50394005, -0.17460872, -0.7994898, -0.2763566, 0.40518698, -0.6190117, 0.4733143
457, 1001645353, 0.50301385, -0.17819138, -0.8003974, -0.27311042, 1.4124901, -0.72854084, 0.027897835
458, 1001662020, 0.5018446, -0.18258524, -0.80092555, -0.27080175, 1.0062327, -0.35295585, -0.22935581
459, 1001678687, 0.5007319, -0.18685272, -0.80141586, -0.26848966, 0.079182595, 0.11785844, -0.059126854
460, 1001695354, 0.50019664, -0.1902941, -0.8020296, -0.2652179, -0.026037691, 0.42040408, 0.07032871
461, 1001712021, 0.5000114, -0.19353354, -0.8025555, -0.26160753, 0.7244605, 0.5143956, -0.116576195
462, 1001728688, 0.49939978, -0.19785424, -0.8028015, -0.25877345, 0.8666308, 0.7984614, -0.09126854
463, 1001745355, 0.49813887, -0.20291816, -0.80298364, -0.2567096, 0.21514955, 0.34292737, 0.19302464
464, 1001762022, 0.49710974, -0.2077755, -0.8031569, -0.25426528, 0.05108925, -0.6990092, 0.03320217
465, 1001778689, 0.49643382, -0.21219452, -0.8033234, -0.25139403, 0.46249345, -0.68686223, -0.17539787
466, 1001795356, 0.49576014, -0.21674618, -0.8032829, -0.24895824, 0.6886611, 0.027649783, -0.26858044
467, 1001812023, 0.49523902, -0.22145882, -0.8031354, -0.2463095, 0.56664646, 0.62752396, 0.29781055
468, 1001828690, 0.49461043, -0.22627142, -0.8031213, -0.24322502, 0.6654826, 0.802032, 0.35498714
469, 1001845357, 0.49395427, -0.23122698, -0.8032101, -0.2395775, 0.53794783, 0.46573332, -0.26035404
470, 1001862024, 0.493318, -0.23648557, -0.8031088, -0.23606923, 0.4309104, 0.098724104, -0.5745535
471, 1001878691, 0.4929347, -0.2419046, -0.8026067, -0.23306872, 0.04304189, -0.21327583, -0.09471893
472, 1001895358, 0.49314243, -0.246725, -0.80213994, -0.22914921, -0.07221346, 0.008290654, 0.23598576
473, 1001912025, 0.49311742, -0.2515312, -0.8018657, -0.22489837, 0.7360172, 0.59080875, -0.42667484
474, 1001928692, 0.4923696, -0.25753623, -0.8015143, -0.22095871, 0.88535535, 1.294246, -0.6293316
475, 1001945359, 0.49078795, -0.26474196, -0.80109876, -0.2174405, 0.50527763, 1.4171506, -0.70406055
476, 1001962026, 0.48907387, -0.27233157, -0.8005801, -0.21380904, -0.5528698, 0.67974895, -0.9400549
477, 1001978693, 0.48804292, -0.27941903, -0.7998089, -0.20986992, -1.3955821, -0.41933286, -0.46045494
478, 1001995360, 0.48835528, -0.28521538, -0.79889107, -0.20478049, -1.75153, -0.8194495, 0.48561573
479, 1002012027, 0.4889238, -0.289952, -0.798373, -0.19870122, -1.2900542, -0.5002563, 0.39786053
480, 1002028694, 0.4886008, -0.29428002, -0.79837644, -0.19303899, -1.206784, -0.43673772, -0.48046494
481, 1002045361, 0.48841423, -0.29788637, -0.79852885, -0.18726265, -2.17752, -0.5114825, -0.27035046
482, 1002062028, 0.48924518, -0.29992688, -0.79878014, -0.18064865, -2.8586757, -1.0136594, 0.7608061
483, 1002078695, 0.49075082, -0.3004324, -0.7993579, -0.17300726, -2.3973432, -1.6731054, 0.6812458
484, 1002095362, 0.49185988, -0.30025694, -0.80018246, -0.16621734, -1.7174255, -1.689682, 0.74335575
485, 1002112029, 0.49248004, -0.2995037, -0.8012921, -0.16028886, -1.5862732, -1.683958, 0.95751953
486, 1002128696, 0.49296167, -0.29792354, -0.8026866, -0.15467815, -0.7742035, -1.5068501, 0.68351746
487, 1002145363, 0.493513, -0.29596195, -0.8040892, -0.14930704, -0.31778356, -1.2186122, 0.9963589
488, 1002162030, 0.49423927, -0.2933745, -0.8055575, -0.14400297, 0.074033305, -1.0854034, 0.9654293
489, 1002178697, 0.49515995, -0.29038844, -0.80695647, -0.13897097, 0.5136462, -1.3418362, 0.76626587
490, 1002195364, 0.49637848, -0.28734913, -0.80811155, -0.13414566, 1.117253, -0.76903087, 0.6585808
491, 1002212031, 0.4974566, -0.284932, -0.8089619, -0.13012233, 1.7887639, -0.31291455, 0.6225586
492, 1002228698, 0.49821645, -0.28333777, -0.8095647, -0.12690835, 1.7069912, -0.05063999, 0.3623848
493, 1002245365, 0.49862915, -0.28227893, -0.8100224, -0.12470671, 0.48968133, -0.3801894, 0.45020866
494, 1002262032, 0.4998415, -0.28057283, -0.8102735, -0.12204376, 0.25174174, -0.7331854, 0.76405525
495, 1002278699, 0.5014471, -0.27879006, -0.8103085, -0.11928032, 0.95154613, -0.39952543, 0.6828861
496, 1002295366, 0.50216126, -0.2780159, -0.8103393, -0.11786427, 0.5596881, -0.47607645, 0.2738533
497, 1002312033, 0.50259644, -0.2773339, -0.8104469, -0.116872326, -0.41433623, -0.5351354, 0.4556713
498, 1002328700, 0.5035157, -0.27556878, -0.8106983, -0.11533724, -0.5760242, -0.48920783, 0.63626385
499, 1002345367, 0.5045968, -0.27360797, -0.8109427, -0.11354804, 0.28119227, -0.47836444, 0.29274464
500, 1002362034, 0.50513226, -0.27255347, -0.8110861, -0.11267508, 0.6575606, 0.031722523, 0.20441341
501, 1002378701, 0.50519156, -0.2720811, -0.81118876, -0.1128119, 0.2537869, 0.17540827, 0.5894718
502, 1002395368, 0.5052846, -0.27165744, -0.81121194, -0.11324858, 0.21377942, -0.18869668, 0.31438446
503, 1002412035, 0.505536, -0.27106473, -0.81122786, -0.113433294, 0.6607, -0.5256066, 0.3285122
504, 1002428702, 0.5056941, -0.2703333, -0.81138474, -0.11335257, 0.84139174, -0.112419754, 0.37841702
505, 1002445369, 0.5052983, -0.26970106, -0.81178373, -0.1137648, 0.26947033, 0.12985544, 0.49993038
506, 1002462036, 0.504733, -0.26893923, -0.81232494, -0.114214085, -0.2247995, -0.013641443, 0.0020961761
507, 1002478703, 0.5041548, -0.26840445, -0.81280774, -0.11459054, -0.374867, 0.007891349, -0.4798622
508, 1002495370, 0.50363845, -0.2680075, -0.8131805, -0.11514443, -0.6368845, 0.0014513814, 0.041502
509, 1002512037, 0.50324035, -0.26741558, -0.8135652, -0.11554231, -0.31637588, 0.31008366, 0.21800423
510, 1002528704, 0.5026421, -0.26684526, -0.8140617, -0.11596749, 0.039905556, 0.5982102, 0.09987545
511, 1002545371, 0.50171345, -0.26656908, -0.81466043, -0.11641885, -0.08740519, 0.9117133, -0.34212017
512, 1002562038, 0.5006196, -0.26651555, -0.81526494, -0.11701787, -0.25302246, 0.81612515, -0.3922062
513, 1002578705, 0.49965397, -0.26649514, -0.8158125, -0.11737487, -0.32183003, 0.5088799, -0.2150507
514, 1002595372, 0.498718, -0.26650316, -0.81637365, -0.11743532, -0.087975144, 0.3086761, -0.18092918
515, 1002612039, 0.49759296, -0.26667938, -0.8169845, -0.1175593, -0.020948527, 0.2954315, -0.18353939
516, 1002628706, 0.49635115, -0.2669346, -0.8176254, -0.11777408, -0.04134185, 0.1827424, 0.0134449005
517, 1002645373, 0.49512863, -0.2671159, -0.8182989, -0.11783214, -0.13160622, 0.020451883, 0.22645092
518, 1002662040, 0.4938575, -0.2671515, -0.81903726, -0.11795444, -0.12718335, -0.077012174, 0.21282387
519, 1002678707, 0.49275398, -0.26693013, -0.8197686, -0.11799097, -0.112306766, -0.4056815, 0.21542549
520, 1002695374, 0.4918155, -0.26647356, -0.8205099, -0.117786154, 0.119996056, -0.42390898, 0.14031506
521, 1002712041, 0.49071136, -0.26625314, -0.8212448, -0.11776717, 0.24637565, -0.32167974, 0.21989727
522, 1002728708, 0.4894291, -0.26616898, -0.82198834, -0.11810526, 0.02521852, -0.16762097, 0.4011984
523, 1002745375, 0.48816806, -0.26587686, -0.8227692, -0.11854427, -0.0954901, -0.27713013, 0.38667583
524, 1002762042, 0.48704907, -0.2653309, -0.8235663, -0.118834764, 0.019989658, -0.34284273, 0.18805885
525, 1002778709, 0.48605242, -0.26462594, -0.8243493, -0.119057655, 0.23354243, -0.1506664, 0.18035984
526, 1002795376, 0.48509476, -0.2638823, -0.8251107, -0.11934046, 0.4559128, 0.0630824, 0.19562054
527, 1002812043, 0.48412487, -0.2633057, -0.8258024, -0.11976768, 0.65661156, 0.17413078, 0.17759323
528, 1002828710, 0.4832557, -0.2629866, -0.82635343, -0.12017755, 0.79003245, 0.22410157, 0.053357124
529, 1002845377, 0.48243034, -0.26290208, -0.82679206, -0.12065948, 0.7037307, 0.36704504, 0.028928757
530, 1002862044, 0.48162192, -0.26299497, -0.82713753, -0.12131726, 0.6172784, 0.37754455, 0.10415554
531, 1002878711, 0.48094404, -0.26313952, -0.82738864, -0.12197883, 0.48157117, 0.30086353, 0.15919495
532, 1002895378, 0.48041648, -0.2632934, -0.8275748, -0.122461826, 0.45457616, 0.19396946, 0.022683144
533, 1002912045, 0.48006302, -0.26348972, -0.82766867, -0.122791335, 0.36826554, 0.14129964, -0.06184292
534, 1002928712, 0.4798474, -0.26369384, -0.8276844, -0.12309052, 0.23840518, 0.20038384, 0.10371113
535, 1002945379, 0.4797324, -0.2639279, -0.82763654, -0.12335731, 0.17652963, 0.19465207, 0.14946747
536, 1002962046, 0.47974056, -0.26417953, -0.8275372, -0.12345338, 0.16572726, 0.17709357, 0.031674385
537, 1002978713, 0.47973898, -0.26447168, -0.82743, -0.123551816, 0.19017689, 0.2214535, -0.03190899
538, 1002995380, 0.4796958, -0.26483008, -0.82731134, -0.12374744, 0.17499456, 0.19447024, 0.012260437
539, 1003012047, 0.47973043, -0.26521364, -0.827159, -0.12381024, 0.10121874, 0.2489703, -0.014541626
540, 1003028714, 0.47980496, -0.26561525, -0.826997, -0.12374204, 0.19380316, 0.31324133, 0.054883003
541, 1003045381, 0.4797761, -0.26616177, -0.82683843, -0.12373952, 0.21880399, 0.3374764, -0.008659363
542, 1003062048, 0.47968364, -0.26678866, -0.8266907, -0.12373614, 0.09609984, 0.26225144, -0.01537323
543, 1003078715, 0.47969207, -0.26732695, -0.8265353, -0.12357916, 0.17064051, 0.19204144, 0.023733139
544, 1003095382, 0.47980598, -0.26790205, -0.826327, -0.12328326, 0.36047924, 0.17308296, 0.04817009
545, 1003112049, 0.47992507, -0.2686041, -0.82607186, -0.12300254, 0.4179281, 0.24777976, 0.06668091
546, 1003128716, 0.48001876, -0.26938838, -0.8257904, -0.12281203, 0.36406416, 0.23504153, 0.10538769
547, 1003145383, 0.4801677, -0.27024537, -0.82545626, -0.122592404, 0.28536448, 0.1744944, 0.09594917
548, 1003162050, 0.48039737, -0.27112138, -0.8250757, -0.122319594, 0.1768819, 0.08458345, 0.121655464
549, 1003178717, 0.48068744, -0.27189022, -0.8247, -0.122008346, 0.09658442, -0.016979162, 0.14645958
550, 1003195384, 0.48099494, -0.27259058, -0.8243303, -0.12173159, 0.099545516, -0.050721012, 0.1480999
551, 1003212051, 0.48129654, -0.27329218, -0.8239482, -0.121552415, 0.06667972, -0.07070609, 0.16349697
552, 1003228718, 0.4815787, -0.27402315, -0.8235531, -0.12146735, 0.011790308, -0.12866613, 0.11868191
553, 1003245385, 0.48182437, -0.27477607, -0.823155, -0.12149005, -0.07797607, -0.118592285, 0.14529419
554, 1003262052, 0.48197502, -0.27553713, -0.82279414, -0.1216134, -0.17974241, -0.1368419, 0.13728333
555, 1003278719, 0.48208037, -0.27618825, -0.82248896, -0.12178325, -0.27869025, -0.12909852, 0.22280025
556, 1003295386, 0.48213312, -0.27664778, -0.8222748, -0.12197693, -0.33948714, -0.099167444, 0.21131802
557, 1003312053, 0.482209, -0.27687073, -0.82213444, -0.122116335, -0.3363861, -0.1906893, 0.16945553
558, 1003328720, 0.48235607, -0.27686065, -0.82205176, -0.122114964, -0.24468276, -0.20797992, 0.06103134
559, 1003345387, 0.4824881, -0.27673754, -0.8220159, -0.12211426, -0.09870556, -0.13083622, 0.062190056
560, 1003362054, 0.48255378, -0.27659598, -0.822016, -0.12217474, -0.057134382, -0.01893557, 0.123511314
561, 1003378721, 0.4825283, -0.27642697, -0.82206565, -0.12232384, -0.10808997, -0.0016200219, 0.13964844
562, 1003395388, 0.48249564, -0.2761789, -0.8221426, -0.12249553, -0.109727874, -0.04327859, 0.1534605
563, 1003412055, 0.48247787, -0.27585822, -0.82224774, -0.122582406, -0.042528704, 0.034479108, 0.13268661
564, 1003428722, 0.48236993, -0.27551603, -0.82240593, -0.12271601, 0.0018266573, 0.11306053, 0.12576008
565, 1003445389, 0.48223913, -0.2751571, -0.82257754, -0.12288609, 0.019184563, 0.019456131, 0.052386284
566, 1003462056, 0.4821573, -0.27479932, -0.82272804, -0.12299955, 0.080291666, 0.056229267, 0.037067413
567, 1003478723, 0.48212802, -0.27445352, -0.822846, -0.12309722, 0.13122445, 0.06323204, 0.110523224
568, 1003495390, 0.4821065, -0.27410126, -0.82296723, -0.123155, 0.16772233, 0.10635506, 0.14283371
569, 1003512057, 0.48203185, -0.27380103, -0.82309526, -0.12325957, 0.20098911, 0.20508207, 0.16843796
570, 1003528724, 0.48193017, -0.27351996, -0.8232322, -0.12336656, 0.21228725, 0.15068796, 0.029245377
571, 1003545391, 0.481889, -0.27329436, -0.8233245, -0.12341156, 0.23838373, 0.13113125, -0.012060165
572, 1003562058, 0.4818711, -0.2731558, -0.823378, -0.123431124, 0.2330583, 0.19581144, 0.11703491
573, 1003578725, 0.48189366, -0.27306768, -0.82339793, -0.123404905, 0.2743474, 0.22139718, 0.12401104
574, 1003595392, 0.48191085, -0.27308974, -0.8233852, -0.12337448, 0.29424295, 0.14568865, 0.0014677048
575, 1003612059, 0.48188257, -0.27321532, -0.8233508, -0.12343612, 0.3052369, 0.07097665, -0.015677452
576, 1003628726, 0.4818936, -0.27334735, -0.8232935, -0.12348308, 0.19381076, 0.06103636, 0.1516819
577, 1003645393, 0.48199123, -0.27342469, -0.82322097, -0.123414494, 0.16443312, 0.15129144, 0.24482155
578, 1003662060, 0.4821458, -0.27348652, -0.82313424, -0.12325189, 0.1777156, 0.12386082, 0.09034634
579, 1003678727, 0.48224092, -0.2736557, -0.8230368, -0.12315467, 0.19354032, 0.12501729, -0.018208504
580, 1003695394, 0.482245, -0.27399278, -0.82291156, -0.12322544, 0.08627466, 0.105034664, 0.114183426
581, 1003712061, 0.4822157, -0.27431932, -0.82279867, -0.123368785, -0.026892902, 0.053281642, 0.21922302
582, 1003728728, 0.48226973, -0.27452365, -0.8226971, -0.12338068, 0.012551147, -0.036305096, 0.13832092
583, 1003745395, 0.48232725, -0.27470842, -0.8226027, -0.12337302, 0.015012024, -0.044608045, 0.038238525
584, 1003762062, 0.48236674, -0.2748687, -0.8225232, -0.1233921, -0.03650324, -0.020297546, 0.10168266
585, 1003778729, 0.48244205, -0.27489427, -0.82247823, -0.12334014, -0.08615128, -0.0045022215, 0.12976646
586, 1003795396, 0.4825254, -0.27479494, -0.82248175, -0.12321176, -0.051787503, -0.029070877, 0.08145332
587, 1003812063, 0.4825771, -0.27465308, -0.8225195, -0.123073205, -0.013272646, 0.007231985, 0.051282883
588, 1003828730, 0.4825626, -0.27452844, -0.8225744, -0.12304185, -0.020149246, 0.054216083, 0.12654114
589, 1003845397, 0.48250467, -0.27441725, -0.8226454, -0.123042054, -0.029944925, 0.034468602, 0.14003658
590, 1003862064, 0.48242226, -0.2743104, -0.82272875, -0.123045996, 0.06835876, 0.027271152, 0.11316395
591, 1003878731, 0.48217088, -0.2743096, -0.8228483, -0.12323357, 0.21597208, 0.05527755, 0.004462242
592, 1003895398, 0.48159763, -0.27464184, -0.8229837, -0.1238303, 0.22058448, 0.05128907, -0.0024328232
593, 1003912065, 0.48080075, -0.27526304, -0.82310134, -0.12476177, -0.0016124224, -0.015985312, 0.21559525
594, 1003928732, 0.48008066, -0.27585158, -0.8231991, -0.12558758, -0.21969938, -0.20222357, 0.34101295
595, 1003945399, 0.47962466, -0.27610388, -0.82329303, -0.12615903, -0.15974158, -0.51090235, 0.34389496
596, 1003962066, 0.47929814, -0.2760859, -0.8234002, -0.12673841, 0.10004932, -0.41984248, 0.16959476
597, 1003978733, 0.4788817, -0.27606314, -0.823544, -0.12742509, 0.1642695, 0.0017574824, 0.031101227
598, 1003995400, 0.4784378, -0.2760774, -0.8236997, -0.12805437, 0.08411866, 0.3325886, 0.0753088
599, 1004012067, 0.47801277, -0.27618593, -0.8238201, -0.12863162, 0.14702983, 0.43961632, 0.1397934
600, 1004028734, 0.4775035, -0.27649832, -0.8239096, -0.12927742, 0.23469085, 0.31034842, 0.012699127
601, 1004045401, 0.47697568, -0.2769451, -0.82395124, -0.13000272, 0.18963599, 0.07734711, 0.030636787
602, 1004062068, 0.47646907, -0.27746803, -0.8239372, -0.1308311, 0.11061835, -0.04753953, 0.09135723
603, 1004078735, 0.4759733, -0.27794462, -0.8239222, -0.13171566, -0.038882315, -0.115337044, 0.19405556
604, 1004095402, 0.47546634, -0.27824053, -0.82396543, -0.13264884, -0.09053705, -0.16019654, 0.14578724
605, 1004112069, 0.47511676, -0.2781863, -0.8240672, -0.13337986, -0.1130457, -0.1942636, 0.16423225
606, 1004128736, 0.47493458, -0.27782008, -0.82420886, -0.13391629, -0.057201434, -0.10912361, 0.15102768
607, 1004145403, 0.47492668, -0.2772716, -0.82434815, -0.13422318, 0.05997121, 0.012310535, 0.13502026
608, 1004162070, 0.47494525, -0.27680957, -0.824471, -0.13435547, 0.29972664, 0.14180154, -0.05439186
609, 1004178737, 0.47494477, -0.27643958, -0.8245767, -0.13447067, 0.3174141, 0.23032351, -0.13423443
610, 1004195404, 0.4750556, -0.27581328, -0.82474685, -0.1343212, 0.22440208, 0.54468477, -0.13594246
611, 1004212071, 0.4754024, -0.27487695, -0.8249838, -0.1335579, 0.17608708, 0.97462916, -0.37643528
612, 1004228738, 0.47589576, -0.2737886, -0.8252697, -0.13226338, -0.15221277, 1.0669107, -0.63788795
613, 1004245405, 0.4767183, -0.2723354, -0.825597, -0.13024312, -0.30585536, 0.93993723, -0.6344719
614, 1004262072, 0.4779981, -0.27039042, -0.8259215, -0.1275189, -0.2738253, 1.1831408, -0.66769886
615, 1004278739, 0.47948122, -0.2683059, -0.826195, -0.12454652, 0.007921746, 1.532433, -0.819087
616, 1004295406, 0.48081663, -0.26706815, -0.82626367, -0.12156763, 0.074254565, 1.7569546, -0.7134695
617, 1004312073, 0.4819617, -0.26683813, -0.82608867, -0.11869403, 0.037201945, 1.4310719, -0.20760536
618, 1004328740, 0.48269495, -0.26755655, -0.8257455, -0.116464876, -0.29984978, 0.7440782, -0.08502579
619, 1004345407, 0.48282462, -0.2687279, -0.82549804, -0.11497516, -0.6153216, -0.5273482, 0.39318657
620, 1004362074, 0.4822973, -0.26969662, -0.82566684, -0.11370101, -0.9966814, -1.0267922, 0.5648937
621, 1004378741, 0.48108798, -0.27063364, -0.8261933, -0.112770274, -1.2244936, -0.90526456, 0.16105938
622, 1004395408, 0.47971842, -0.27144825, -0.8268313, -0.11196604, -1.1107883, -0.947572, 0.6986389
623, 1004412075, 0.4778259, -0.2720459, -0.8277968, -0.11147487, -0.57304364, -0.5815057, 0.4036064
624, 1004428742, 0.47515193, -0.27299193, -0.82897645, -0.11182439, -0.27534875, -0.57194597, 0.19885635
625, 1004445409, 0.47238424, -0.2738208, -0.83022326, -0.11227317, -0.2855852, -0.48863697, 0.43083382
626, 1004462076, 0.46961957, -0.27445585, -0.8315414, -0.11256504, 0.30053732, -0.36726686, 0.26271343
627, 1004478743, 0.46682563, -0.27508357, -0.83283186, -0.11311198, 0.53550684, -0.38413706, 0.549489
628, 1004495410, 0.4641075, -0.27564204, -0.8340502, -0.113958426, 0.914845, -0.38444048, 0.5448017
629, 1004512077, 0.4614269, -0.2764644, -0.8350834, -0.115277186, 1.0597131, -0.41497573, 0.70727825
630, 1004528744, 0.45917508, -0.2772042, -0.8358963, -0.11659387, 1.3736501, -0.66557354, 0.7481966
631, 1004545411, 0.45723236, -0.27803537, -0.8364841, -0.11802467, 1.7260164, -0.43639526, 0.6139631
632, 1004562078, 0.45535657, -0.27911705, -0.836854, -0.12008296, 1.5898288, -0.40282342, 0.82972336
633, 1004578745, 0.45380774, -0.28039184, -0.83692664, -0.12244731, 1.4821376, -0.260223, 0.8470917
634, 1004595412, 0.45218056, -0.2821535, -0.83672744, -0.12573813, 1.6032989, -0.3421543, 0.7914696
635, 1004612079, 0.45014936, -0.28443322, -0.8363314, -0.13043644, 1.0659313, -0.45095414, 1.2303638
636, 1004628746, 0.4480473, -0.28659904, -0.83586764, -0.13579528, 0.32516867, -1.186958, 1.0494652
637, 1004645413, 0.44669965, -0.2880097, -0.8353036, -0.14063537, 0.05386662, -1.5147153, 0.8496313
638, 1004662080, 0.44641563, -0.28840843, -0.8346112, -0.14477026, 0.11123949, -1.1764858, 0.7494173
639, 1004678747, 0.4465162, -0.28842703, -0.8337943, -0.14906672, 0.45389715, -1.0203717, 0.66585636
640, 1004695414, 0.4466756, -0.28861165, -0.8327537, -0.1539667, 0.7094545, -0.8047546, 0.8114681
641, 1004712081, 0.44644713, -0.28911394, -0.83157945, -0.15991907, 0.56582123, -0.8163965, 0.88412285
642, 1004728748, 0.44604412, -0.2895859, -0.8303085, -0.16665277, 0.15276305, -1.1377887, 0.8676977
643, 1004745415, 0.4460718, -0.2895426, -0.82895577, -0.17325684, -0.18162484, -1.1790614, 0.705081
644, 1004762082, 0.4464776, -0.28905633, -0.8275044, -0.17983644, -0.35850182, -0.89519966, 0.56641674
645, 1004778749, 0.44708502, -0.28799775, -0.8260728, -0.18648459, -0.7265311, -1.0234652, 0.4560356
646, 1004795416, 0.44816878, -0.28609547, -0.82470804, -0.19274718, -0.98593867, -1.1610012, 0.31946278
647, 1004812083, 0.44976962, -0.2832603, -0.8234013, -0.19870082, -1.1328573, -1.0337199, 0.4047432
648, 1004828750, 0.45171186, -0.2796157, -0.8222068, -0.20432326, -1.140334, -0.9647397, 0.3454647
649, 1004845417, 0.45361054, -0.275497, -0.8211602, -0.20984583, -0.638933, -0.8521504, -0.11466503
650, 1004862084, 0.45530728, -0.27123353, -0.82008815, -0.21583158, -0.5708382, -0.7589636, -0.127841
651, 1004878751, 0.45716, -0.26654032, -0.8190081, -0.22178227, -0.82737166, -0.88943213, 0.13225842
652, 1004895418, 0.45966205, -0.26087046, -0.818058, -0.2268016, -0.6417099, -0.90502745, 0.08425903
653, 1004912085, 0.4626056, -0.254436, -0.81720304, -0.23116636, 9.4993E-5, -0.58504987, -0.11254883
654, 1004928752, 0.46566716, -0.24780123, -0.81627125, -0.2354793, 0.49224347, 0.06945341, -0.25805473
655, 1004945419, 0.4685588, -0.24161935, -0.81512743, -0.24008505, 0.7835381, 0.15278943, -0.2952652
656, 1004962086, 0.4715901, -0.23587433, -0.81373, -0.24456139, 1.0834211, 0.24926092, -0.37722874
657, 1004978753, 0.47451168, -0.23074278, -0.81203806, -0.24938205, 1.228022, 0.30605736, -0.16543102
658, 1004995420, 0.47741985, -0.22609165, -0.81008315, -0.2543981, 1.1214457, -0.16490987, -0.235713
659, 1005012087, 0.48055682, -0.22153904, -0.8079968, -0.2590894, 0.99096143, 0.07622568, -0.13205338
660, 1005028754, 0.48360798, -0.21712545, -0.8058815, -0.26369584, 0.6848741, 0.5705114, -0.23497105
661, 1005045421, 0.48654926, -0.21286666, -0.80368644, -0.26841408, 0.14605431, 0.5036419, -0.18513775
662, 1005062088, 0.48969394, -0.20856419, -0.8014023, -0.27286562, -0.13026446, -0.043429796, -0.3942232
663, 1005078755, 0.49310708, -0.203892, -0.7991311, -0.27688125, -0.11040512, -0.21258955, -0.19241238
664, 1005095422, 0.49661875, -0.19885767, -0.7969576, -0.28050745, 0.2230514, -0.08262531, -0.3478899
665, 1005112089, 0.5002597, -0.19369216, -0.7948719, -0.28355387, 0.329902, 0.8665118, -0.40459538
666, 1005128756, 0.50362724, -0.18899818, -0.7928102, -0.28651685, 0.06893989, 1.3514423, -0.3143282
667, 1005145423, 0.5070422, -0.18438135, -0.7907627, -0.2891481, 0.17220645, 0.809771, -0.39594936
668, 1005162090, 0.5106118, -0.17987607, -0.78872985, -0.2912488, 0.46142322, 0.7247746, -0.49084187
669, 1005178757, 0.51371485, -0.17627709, -0.78658074, -0.29379383, 0.72429174, 1.1859667, -0.06850147
670, 1005195424, 0.51618826, -0.17402047, -0.78429997, -0.29688486, 0.09725808, 1.4245635, -0.19599152
671, 1005212091, 0.5181503, -0.17254138, -0.7820744, -0.30018285, -0.636809, 1.3184258, -0.27060318
672, 1005228758, 0.5201491, -0.17063074, -0.78013504, -0.302853, -0.95606303, 0.87897927, -0.329257
673, 1005245425, 0.5222567, -0.16826808, -0.7785173, -0.30470473, -0.54226345, 0.9736599, -0.20874119
674, 1005262092, 0.5238629, -0.16669425, -0.77692175, -0.3068773, -0.19716302, 1.2375357, -0.10870075
675, 1005278759, 0.5249171, -0.16601703, -0.77531576, -0.3094936, -0.5301812, 1.075159, -0.13184547
676, 1005295426, 0.5257556, -0.16534519, -0.77394843, -0.31184357, -0.933644, 0.88781285, -0.13759995
677, 1005312093, 0.52661747, -0.16428506, -0.772911, -0.31351793, -0.9198285, 0.85785824, -0.17909431
678, 1005328760, 0.52749825, -0.16296588, -0.77218217, -0.31452012, -0.7828872, 1.0678153, -0.12042713
679, 1005345427, 0.52823186, -0.16172783, -0.7717058, -0.3150964, -0.7683021, 1.2197512, -0.09474468
680, 1005362094, 0.5287146, -0.16071296, -0.7714519, -0.31542763, -0.82932293, 1.2490946, -0.13290882
681, 1005378761, 0.5290879, -0.15958223, -0.7715088, -0.31523657, -0.9887125, 1.0101665, -0.100029945
682, 1005395428, 0.52934873, -0.15834379, -0.7718421, -0.31460664, -0.74145013, 0.8833975, -0.087488174
683, 1005412095, 0.52939546, -0.15737428, -0.77226925, -0.31396553, -0.3726399, 0.6197865, 0.010825157
684, 1005428762, 0.52917075, -0.15688942, -0.772677, -0.31358328, -0.0034546163, 0.47389674, 0.075175285
685, 1005445429, 0.52862316, -0.15697259, -0.7730087, -0.31364834, 0.043054406, 0.14483713, 0.11840534
686, 1005462096, 0.52806306, -0.15698078, -0.77337176, -0.3136928, -0.050019387, -0.19190028, 0.061579704
687, 1005478763, 0.52757174, -0.15697223, -0.7737208, -0.31366307, 0.21328366, -0.07025616, 0.121562004
688, 1005495430, 0.52698904, -0.15732019, -0.773949, -0.31390485, 0.13672377, 0.059249148, 0.20636368
689, 1005512097, 0.52639824, -0.15771843, -0.77413446, -0.31423908, -0.10550169, -0.059479535, 0.15894222
690, 1005528764, 0.52597886, -0.15779096, -0.77440274, -0.31424367, -0.113251336, -0.009322166, 0.036729813
691, 1005545431, 0.5256259, -0.15772606, -0.774716, -0.31409475, -0.059042737, 0.09148743, 0.070863724
692, 1005562098, 0.5253796, -0.15751258, -0.7750567, -0.31377333, -0.09227464, 0.011938665, 0.14454842
693, 1005578765, 0.5251943, -0.15719359, -0.77542144, -0.31334206, 0.033847462, -0.08324908, 0.14845753
694, 1005595432, 0.52498597, -0.1569932, -0.77575016, -0.31297764, 0.20584694, -0.04718783, 0.12358284
695, 1005612099, 0.5247082, -0.15701938, -0.77598786, -0.31284106, 0.16924624, -0.044645876, 0.15508938
696, 1005628766, 0.5244254, -0.1571657, -0.7761554, -0.31282574, -0.014220788, -0.05504353, 0.15581417
697, 1005645433, 0.5242056, -0.15715316, -0.7763113, -0.31281373, -0.061746348, -0.18162143, 0.21644783
698, 1005662100, 0.52403325, -0.15711872, -0.7764468, -0.31278354, 0.24324468, -0.01688998, 0.09553528
699, 1005678767, 0.5236853, -0.15749349, -0.7764655, -0.31313127, 0.26067778, 0.08058553, 0.10704708
700, 1005695434, 0.52327853, -0.15797532, -0.7764548, -0.31359458, -0.11827635, -0.030964702, 0.13215923
701, 1005712101, 0.523038, -0.15806897, -0.7765356, -0.3137486, -0.2704699, -0.10532389, 0.16005898
702, 1005728768, 0.522822, -0.15817592, -0.7766124, -0.31386462, 0.016669149, 0.043987293, 0.051477432
703, 1005745435, 0.5225327, -0.15845817, -0.7766409, -0.31413338, 0.007809117, 0.0654579, 0.12106991
704, 1005762102, 0.52229136, -0.15861703, -0.7767064, -0.3142928, -0.09627552, -0.040335707, 0.15296173
705, 1005778769, 0.5221826, -0.15856056, -0.7768122, -0.3142405, 0.003797932, -0.018375726, 0.1361742
706, 1005795436, 0.5220652, -0.15857081, -0.77689123, -0.3142352, 0.08616514, -0.06353635, 0.15289783
707, 1005812103, 0.52193654, -0.15863457, -0.77692825, -0.31432533, 0.09833632, -0.11579748, 0.14635944
708, 1005828770, 0.52181834, -0.15871896, -0.7769281, -0.31447873, 0.0794593, -0.097034514, 0.15651798
709, 1005845437, 0.52172726, -0.15881453, -0.77688533, -0.31468767, -0.0020929754, -0.051560473, 0.14084435
710, 1005862104, 0.52166915, -0.1588528, -0.77685386, -0.31484246, -0.058566205, 0.035415348, 0.12506485
711, 1005878771, 0.521596, -0.1589239, -0.7768329, -0.31497958, -0.0977592, 0.1518641, 0.10491371
712, 1005895438, 0.5215514, -0.15889925, -0.7768512, -0.3150204, -0.13482971, 0.086993925, 0.102835655
713, 1005912105, 0.52149904, -0.15885511, -0.7769044, -0.31499812, 0.016708935, 0.13414197, 0.074718475
714, 1005928772, 0.52140164, -0.1589703, -0.7769203, -0.31506196, 0.047957387, 0.09142479, 0.14097309
715, 1005945439, 0.5212962, -0.15912665, -0.7769282, -0.31513768, -0.057167016, -0.04797253, 0.122172356
716, 1005962106, 0.52131534, -0.15905613, -0.77697563, -0.31502488, -0.02688548, -0.1593102, 0.13410091
717, 1005978773, 0.5213665, -0.15897506, -0.7770179, -0.31487703, 0.20160198, -0.005286081, 0.084114075
718, 1005995440, 0.5213304, -0.15909538, -0.7770081, -0.3148999, 0.057736527, 0.056041237, 0.15476799
719, 1006012107, 0.5213413, -0.15911624, -0.7770119, -0.31486204, -0.1850352, -0.06454395, 0.14254856
720, 1006028774, 0.5214553, -0.15891169, -0.77707803, -0.31461358, -0.019345758, -0.024444172, 0.08570099
721, 1006045441, 0.52146775, -0.1589751, -0.7770913, -0.314528, 0.1692896, 0.1559788, 0.10731602
722, 1006062108, 0.5214036, -0.15920627, -0.77707833, -0.31454954, -0.06271371, 0.15898812, 0.1145277
723, 1006078775, 0.52141845, -0.15929438, -0.7771304, -0.3143516, -0.25666216, 0.19307591, 0.052352905
724, 1006095442, 0.52150774, -0.15917426, -0.7772488, -0.31397104, -0.3274845, 0.1552621, 0.12591839
725, 1006112109, 0.5216428, -0.15897508, -0.7774113, -0.31344497, -0.14273672, 0.16909683, 0.06083393
726, 1006128776, 0.52163696, -0.15910076, -0.7775261, -0.31310606, 0.16001427, 0.3419423, 0.06705952
727, 1006145443, 0.5214092, -0.15965046, -0.77760416, -0.31301183, -0.009772881, 0.49089816, 0.033402443
728, 1006162110, 0.52106774, -0.16042958, -0.77774423, -0.31283408, -0.35674635, 0.8014728, -0.037503242
729, 1006178777, 0.52053756, -0.16152821, -0.77798885, -0.3125425, -0.6964503, 1.0930885, -0.10638523
730, 1006195444, 0.51992744, -0.16261518, -0.77841216, -0.31194004, -0.983221, 0.8997497, -0.021141052
731, 1006212111, 0.51938313, -0.16347988, -0.7791075, -0.3106568, -0.48341873, 1.1242163, -0.113093376
732, 1006228778, 0.5184567, -0.16502954, -0.7799009, -0.30939126, 0.10067426, 1.5919719, -0.25301838
733, 1006245445, 0.5169996, -0.1673554, -0.7807809, -0.30835944, -0.3635228, 1.4575347, -0.28105354
734, 1006262112, 0.51555127, -0.16932133, -0.78214836, -0.30623806, -1.0786967, 1.5585029, -0.5555334
735, 1006278779, 0.5140864, -0.17107652, -0.7839726, -0.30304325, -1.3199643, 1.9588244, -0.558588
736, 1006295446, 0.51245594, -0.17298442, -0.7860152, -0.2994093, -1.2735912, 1.5657822, -0.12189293
737, 1006312113, 0.51118076, -0.17433307, -0.7882302, -0.29495066, 0.06139409, 0.16419855, 0.27852058
738, 1006328780, 0.51002264, -0.17625397, -0.7902077, -0.2904888, 2.340828, -0.40084898, -0.10717678
739, 1006345447, 0.5080768, -0.17994279, -0.7915542, -0.28795984, 2.5900903, -0.59471995, -0.113022804
740, 1006362114, 0.5063371, -0.18367885, -0.79273784, -0.28539863, 1.1725619, -0.15802416, 0.114302635
741, 1006378781, 0.5051309, -0.18707094, -0.7939729, -0.2818773, 0.14908716, 0.7828494, 0.12102413
742, 1006395448, 0.50392336, -0.19051212, -0.7951972, -0.27825922, -0.28432503, 0.39828742, 0.040867805
743, 1006412115, 0.5031692, -0.19368006, -0.79635864, -0.27408433, 0.3652273, -0.13250782, -0.454278
744, 1006428782, 0.5024619, -0.19725989, -0.7972749, -0.2701365, 1.1527643, 0.40426648, -0.20330048
745, 1006445449, 0.5012814, -0.20174006, -0.79805344, -0.26670054, 1.0015504, 1.0205891, 0.09505558
746, 1006462116, 0.4996436, -0.20680878, -0.79887825, -0.26340196, 0.31698743, 0.87287253, 0.1610384
747, 1006478783, 0.49804696, -0.21162845, -0.7997391, -0.2599625, -0.4134556, -0.35312554, -0.057148933
748, 1006495450, 0.49750647, -0.21508299, -0.80060065, -0.25547156, 0.0070690443, -1.1100711, -0.32442093
749, 1006512117, 0.49722087, -0.21864611, -0.80119824, -0.25109214, 1.2103564, -0.1952489, -0.21571732
750, 1006528784, 0.49557948, -0.22400793, -0.8015574, -0.24845058, 0.87380135, 0.79046714, 0.22232437
751, 1006545451, 0.49314132, -0.22992109, -0.8021828, -0.24586827, -0.7524863, 0.6003767, 0.39039993
752, 1006562118, 0.49117592, -0.23472965, -0.80311716, -0.24218057, -1.0928841, -0.21416564, -0.15141392
753, 1006578785, 0.489992, -0.23859292, -0.80394775, -0.23801222, -0.6580452, -1.0199164, -0.77223873
754, 1006595452, 0.48902246, -0.24219035, -0.80460685, -0.23411423, -0.41467866, -0.8306373, 0.054450035
755, 1006612119, 0.48737782, -0.24584338, -0.805424, -0.23090437, -0.74498963, -0.6400659, 0.6569805
756, 1006628786, 0.4854323, -0.24893203, -0.8065692, -0.22767271, -1.6230977, -0.8537523, 0.5874977
757, 1006645453, 0.48424143, -0.25034842, -0.8080312, -0.2234322, -1.8503927, -1.09883, -0.06376457
758, 1006662120, 0.48403847, -0.2505157, -0.80944026, -0.21853073, -0.9319071, -0.9891741, -0.15038109
759, 1006678787, 0.48412886, -0.2505244, -0.81067413, -0.21369313, 0.40757206, -0.44143808, 0.39594364
760, 1006695454, 0.48364842, -0.251288, -0.8117807, -0.20964582, 1.1328624, -0.011834675, 0.57011986
761, 1006712121, 0.48299557, -0.25252503, -0.8127715, -0.20579001, 1.2097667, -0.13109247, 0.20290852
762, 1006728788, 0.4829247, -0.253654, -0.8135719, -0.2013573, 1.3634514, 0.3528238, -0.11256695
763, 1006745455, 0.48344055, -0.25495255, -0.8139979, -0.19670437, 1.5461957, 0.7028141, -0.23309231
764, 1006762122, 0.48452327, -0.25701123, -0.8138402, -0.19195585, 2.1631765, 0.7647494, -0.02094841
765, 1006778789, 0.48541206, -0.26042473, -0.8132873, -0.18739921, 2.6378121, 1.0600919, -0.16007137
766, 1006795456, 0.4851535, -0.2656134, -0.81246877, -0.18431133, 1.7733415, 0.72289646, -0.40254784
767, 1006812123, 0.4848707, -0.2711927, -0.81145185, -0.18138722, -0.13677317, -0.063594244, -0.19111443
768, 1006828790, 0.48598683, -0.27550352, -0.8102759, -0.17711015, -1.1415359, -0.87746304, 0.1376257
769, 1006845457, 0.48804948, -0.27873105, -0.8090327, -0.17199852, -1.1225277, -1.103239, 0.5919552
770, 1006862124, 0.48962203, -0.28164873, -0.8081479, -0.16685899, -0.52732474, -0.23557651, 0.0061063766
771, 1006878791, 0.49026552, -0.2849161, -0.8074404, -0.1627987, -0.52751964, 0.34383008, -0.15463638
772, 1006895458, 0.491043, -0.28806558, -0.8067037, -0.15850838, -1.1716306, 0.12672648, 0.16890335
773, 1006912125, 0.49217582, -0.29055396, -0.80605465, -0.15368104, -1.2483145, -0.3443987, 0.22464943
774, 1006928792, 0.49331045, -0.2925936, -0.80549794, -0.14902158, -1.3727857, -0.9335726, 0.3288288
775, 1006945459, 0.49461243, -0.29390788, -0.8049743, -0.14489117, -1.4797783, -1.7731733, 0.89986706
776, 1006962126, 0.49617478, -0.29424074, -0.8047082, -0.14027925, -0.97626793, -1.3572525, 0.9582634
777, 1006978793, 0.49672234, -0.29440117, -0.80499333, -0.13631319, -0.30933142, -0.6498299, 0.26708794
778, 1006995460, 0.4966512, -0.2947422, -0.8054592, -0.13304444, -1.0087692, -0.5406908, 0.286767
779, 1007012127, 0.4969513, -0.2944633, -0.80590606, -0.12979513, -1.8318865, -0.9374183, 0.69454
780, 1007028794, 0.49811363, -0.29288304, -0.8063253, -0.12626342, -1.2498894, -1.3306528, 1.0815392
781, 1007045461, 0.49933785, -0.29096693, -0.80679464, -0.12281293, 0.06891977, -0.8934252, 0.7593565
782, 1007062128, 0.4994477, -0.28954452, -0.80758095, -0.12053839, 0.39109537, -0.6343347, 0.3443451
783, 1007078795, 0.49903727, -0.2880618, -0.8086321, -0.11873041, -0.29533795, -0.69707364, 0.5763941
784, 1007095462, 0.49887815, -0.28617528, -0.80966496, -0.11690842, -0.78878146, -1.138094, 0.7797785
785, 1007112129, 0.49880016, -0.2841087, -0.8105835, -0.115912855, -1.2177864, -1.7797818, 1.1188545
786, 1007128796, 0.49906272, -0.2808633, -0.8116889, -0.11495124, -0.99258083, -1.1016394, 1.2086906
787, 1007145463, 0.49929976, -0.2766795, -0.8130821, -0.11421909, 0.24616621, -0.9080113, 0.36356258
788, 1007162130, 0.4995817, -0.27276728, -0.8143501, -0.11335972, 1.3770356, -0.680299, 0.4845457
789, 1007178797, 0.49952868, -0.2694837, -0.81554157, -0.1128812, 2.1896336, -0.34901938, 0.70504665
790, 1007195464, 0.49901477, -0.26723838, -0.8165326, -0.11332741, 1.918227, 0.30922535, 0.69489
791, 1007212131, 0.49844643, -0.26572832, -0.8172465, -0.114229426, 1.1649756, 0.41827935, -0.09515858
792, 1007228798, 0.49803343, -0.26468942, -0.8176931, -0.115241654, 0.7834784, 0.30285034, -0.37670135
793, 1007245465, 0.49796987, -0.2636906, -0.81795454, -0.115948595, 0.6565778, 0.6503919, 0.059269905
794, 1007262132, 0.49778312, -0.26312032, -0.81810975, -0.116947204, 0.6774237, 0.9369705, 0.0176754
795, 1007278799, 0.4976618, -0.26277974, -0.8181197, -0.118153304, 0.56246185, 0.64578706, -0.13382149
796, 1007295466, 0.49801943, -0.26237828, -0.8179637, -0.11861835, 0.5519058, 0.53317314, -0.4775629
797, 1007312133, 0.49824014, -0.262548, -0.8176827, -0.11925094, 0.5663644, 0.88761634, -0.31663322
798, 1007328800, 0.4982238, -0.26322842, -0.8173324, -0.12021778, 0.3964458, 0.6646171, -0.03525257
799, 1007345467, 0.49810734, -0.2641097, -0.81700045, -0.121019244, 0.28283867, 0.5068906, -0.12394047
800, 1007362134, 0.4978357, -0.2649905, -0.8167505, -0.12189675, -0.05884828, 0.4115162, -0.026410103
801, 1007378801, 0.4977465, -0.26553133, -0.81652886, -0.122567594, -0.37586653, 0.13500418, 0.14837074
802, 1007395468, 0.49801713, -0.2657245, -0.8162786, -0.12271634, -0.29995796, -0.07058964, 0.009192467
803, 1007412135, 0.49826732, -0.26587227, -0.81607395, -0.12274153, 4.291449E-4, 0.0136811165, -0.1454668
804, 1007428802, 0.49820298, -0.26625478, -0.8159383, -0.123074725, 0.030305227, 0.1569973, -0.029359818
805, 1007445469, 0.4979046, -0.26684767, -0.81584394, -0.12362285, -0.10660942, 0.058153152, 0.15229702
806, 1007462136, 0.49757975, -0.26749593, -0.81575733, -0.124099694, -0.22410661, -0.031178717, 0.19759274
807, 1007478803, 0.49717787, -0.2680712, -0.81574935, -0.12452162, -0.2874017, -4.995814E-5, 0.09388924
808, 1007495470, 0.49674228, -0.26845652, -0.8158295, -0.12490365, -0.41018248, 0.011057074, -0.008024216
809, 1007512137, 0.49635386, -0.26862845, -0.8159759, -0.12512185, -0.4566754, -0.06561983, -0.013521194
810, 1007528804, 0.49601504, -0.2686165, -0.81617975, -0.12516218, -0.32306385, 0.09082617, 0.105688095
811, 1007545471, 0.49556723, -0.2685239, -0.8164783, -0.1251868, -0.07246469, 0.17043892, 0.08239746
812, 1007562138, 0.4950584, -0.26845068, -0.81681174, -0.12518181, 0.08837836, 0.25400347, -1.5735626E-4
813, 1007578805, 0.49450657, -0.26848474, -0.8171301, -0.12521304, 0.19122249, 0.2978301, -0.02026844
814, 1007595472, 0.49399704, -0.26859087, -0.81741136, -0.12516, 0.17069282, 0.13998884, -0.03907776
815, 1007612139, 0.49352014, -0.26872626, -0.8176776, -0.12501176, 0.2800644, 0.087623894, 0.025148392
816, 1007628806, 0.49301073, -0.26890892, -0.817934, -0.12495222, 0.32381976, 0.10911322, 0.18509483
817, 1007645473, 0.49250463, -0.26907277, -0.81818885, -0.12492724, 0.31656185, 0.043634422, 0.2559023
818, 1007662140, 0.4920326, -0.26935068, -0.8183823, -0.124921165, 0.28295487, 0.033350144, 0.18973923
819, 1007678807, 0.49170154, -0.26958376, -0.818514, -0.1248583, 0.13312566, -0.086420275, 0.1368208
820, 1007695474, 0.49153373, -0.26967916, -0.8186087, -0.12469228, 0.15357172, -0.07335248, 0.0206604
821, 1007712141, 0.49134615, -0.26984018, -0.81867605, -0.1246411, 0.11016194, 0.05257047, 0.10896778
822, 1007728808, 0.49114868, -0.2699686, -0.8187483, -0.12466635, 0.05633644, 0.093110695, 0.20119572
823, 1007745475, 0.49104035, -0.27004182, -0.8187958, -0.12462277, 0.13399065, 0.08742352, 0.17904091
824, 1007762142, 0.4909164, -0.27016145, -0.81882524, -0.12465845, 0.20209867, 0.083985895, 0.073838234
825, 1007778809, 0.49079916, -0.2703107, -0.81883, -0.12476457, 0.2562415, 0.10120566, 0.08800316
826, 1007795476, 0.49075738, -0.2704375, -0.8188078, -0.12480097, 0.2652312, 0.12939355, 0.14221
827, 1007812143, 0.49081102, -0.27062246, -0.81872797, -0.12471214, 0.25032735, 0.18827043, 0.009778023
828, 1007828810, 0.4908747, -0.27089417, -0.818608, -0.1246594, 0.2840054, 0.18672384, -0.085873604
829, 1007845477, 0.49086928, -0.27135724, -0.8184461, -0.124735184, 0.20163283, 0.22384141, 0.044032097
830, 1007862144, 0.4907818, -0.27195722, -0.8182775, -0.12488017, 0.10468318, 0.22681826, 0.118187904
831, 1007878811, 0.49068305, -0.2725638, -0.8181147, -0.12501265, 0.0073584937, 0.100355975, 0.14214325
832, 1007895478, 0.49066618, -0.27309373, -0.81793785, -0.12507899, -0.060812064, 0.010448895, 0.1001091
833, 1007912145, 0.49064144, -0.27356178, -0.8177898, -0.12512107, -0.0636176, -0.0055741896, 0.1009016
834, 1007928812, 0.49055314, -0.2739767, -0.81768924, -0.1252158, -0.112750664, -0.072582036, 0.10383415
835, 1007945479, 0.49044785, -0.27427897, -0.8176343, -0.12532642, -0.1266335, -0.10866183, 0.113298416
836, 1007962146, 0.49037927, -0.27444723, -0.8176043, -0.1254216, -0.11058661, -0.1984234, 0.13446999
837, 1007978813, 0.49038795, -0.2744905, -0.8175761, -0.12547658, -0.09688079, -0.16734314, 0.20640278
838, 1007995480, 0.49045587, -0.27443832, -0.8175529, -0.12547679, 0.010561882, -0.07104907, 0.23595619
839, 1008012147, 0.49047318, -0.27440956, -0.8175389, -0.12556314, 0.06839094, -0.03903531, 0.13284397
840, 1008028814, 0.49049872, -0.27438432, -0.8175038, -0.12574682, 0.07888175, -0.048734095, 0.117676735
841, 1008045481, 0.49057898, -0.27434078, -0.81744075, -0.12593883, 0.08639447, -0.04375635, 0.14125633
842, 1008062148, 0.49072784, -0.2741965, -0.81738037, -0.1260651, 0.08912487, -0.006843483, 0.17965317
843, 1008078815, 0.49089321, -0.27398762, -0.81734395, -0.12611136, 0.16675632, 0.0839404, 0.031806946
844, 1008095482, 0.49097103, -0.27386224, -0.81731814, -0.12624818, 0.17308441, 0.11850824, 0.0040073395
845, 1008112149, 0.49106693, -0.27382094, -0.8172557, -0.1263687, 0.07951965, 0.097721204, 0.1520338
846, 1008128816, 0.49121976, -0.27381736, -0.8171602, -0.12639952, 0.08422728, 0.1505277, 0.18469334
847, 1008145483, 0.49140424, -0.27376008, -0.8170769, -0.12634465, 0.12112524, 0.16627409, 0.043045998
848, 1008162150, 0.49149683, -0.27382243, -0.8169914, -0.12640314, 0.12252399, 0.18350224, -0.054592133
849, 1008178817, 0.49154258, -0.27397516, -0.8168974, -0.12650184, 0.027726782, 0.12160513, 0.054483414
850, 1008195484, 0.49163952, -0.27407858, -0.8168161, -0.12642686, 0.015552479, 0.13772388, 0.07426071
851, 1008212151, 0.49173847, -0.27416655, -0.8167507, -0.1262733, 0.05651704, 0.13034359, 0.05789566
852, 1008228818, 0.49181467, -0.27428502, -0.81669044, -0.12610902, 0.05196989, 0.1302002, 0.065937996
853, 1008245485, 0.491881, -0.2744398, -0.81662816, -0.1259169, 0.023563629, 0.11329011, 0.020378113
854, 1008262152, 0.4919366, -0.27457017, -0.8165879, -0.12567575, 0.045221142, 0.058084983, -0.044053078
855, 1008278819, 0.49198848, -0.2747226, -0.8165478, -0.12539923, 0.031211795, 0.06336067, 0.023014069
856, 1008295486, 0.49202788, -0.27487832, -0.81651366, -0.12512621, 0.012587355, 0.06547656, 0.16414738
857, 1008312153, 0.4921107, -0.27496412, -0.8164911, -0.124758415, 0.14805812, -0.054553814, 0.13978958
858, 1008328820, 0.492162, -0.27511546, -0.8164535, -0.124468304, 0.3557193, -0.12623498, 0.055954933
859, 1008345487, 0.49205327, -0.27545533, -0.8163975, -0.12451256, 0.41431862, -0.028337106, 0.16821194
860, 1008362154, 0.49174193, -0.27606583, -0.8163143, -0.124936245, 0.20894527, -0.038772345, 0.29623795
861, 1008378821, 0.49143302, -0.27678588, -0.8161887, -0.12537922, 0.03843216, -0.18791717, 0.23808098
862, 1008395488, 0.49128497, -0.27740747, -0.8160182, -0.12569445, 0.066612676, -0.24183029, 0.05102253
863, 1008412155, 0.4911709, -0.2779952, -0.81584656, -0.12595466, 0.06454518, -0.26570886, -0.012158394
864, 1008428822, 0.49107933, -0.2783971, -0.8157543, -0.12602156, -0.071386464, -0.11717823, 0.1269741
865, 1008445489, 0.49099812, -0.2784773, -0.81577057, -0.12605594, -0.051017728, -0.033517554, 0.20020676
866, 1008462156, 0.49084234, -0.27844727, -0.81582534, -0.12637357, -0.050833106, -0.03790344, 0.14679146
867, 1008478823, 0.4906162, -0.27844995, -0.8158965, -0.1267853, -0.16365619, -0.0763309, 0.20851898
868, 1008495490, 0.4904598, -0.27842352, -0.81595236, -0.12708962, -0.22773959, -0.04603182, 0.28638172
869, 1008512157, 0.49050766, -0.27817807, -0.8159833, -0.12724386, -0.16696596, -0.115519986, 0.2415514
870, 1008528824, 0.4907934, -0.27767935, -0.8159971, -0.12714276, 0.056943055, 0.0026877434, 0.14938068
871, 1008545491, 0.49112147, -0.27705345, -0.81606495, -0.12680566, 0.24547847, 0.46995118, -0.051454544
872, 1008562158, 0.4914272, -0.27640215, -0.8161749, -0.12633349, 0.23638506, 0.68544686, -0.13125515
873, 1008578825, 0.49165517, -0.27599692, -0.8162427, -0.12589423, 0.1515543, 0.66104525, -0.15245914
874, 1008595492, 0.4918832, -0.27574828, -0.8162714, -0.1253617, -0.073364995, 0.26299405, -0.19273472
875, 1008612159, 0.49229425, -0.27527747, -0.816304, -0.12456671, -0.28915915, 0.14386155, -0.14579296
876, 1008628826, 0.49290794, -0.27432406, -0.81641203, -0.12353085, -0.7761262, 0.271474, -0.10523224
877, 1008645493, 0.49413508, -0.27250344, -0.8165419, -0.12178746, -0.8644956, 0.3521128, -0.18867874
878, 1008662160, 0.4959062, -0.27023405, -0.816563, -0.11948219, -0.15676484, 0.9199759, -0.18642044
879, 1008678827, 0.49766025, -0.2683713, -0.8164032, -0.11746277, 0.6583574, 1.0084776, -0.21364021
880, 1008695494, 0.49888673, -0.26789048, -0.81599337, -0.11619879, 1.1509176, 0.9120624, -0.30517387
881, 1008712161, 0.49925137, -0.26875335, -0.81547433, -0.116282605, 0.33654258, 0.6095195, -0.12876987
882, 1008728828, 0.49967352, -0.26925954, -0.8150268, -0.11643568, -0.5894694, -0.21979605, 0.6233263
883, 1008745495, 0.5005817, -0.26887256, -0.81473863, -0.11544266, -0.52203286, -0.5234273, 0.5741472
884, 1008762162, 0.5009569, -0.26886585, -0.8146103, -0.11473386, 0.061558597, -0.3549237, -0.21347141
885, 1008778829, 0.50061065, -0.2695022, -0.81459254, -0.11487758, -0.16696373, -0.23806913, 0.14748287
886, 1008795496, 0.4997387, -0.27022722, -0.8148355, -0.11524803, -0.35931674, 0.32944748, 0.33787632
887, 1008812163, 0.4983182, -0.27115354, -0.81529254, -0.11598845, -0.47714025, -0.10910763, 0.071261406
888, 1008828830, 0.49693263, -0.27195206, -0.815828, -0.11629802, -0.45642284, -0.4597524, 0.06387043
889, 1008845497, 0.49530232, -0.27263454, -0.8165529, -0.116567336, -0.33072585, 0.19704589, 0.022974014
890, 1008862164, 0.49322146, -0.273471, -0.8174551, -0.11710632, -0.3724495, 0.34464782, -0.01570797
891, 1008878831, 0.49070203, -0.27470535, -0.81843877, -0.11792847, -0.46148542, 0.16734359, -0.09746075
892, 1008895498, 0.48792422, -0.27602223, -0.81950134, -0.11899515, -0.3427656, -0.15368214, 0.14988232
893, 1008912165, 0.48519036, -0.27713916, -0.8205846, -0.12010664, -0.017406294, -0.22357486, 0.44473362
894, 1008928832, 0.48241618, -0.27821344, -0.82167935, -0.121307515, 0.19556478, -0.5739804, 0.21229553
895, 1008945499, 0.47969627, -0.27922758, -0.8227175, -0.12271953, 0.5007593, -0.34129366, 0.34430313
896, 1008962166, 0.47701976, -0.28031322, -0.8236454, -0.12444016, 0.5122575, -0.30678025, 0.61470985
897, 1008978833, 0.4743739, -0.28141505, -0.8244996, -0.12639499, 0.8221479, -0.2127679, 0.57239723
898, 1008995500, 0.47150612, -0.2827845, -0.82526875, -0.12902293, 0.79609054, -0.3337785, 0.6720667
899, 1009012167, 0.46850678, -0.28416893, -0.8259841, -0.13228837, 0.41415855, -0.56463856, 0.766489
900, 1009028834, 0.4657928, -0.28535983, -0.82654357, -0.13576835, 0.50927514, -0.61652875, 0.7317991
901, 1009045501, 0.46324775, -0.28661928, -0.82690114, -0.1395912, 0.5046455, -0.78781855, 0.797369
902, 1009062168, 0.46101353, -0.28750116, -0.8271754, -0.14349584, 0.5080521, -1.0303322, 0.75098324
903, 1009078835, 0.4593604, -0.28782314, -0.82733166, -0.14720277, 0.5731679, -1.119098, 0.79930973
904, 1009095502, 0.4581625, -0.28778258, -0.8273316, -0.1509686, 0.5990623, -1.0706035, 0.9190788
905, 1009112169, 0.45737037, -0.28745204, -0.8271446, -0.15497057, 0.59691954, -1.0179873, 1.1136761
906, 1009128836, 0.45686367, -0.2868342, -0.8268377, -0.15918988, 0.5478553, -0.90630335, 1.0566158
907, 1009145503, 0.45661142, -0.2861028, -0.82633877, -0.16375546, 0.77165437, -0.9137276, 0.64238167
908, 1009162170, 0.45651257, -0.2855028, -0.8255624, -0.16891389, 0.81516314, -0.84799576, 0.47509193
909, 1009178837, 0.45660013, -0.284957, -0.8245474, -0.17446588, 0.61866957, -0.6169398, 0.48610497
910, 1009195504, 0.45691702, -0.28435528, -0.82336074, -0.18012944, 0.21839875, -0.6655438, 0.57327366
911, 1009212171, 0.4577004, -0.28344986, -0.82205325, -0.18546087, 0.14541708, -0.880797, 0.3771639
912, 1009228838, 0.4586205, -0.28243634, -0.8205962, -0.19110018, -0.0042469697, -0.68170524, 0.3991785
913, 1009245505, 0.45944288, -0.28116876, -0.8191029, -0.19730042, -0.52061087, -0.94227374, 0.46517563
914, 1009262172, 0.46066687, -0.2791271, -0.8176544, -0.20326363, -1.0040059, -1.5338609, 0.41894436
915, 1009278839, 0.46250254, -0.2759124, -0.81632537, -0.20875159, -1.0749288, -1.5031723, 0.4008379
916, 1009295506, 0.46454534, -0.271779, -0.8151572, -0.21413374, -0.7940653, -1.3852539, 0.22663021
917, 1009312173, 0.46668747, -0.26714158, -0.8139873, -0.21968937, -0.55046546, -1.187938, 0.19378567
918, 1009328840, 0.46900308, -0.26204586, -0.8127697, -0.22533137, -0.49211204, -1.0229262, 0.30186272
919, 1009345507, 0.47164735, -0.25630417, -0.81155616, -0.23072547, -0.11437583, -1.177468, 0.16069508
920, 1009362174, 0.4747012, -0.25008705, -0.8102238, -0.23590949, 0.5360511, -1.1780852, -0.097081184
921, 1009378841, 0.47804028, -0.24364853, -0.80866283, -0.24120085, 1.1266023, -0.73177767, -0.0351696
922, 1009395508, 0.48154676, -0.23731521, -0.8068793, -0.24645652, 1.3672556, -0.20878217, 0.10913944
923, 1009412175, 0.48511884, -0.23141266, -0.8048439, -0.25166413, 1.5340512, 0.16594037, -0.25506496
924, 1009428842, 0.4887645, -0.22600189, -0.8025188, -0.2568979, 1.3954846, 0.49410737, -0.3527527
925, 1009445509, 0.49239963, -0.22112602, -0.7999213, -0.26224485, 1.0943905, 0.62875795, -0.22133541
926, 1009462176, 0.4959647, -0.21674189, -0.7971369, -0.26761007, 0.53963, 0.23329696, -0.47589207
927, 1009478843, 0.49933684, -0.21267514, -0.79420847, -0.2732499, -0.030430395, 0.13635631, -0.52789783
928, 1009495510, 0.5027059, -0.20846653, -0.7913325, -0.2786075, -0.6453872, 0.09516399, -0.51999474
929, 1009512177, 0.50614065, -0.20384851, -0.78868175, -0.28328285, -1.0694833, 0.6638156, -0.47697163
930, 1009528844, 0.5093761, -0.19903998, -0.7863042, -0.28748098, -0.93052715, 1.1173518, -0.55209446
931, 1009545511, 0.5125194, -0.19413489, -0.7841648, -0.29106998, -1.0497031, 1.3505795, -0.7660837
932, 1009562178, 0.5154629, -0.18902755, -0.7822608, -0.29433846, -0.9672684, 1.0855342, -0.4920025
933, 1009578845, 0.5186491, -0.18347606, -0.7806887, -0.29642078, -0.48711476, 1.3167175, -0.5675316
934, 1009595512, 0.5214114, -0.17852587, -0.77924055, -0.29840124, 0.3369717, 1.9742515, -0.12687683
935, 1009612179, 0.52347505, -0.17511663, -0.77769685, -0.30082563, 0.35290685, 2.1816673, -0.2682085
936, 1009628846, 0.52481323, -0.17299773, -0.77614176, -0.30372244, -0.09682492, 1.7430031, -0.26492977
937, 1009645513, 0.52589446, -0.17122953, -0.77481127, -0.30624086, -0.534533, 1.3541644, -0.3055582
938, 1009662180, 0.52667, -0.16999777, -0.77358913, -0.30867475, -0.56339794, 1.4486101, -0.12112808
939, 1009678847, 0.5269921, -0.16936778, -0.77249366, -0.31120408, -0.75459135, 1.3761814, -0.1046257
940, 1009695514, 0.5269987, -0.16897863, -0.7716241, -0.3135533, -0.8315149, 1.1151546, -0.121920586
941, 1009712181, 0.5269647, -0.16834174, -0.7710353, -0.31539562, -0.90239066, 0.82053226, -0.1699934
942, 1009728848, 0.527072, -0.16725408, -0.7707209, -0.31656104, -0.6400857, 0.60051763, -0.056347847
943, 1009745515, 0.52720463, -0.16614875, -0.770559, -0.31731594, -0.17765704, 0.70326144, -0.018828392
944, 1009762182, 0.5270181, -0.16564861, -0.7704006, -0.31827044, -0.10698626, 0.8191977, 0.043070793
945, 1009778849, 0.52666587, -0.16534132, -0.7703497, -0.3191354, -0.5870295, 0.72918, -0.097397804
946, 1009795516, 0.5264611, -0.16453716, -0.7705991, -0.31928656, -0.79876405, 0.64336306, -0.09156513
947, 1009812183, 0.52629775, -0.16353658, -0.7710583, -0.31896123, -0.47095567, 0.6795073, -0.018226624
948, 1009828850, 0.5259122, -0.16300589, -0.77148825, -0.3188291, -0.029743763, 0.56584996, 0.015773773
949, 1009845517, 0.5251823, -0.16316901, -0.7718002, -0.31919312, 0.05313931, 0.30376622, 0.15032768
950, 1009862184, 0.5244208, -0.16339749, -0.77209646, -0.3196117, -0.06742581, -0.0028202864, 0.13304234
951, 1009878851, 0.52380157, -0.16333038, -0.7724801, -0.31973487, 0.045772772, -0.065274, 0.06138134
952, 1009895518, 0.52330416, -0.16310346, -0.7728843, -0.31968805, 0.21266587, -0.053578626, 0.14313221
953, 1009912185, 0.5227693, -0.16305183, -0.7732033, -0.31981832, 0.24570243, -0.121531256, 0.13305092
954, 1009928852, 0.5222708, -0.16311474, -0.7734032, -0.3201171, 0.16570446, -0.29143178, 0.16500854
955, 1009945519, 0.5218842, -0.16309942, -0.77354825, -0.32040444, 0.14079036, -0.29340076, 0.14902782
956, 1009962186, 0.52152747, -0.16316023, -0.77366, -0.32068437, 0.201433, -0.030045226, 0.054914474
957, 1009978853, 0.5211752, -0.16324046, -0.7737955, -0.32088926, -0.16380997, 0.14758326, 0.01486969
958, 1009995520, 0.52100205, -0.16289148, -0.7740848, -0.32065, -0.49009597, 0.17006782, 0.07116318
959, 1010012187, 0.520987, -0.16218853, -0.77450424, -0.3200175, -0.219403, 0.1919399, 0.12492752
960, 1010028854, 0.5207977, -0.16192411, -0.77480054, -0.31974193, 0.33378977, 0.15232252, 0.20029926
961, 1010045521, 0.520325, -0.16229689, -0.7748987, -0.32008454, 0.20674054, -0.10920726, 0.18081856
962, 1010062188, 0.5198684, -0.16263214, -0.77495575, -0.32051823, -0.081385985, -0.24822997, 0.16258621
963, 1010078855, 0.5195259, -0.16275975, -0.775044, -0.32079476, -0.14002451, -0.05245504, 0.07352638
964, 1010095522, 0.5192027, -0.16287684, -0.7751535, -0.32099402, -0.0373289, 0.16819887, 0.07957363
965, 1010112189, 0.5187908, -0.16319156, -0.77525294, -0.32126, -0.008839044, 0.30099058, 0.056830406
966, 1010128856, 0.51830196, -0.16367346, -0.7753612, -0.32154283, -0.18103118, 0.36702448, 0.08499622
967, 1010145523, 0.51786554, -0.16394415, -0.7755673, -0.32161072, -0.42826736, 0.035545267, 0.120331764
968, 1010162190, 0.5176008, -0.16386652, -0.77586436, -0.32136008, -0.10009134, -0.11681228, 0.12757874
969, 1010178857, 0.5171673, -0.16417718, -0.7760327, -0.3214931, 0.3182896, -0.11118177, 0.10368347
970, 1010195524, 0.5166656, -0.16475724, -0.7760673, -0.32191926, 0.21214375, -0.23011793, 0.20458603
971, 1010212191, 0.5163083, -0.16512299, -0.77610344, -0.32221732, 0.033452738, -0.1926385, 0.15834713
972, 1010228858, 0.51614136, -0.1651234, -0.77620184, -0.3222477, -0.13214444, -0.12806062, 0.11777687
973, 1010245525, 0.51614004, -0.16477412, -0.7763786, -0.3220029, -0.17438838, -0.08617101, 0.12313461
974, 1010262192, 0.51608133, -0.16459307, -0.77650857, -0.32187623, 0.080135204, 0.09096659, 0.121824265
975, 1010278859, 0.5158145, -0.16484027, -0.7765323, -0.32212013, 0.05098554, 0.123544045, 0.11705303
976, 1010295526, 0.5155318, -0.16510975, -0.77656215, -0.32236293, -0.13901165, 0.04390085, 0.11639881
977, 1010312193, 0.51537436, -0.1650969, -0.7766893, -0.3223141, -0.19370437, 0.030136028, 0.11805344
978, 1010328860, 0.5152601, -0.16501795, -0.7768451, -0.322162, -0.026089326, 0.08266068, 0.10195255
979, 1010345527, 0.5150622, -0.16513558, -0.7769394, -0.32219097, 0.017351758, 0.06708982, 0.13607883
980, 1010362194, 0.5148471, -0.16527812, -0.77702516, -0.32225472, -0.14383237, -0.05896456, 0.12797642
981, 1010378861, 0.51471514, -0.16520445, -0.7771645, -0.3221671, -0.15782437, -0.051652525, 0.12131214
982, 1010395528, 0.5145999, -0.16514495, -0.77729774, -0.32206017, 0.072971165, 0.09778261, 0.099817276
983, 1010412195, 0.5143594, -0.16539606, -0.7773361, -0.3222229, 0.14947072, 0.040215287, 0.12095642
984, 1010428862, 0.5141259, -0.16570742, -0.77735174, -0.32239798, 0.027265452, 0.015518784, 0.13332844
985, 1010445529, 0.5139641, -0.16589984, -0.7774183, -0.3223964, -0.092843704, 0.13034499, 0.104286194
986, 1010462196, 0.5138126, -0.16606162, -0.7775235, -0.32230118, -0.2711391, 0.31092894, 0.054735184
987, 1010478863, 0.51368266, -0.16617395, -0.7776867, -0.32205638, -0.43743408, 0.30445147, 0.0750618
988, 1010495530, 0.51359344, -0.16618283, -0.7779444, -0.32157162, -0.30244833, 0.36426947, 0.030046463
989, 1010512197, 0.51341736, -0.16635966, -0.77821827, -0.32109797, -0.09071139, 0.42420468, -0.0028152466
990, 1010528864, 0.51313376, -0.16674922, -0.77847767, -0.32072052, -0.113040335, 0.40237948, 0.10044861
991, 1010545531, 0.5128322, -0.1672596, -0.7787599, -0.32025164, -0.05316479, 0.4432504, 0.1034174
992, 1010562198, 0.51243734, -0.16799825, -0.7790616, -0.31976253, -0.003846658, 0.4372494, 0.059620857
993, 1010578865, 0.51195717, -0.16894002, -0.77937853, -0.31926313, -0.037633322, 0.39718795, 0.0031766891
994, 1010595532, 0.5114381, -0.17000552, -0.7797212, -0.318692, -0.04220774, 0.29589912, 0.055498123
995, 1010612199, 0.5108877, -0.17138563, -0.78001904, -0.31810644, 0.24076815, 0.4100025, 0.09753895
996, 1010628866, 0.51004297, -0.17362896, -0.780104, -0.31803674, 0.3634741, 0.555362, 0.13978195
997, 1010645533, 0.5088932, -0.17678556, -0.7799667, -0.3184761, 0.25359824, 0.61127174, 0.04165268
998, 1010662200, 0.5075796, -0.18020403, -0.77979743, -0.3190702, -0.16824427, 0.35604224, -0.029770851
999, 1010678867, 0.5067354, -0.18270001, -0.779956, -0.3186049, -0.13111001, 0.23008026, -0.11483288
1000, 1010695534, 0.50615543, -0.18453687, -0.78043735, -0.31728676, -0.039439756, 0.56456995, -0.23137665
1001, 1010712201, 0.5057199, -0.1859683, -0.78118354, -0.3153032, -0.21418934, 0.8169761, -0.19144535
1002, 1010728868, 0.5053133, -0.1873469, -0.7821693, -0.31268433, -0.480153, 1.1378975, -0.3857994
1003, 1010745535, 0.5046464, -0.1889433, -0.78336906, -0.3097836, -0.55528396, 1.4214945, -0.41988945
1004, 1010762202, 0.50384253, -0.19068965, -0.78487796, -0.3061818, -0.45246062, 1.576525, -0.44521046
1005, 1010778869, 0.50261253, -0.19302431, -0.7865354, -0.3024644, -0.36301544, 1.449475, -0.23057556
1006, 1010795536, 0.5013174, -0.19543459, -0.78834707, -0.29832157, -0.20631006, 0.8739002, -0.5158224
1007, 1010812203, 0.50015813, -0.19799802, -0.7902269, -0.29356515, 0.2954211, 1.1142635, -0.4184494
1008, 1010828870, 0.49861634, -0.20136052, -0.79196846, -0.289175, 0.49364623, 1.0026809, 0.032499313
1009, 1010845537, 0.49692595, -0.20525835, -0.79349434, -0.28513286, 0.673257, -0.043326367, 0.2529583
1010, 1010862204, 0.4954193, -0.20916277, -0.7948961, -0.28098264, 1.1003529, -0.4895981, -0.11769295
1011, 1010878871, 0.4942276, -0.21311423, -0.7961293, -0.27658692, 0.9199648, 0.045705773, -0.08595276
1012, 1010895538, 0.49308258, -0.21685877, -0.79743236, -0.27192628, 0.81018955, 0.78964067, -0.19879532
1013, 1010912205, 0.4918522, -0.2210512, -0.7987462, -0.26687583, 0.465626, 1.5116467, -0.57431793
1014, 1010928872, 0.48987982, -0.22605127, -0.800025, -0.2624482, 0.016156858, 1.2426794, -0.2062645
1015, 1010945539, 0.48791814, -0.23130815, -0.8011851, -0.25794524, -0.58787477, -0.3657205, -0.28726482
1016, 1010962206, 0.4863638, -0.23600937, -0.80225307, -0.25325957, -0.790745, -1.4198406, -0.11329365
1017, 1010978873, 0.48556215, -0.23960768, -0.8034134, -0.24767937, -0.41320303, -0.7444527, -0.21075153
1018, 1010995540, 0.48432186, -0.24323918, -0.8047141, -0.24228643, 0.26588765, 0.51072073, -0.32933712
1019, 1011012207, 0.4819311, -0.24820219, -0.8057881, -0.23842002, -0.17062889, 0.62024343, 0.15277576
1020, 1011028874, 0.47935516, -0.2535328, -0.80685264, -0.23436959, -1.24361, -0.2525825, 0.27547264
1021, 1011045541, 0.4773976, -0.25760758, -0.80807966, -0.22964698, -1.6643215, -1.2985986, 0.10448837
1022, 1011062208, 0.47643802, -0.2601764, -0.8094022, -0.22401735, -1.176434, -1.0722896, 0.048801422
1023, 1011078875, 0.47588128, -0.26197067, -0.8107391, -0.21819915, -0.27243167, -0.34136096, -0.015890121
1024, 1011095542, 0.4753082, -0.26378715, -0.81200606, -0.21247403, 0.32690984, 0.26069054, 4.6348572E-4
1025, 1011112209, 0.47454023, -0.26589984, -0.81329226, -0.2065557, 0.7662006, 0.3316958, -0.25854874
1026, 1011128876, 0.4735315, -0.26871288, -0.81433654, -0.20104218, 0.8668731, 0.07513288, -0.06273842
1027, 1011145543, 0.47277257, -0.27179644, -0.81506014, -0.19568016, 0.27900898, -0.62174255, 0.49875736
1028, 1011162210, 0.47249892, -0.2745609, -0.8155642, -0.1903068, 0.38818032, -1.377649, 0.38107395
1029, 1011178877, 0.47255284, -0.27710703, -0.8158618, -0.18513633, 0.70869654, -0.9476338, 0.43124294
1030, 1011195544, 0.47233698, -0.27981395, -0.8160686, -0.18065004, 0.6965377, -0.25148124, 0.62086964
1031, 1011212211, 0.47215676, -0.28265128, -0.81615984, -0.17623805, 0.7383051, -0.49625766, 0.2035017
1032, 1011228878, 0.47248814, -0.285641, -0.8159034, -0.17165807, 1.1558161, -0.23051193, 0.124866486
1033, 1011245545, 0.47280133, -0.2890419, -0.815317, -0.16784672, 1.0826464, -0.44874436, 0.58263683
1034, 1011262212, 0.47333208, -0.29241768, -0.81454444, -0.16421558, 0.7495194, -1.0924355, 0.6679363
1035, 1011278879, 0.4744651, -0.29502144, -0.8137601, -0.16012563, 0.935216, -0.8029247, 0.63312626
1036, 1011295546, 0.4755838, -0.29758528, -0.8129756, -0.15599453, 1.1149597, -0.064828254, 0.097623825
1037, 1011312213, 0.47625035, -0.30092195, -0.8119367, -0.15294045, 0.23484103, -0.1376489, 0.46729565
1038, 1011328880, 0.47734767, -0.304075, -0.810685, -0.14989275, -0.79168624, -0.8803581, 0.6766043
1039, 1011345547, 0.4788256, -0.30665258, -0.80938065, -0.14694767, -0.87580264, -1.7307254, 0.66317654
1040, 1011362214, 0.4802194, -0.3085206, -0.8083295, -0.14424999, -0.7056266, -1.2616761, 0.71719456
1041, 1011378881, 0.48115665, -0.30975676, -0.80770093, -0.14198074, -0.6589817, -0.3652443, 0.487854
1042, 1011395548, 0.4819915, -0.31087527, -0.80718404, -0.13962574, -1.076264, -0.32705477, 0.15910435
1043, 1011412215, 0.482934, -0.31172395, -0.8066828, -0.13735478, -1.4967923, -0.533618, 0.345603
1044, 1011428882, 0.48414773, -0.3119078, -0.8062638, -0.13510688, -1.4281094, -0.90469605, 0.57828426
1045, 1011445549, 0.48540112, -0.31156662, -0.8059832, -0.13305476, -1.1806942, -1.1342596, 0.7758913
1046, 1011462216, 0.48646152, -0.31059682, -0.8060058, -0.13130128, -0.76852715, -1.0373484, 0.7375679
1047, 1011478883, 0.48740843, -0.3091316, -0.8062935, -0.12946859, -0.42093235, -0.47634834, 0.2970686
1048, 1011495550, 0.4881783, -0.30773702, -0.8066351, -0.12775216, -0.098238416, 0.25419223, -0.11517811
1049, 1011512217, 0.48901626, -0.3068356, -0.8066924, -0.12634526, 0.2117593, 0.082859606, 0.16992855
1050, 1011528884, 0.48963916, -0.30674228, -0.80651546, -0.1252839, 0.4644122, 0.3261442, 0.087444305
1051, 1011545551, 0.48992833, -0.30665174, -0.80646545, -0.124696694, 0.2919544, 0.16258255, 0.47092724
1052, 1011562218, 0.49062064, -0.3057214, -0.8066324, -0.123167805, 0.6131394, 0.20009126, 0.10389042
1053, 1011578885, 0.4910071, -0.305118, -0.8068228, -0.12187144, 0.57190996, 0.43791217, -0.22435474
1054, 1011595552, 0.4913555, -0.3044889, -0.80699676, -0.120884754, 0.029911397, -0.340639, 0.30779266
1055, 1011612219, 0.49180278, -0.3034641, -0.8073348, -0.11937693, 0.25724688, -0.17923616, 0.36121273
1056, 1011628886, 0.49152985, -0.30279988, -0.8078739, -0.11853738, -0.029124632, -0.10042404, 0.32697105
1057, 1011645553, 0.4909474, -0.30244297, -0.80843645, -0.118025064, -0.40386465, -0.14493887, 0.4351225
1058, 1011662220, 0.49016705, -0.30247656, -0.80892485, -0.11783563, -0.59716445, 0.07587639, 0.029165268
1059, 1011678887, 0.48931012, -0.30264044, -0.809391, -0.11777604, -0.32980543, -0.093799785, 0.05956459
1060, 1011695554, 0.48831916, -0.3028465, -0.8098968, -0.11788195, -0.1119487, 0.033230677, 0.15524197
1061, 1011712221, 0.48716566, -0.30311516, -0.810466, -0.118051775, -0.32467806, 0.1276403, 0.11080456
1062, 1011728888, 0.4860806, -0.3027914, -0.81124914, -0.117975846, -0.57178324, -0.03848256, -0.0409832
1063, 1011745555, 0.48533034, -0.301702, -0.81219655, -0.11733533, -0.041015074, -0.23037122, -0.0118637085
1064, 1011762222, 0.48447052, -0.3007695, -0.813122, -0.11687334, 0.33694845, 0.30732563, 0.02658081
1065, 1011778889, 0.4833898, -0.30040553, -0.81386614, -0.117103904, 0.16779162, 0.06860808, 0.32896805
1066, 1011795556, 0.48258728, -0.3001572, -0.81442505, -0.11716532, 0.15922393, -0.12335389, 0.30240726
1067, 1011812223, 0.4816623, -0.30017692, -0.8149256, -0.117439695, 0.43348935, -0.045099795, -0.013207436
1068, 1011828890, 0.48070678, -0.3002139, -0.81542003, -0.11782785, 0.37319198, -0.13278323, 0.025416374
1069, 1011845557, 0.47990626, -0.30014542, -0.81588215, -0.11806541, 0.345218, -0.0096762115, 0.17592907
1070, 1011862224, 0.47916588, -0.3001475, -0.81627554, -0.11834869, 0.23009676, 0.109628186, 0.14693356
1071, 1011878891, 0.47853264, -0.3000907, -0.81662434, -0.11864792, -0.010914585, 0.012261921, 0.16611195
1072, 1011895558, 0.47810268, -0.29978287, -0.8169816, -0.11870033, 0.07124341, 0.037615776, 0.1307249
1073, 1011912225, 0.47766843, -0.29947698, -0.8173452, -0.11871768, 0.1455418, 0.090217315, 0.029799461
1074, 1011928892, 0.4772099, -0.29920456, -0.81770927, -0.11874125, 0.23227556, 0.0757225, 0.042446136
1075, 1011945559, 0.4766932, -0.2990735, -0.81805307, -0.11877919, 0.26106113, 0.20768611, 0.012478828
1076, 1011962226, 0.4759803, -0.29914528, -0.8183984, -0.119078174, 0.029385248, 0.22881535, 0.06633091
1077, 1011978893, 0.47537452, -0.2990432, -0.8187629, -0.119247645, -0.2220619, -0.017518722, 0.12781239
1078, 1011995560, 0.47491717, -0.29874477, -0.81914705, -0.11917951, -0.07863409, -0.09010858, -0.005253792
1079, 1012012227, 0.47443825, -0.29847416, -0.81951874, -0.119210064, -0.03998647, -0.2040006, 0.119550705
1080, 1012028894, 0.47391382, -0.29810956, -0.819939, -0.11931824, -0.043040548, -0.24501446, 0.3603258
1081, 1012045561, 0.47337964, -0.2976026, -0.820407, -0.1194881, -0.089432895, -0.13643488, 0.40815353
1082, 1012062228, 0.47279853, -0.2970054, -0.8209198, -0.119751655, -0.09967873, -0.13456944, 0.2079277
1083, 1012078895, 0.47222713, -0.296421, -0.8214227, -0.12000567, -0.06406529, -0.17424735, -0.034010887
1084, 1012095562, 0.47163364, -0.29596588, -0.8218731, -0.12037825, -0.09121072, -0.11988598, -0.0054016113
1085, 1012112229, 0.47103238, -0.2955181, -0.8223073, -0.1208668, -0.06466975, -0.003223362, 0.2108984
1086, 1012128896, 0.47040185, -0.29510197, -0.82273066, -0.12145724, -0.016002633, 0.07300503, 0.3398142
1087, 1012145563, 0.4699335, -0.2945168, -0.82314634, -0.121872686, 0.004175669, -0.084284276, 0.10189152
1088, 1012162230, 0.4697304, -0.293704, -0.82354033, -0.121955186, 0.24153323, -0.076269776, -0.083703995
1089, 1012178897, 0.46963134, -0.29286128, -0.8239, -0.12193438, 0.46724737, 0.21925525, -0.12163544
1090, 1012195564, 0.46947756, -0.29228377, -0.8241759, -0.122048445, 0.54322344, 0.463784, 0.04935932
1091, 1012212231, 0.46928418, -0.29197752, -0.82436526, -0.12224558, 0.56384295, 0.48457062, 0.08711815
1092, 1012228898, 0.4690894, -0.29195875, -0.8244475, -0.122482814, 0.52047026, 0.35195154, 0.014974594
1093, 1012245565, 0.46896252, -0.29208073, -0.8244542, -0.12263298, 0.47242862, 0.24410833, -0.025104523
1094, 1012262232, 0.46895042, -0.29228207, -0.82438284, -0.12267888, 0.40854302, 0.22657105, 0.035017014
1095, 1012278899, 0.46894157, -0.29254863, -0.82428485, -0.12273573, 0.36413145, 0.26127893, 0.118097305
1096, 1012295566, 0.46893963, -0.29288492, -0.8241568, -0.122799985, 0.27680963, 0.23570369, 0.1297493
1097, 1012312233, 0.46891767, -0.29330593, -0.8240098, -0.12286763, 0.19491582, 0.17753579, 0.03901291
1098, 1012328900, 0.4688215, -0.29383203, -0.82385004, -0.1230481, 0.09962375, 0.14976396, -0.03441143
1099, 1012345567, 0.46868768, -0.29445514, -0.8236664, -0.12329747, -0.013333889, 0.087107584, 0.0010271072
1100, 1012362234, 0.46857587, -0.29508245, -0.82347727, -0.12348583, -0.10201042, -0.022701988, 0.083395004
1101, 1012378901, 0.46850073, -0.29561612, -0.82330656, -0.12363253, -0.1446882, -0.12963393, 0.12666702
1102, 1012395568, 0.4684551, -0.29598552, -0.8231861, -0.12372314, -0.106929645, -0.13771358, 0.13585472
1103, 1012412235, 0.46840632, -0.29624936, -0.82310677, -0.12380405, -0.058534913, -0.08967463, 0.15298367
1104, 1012428902, 0.4682909, -0.2964742, -0.8230671, -0.123965874, -0.052451786, 0.025763892, 0.13530636
1105, 1012445569, 0.46816427, -0.29664055, -0.8230526, -0.124142446, -0.07462114, 0.010768966, 0.1012249
1106, 1012462236, 0.46814758, -0.2967069, -0.8230303, -0.12419498, -0.06495063, -0.010303053, 0.048911095
1107, 1012478903, 0.46815157, -0.29680774, -0.82298654, -0.12422894, -0.017883271, -0.03115737, 0.044945717
1108, 1012495570, 0.46810094, -0.2969474, -0.8229467, -0.12434932, 0.009542662, -0.02924846, 0.12802029
1109, 1012512237, 0.46796218, -0.29712865, -0.8229202, -0.124614395, -0.01243045, -0.030553887, 0.2536583
1110, 1012528904, 0.46784744, -0.29719272, -0.82292455, -0.12486327, -0.06539453, -0.07153867, 0.2661829
1111, 1012545571, 0.46784815, -0.29708016, -0.8229454, -0.1249913, -0.008911015, -0.070939325, 0.06882858
1112, 1012562238, 0.46785048, -0.2969535, -0.8229701, -0.12512109, 0.0037087505, -0.071798176, -0.09024811
1113, 1012578905, 0.46781245, -0.29679996, -0.8230199, -0.12530014, 0.015668705, -0.008345638, 0.11100006
1114, 1012595572, 0.46771163, -0.2966347, -0.8231032, -0.12552112, -0.015164013, 0.09581039, 0.24548435
1115, 1012612239, 0.46760163, -0.29643688, -0.8232055, -0.12572613, -0.040065143, 0.059318773, 0.16860962
1116, 1012628906, 0.46753943, -0.29623523, -0.8232864, -0.12590268, -0.023450533, 0.06797655, 0.07601929
1117, 1012645573, 0.46753746, -0.29602796, -0.82334626, -0.1260063, 0.038438417, 0.03493418, -0.0027856827
1118, 1012662240, 0.46751612, -0.29588473, -0.82338905, -0.12614237, 0.12580158, 0.054388527, -0.026729584
1119, 1012678907, 0.46744892, -0.29575136, -0.8234482, -0.12631841, 0.12755933, 0.07594621, 0.09121513
1120, 1012695574, 0.46742636, -0.29557407, -0.8235086, -0.12642272, 0.11914895, 0.12290251, 0.14901924
1121, 1012712241, 0.46747497, -0.29536414, -0.8235523, -0.12644921, 0.118374474, 0.08076261, 0.072639465
1122, 1012728908, 0.4675579, -0.29516944, -0.82358396, -0.12638962, 0.15095529, 0.06183933, -0.0020484924
1123, 1012745575, 0.46760204, -0.2950671, -0.823597, -0.12638105, 0.17942078, 0.11386577, 0.09978008
1124, 1012762242, 0.46763712, -0.29500017, -0.8235967, -0.12640963, 0.08699661, 0.1432566, 0.21654224
1125, 1012778909, 0.46776587, -0.29487517, -0.82358617, -0.12629354, 0.09316534, 0.031658486, 0.040979385
1126, 1012795576, 0.46792567, -0.2947704, -0.8235551, -0.1261485, 0.11181258, -0.064922355, -0.049160004
1127, 1012812243, 0.46804622, -0.29468966, -0.8235273, -0.12607178, 0.08721386, -0.020141311, 0.13766098
1128, 1012828910, 0.468166, -0.29451752, -0.8235362, -0.12597093, -0.02018322, 0.031784438, 0.20627022
1129, 1012845577, 0.46830666, -0.29431245, -0.82355684, -0.12579288, 0.01758734, 0.01109183, 0.0632925
1130, 1012862244, 0.46838075, -0.29417485, -0.8235869, -0.12564114, 0.020560734, -0.006936054, -0.049170494
1131, 1012878911, 0.46818972, -0.2942216, -0.82365674, -0.1257858, 0.074561015, 0.018963622, -0.0067424774
1132, 1012895578, 0.4675548, -0.29450247, -0.8237927, -0.12659784, -0.011712079, 0.060216736, 0.09966946
1133, 1012912245, 0.4666248, -0.2948686, -0.8240033, -0.12780064, -0.22394702, -0.15438811, 0.14315987
1134, 1012928912, 0.46559852, -0.29524112, -0.8242557, -0.12905012, -0.27384338, -0.43651935, 0.13619614
1135, 1012945579, 0.4646017, -0.295552, -0.82451963, -0.13023968, -0.44101945, -0.5256951, 0.28981972
1136, 1012962246, 0.46379566, -0.29550084, -0.8248559, -0.13109665, -0.6077208, -0.46354854, 0.43459892
1137, 1012978913, 0.46330217, -0.2949242, -0.8252744, -0.13150525, -0.39482868, -0.28517827, 0.30166435
1138, 1012995580, 0.46281433, -0.29420963, -0.82573044, -0.13196082, -0.11853048, 0.0036005701, 0.11454296
1139, 1013012247, 0.46231404, -0.29344684, -0.82620114, -0.13246582, -0.051386077, 0.09759146, 0.14051533
1140, 1013028914, 0.46203247, -0.29261726, -0.82661015, -0.13272987, 0.14883684, 0.101055235, 0.09583855
1141, 1013045581, 0.46183822, -0.2918888, -0.82695675, -0.132851, 0.37800735, 0.17596471, -0.057703972
1142, 1013062248, 0.4616179, -0.2913697, -0.8272349, -0.13302524, 0.4885041, 0.26114517, -0.04718876
1143, 1013078915, 0.4614222, -0.29091436, -0.827469, -0.13324422, 0.32659355, 0.35377598, 0.15779972
1144, 1013095582, 0.46137133, -0.29032847, -0.8276905, -0.13332234, 0.15229122, 0.27017632, 0.10084438
1145, 1013112249, 0.4616695, -0.28960538, -0.82782763, -0.1330108, 0.1557997, 0.079197794, -0.053964615
1146, 1013128916, 0.4621934, -0.2887708, -0.8279008, -0.13254967, 0.026062729, -0.1287848, -0.06755066
1147, 1013145583, 0.46313596, -0.28762147, -0.8279024, -0.13174723, -0.033172898, -0.33336645, 0.03048706
1148, 1013162250, 0.46438152, -0.28615907, -0.82786626, -0.1307694, -0.022745125, -0.05567786, -0.13908577
1149, 1013178917, 0.46580064, -0.28440842, -0.82781744, -0.12984687, -0.0019745135, 0.19474562, -0.11257076
1150, 1013195584, 0.46748474, -0.28246534, -0.8277013, -0.12877215, -0.06641553, 0.5900569, 0.11157513
1151, 1013212251, 0.4691771, -0.28029773, -0.82761335, -0.12791654, -0.2403855, 0.6678122, -0.2724266
1152, 1013228918, 0.4708527, -0.27769312, -0.82768804, -0.12695438, -0.5452089, 0.39415637, -0.37633038
1153, 1013245585, 0.47209904, -0.27503496, -0.82799435, -0.12611097, -0.89808935, 0.53170526, -0.16402817
1154, 1013262252, 0.47299036, -0.27256224, -0.82838327, -0.12558512, -1.5135213, -0.41419312, 0.5988903
1155, 1013278919, 0.47381908, -0.26988384, -0.8289126, -0.12475037, -1.5292006, -0.62711054, 0.90288067
1156, 1013295586, 0.47371274, -0.26744026, -0.829754, -0.12482239, -1.1029807, -0.18494926, 0.22868538
1157, 1013312253, 0.4731454, -0.26508117, -0.8307869, -0.12513603, -0.7191916, -0.11959642, -0.10218239
1158, 1013328920, 0.47273147, -0.26272532, -0.83185047, -0.12460097, 0.21354227, 0.3459072, -0.24484158
1159, 1013345587, 0.47209808, -0.26082155, -0.83291346, -0.12390097, 1.1296169, 1.0989859, -0.4204874
1160, 1013362254, 0.4708747, -0.26000598, -0.8338814, -0.123759285, 1.662254, 1.2799656, -0.3595295
1161, 1013378921, 0.46915907, -0.2602953, -0.83470315, -0.1241262, 1.511399, 1.231085, -0.24988365
1162, 1013395588, 0.46742707, -0.26128218, -0.83531934, -0.12444108, 1.1930891, 0.72297645, -0.1254282
1163, 1013412255, 0.46587822, -0.26259485, -0.83580065, -0.12425373, 1.2203385, 0.7129034, -0.23124218
1164, 1013428922, 0.46406204, -0.2644775, -0.8362009, -0.12436441, 1.0846426, 0.7311206, -0.1326456
1165, 1013445589, 0.46217513, -0.26679668, -0.8364755, -0.124590345, 0.8177767, 0.27080852, 0.1383791
1166, 1013462256, 0.46030784, -0.2693691, -0.8366382, -0.12487615, 0.7340561, -0.13623193, 0.37374687
1167, 1013478923, 0.45831615, -0.27208897, -0.8367247, -0.12572323, 0.4039335, -0.501184, 0.66414165
1168, 1013495590, 0.45651188, -0.27452153, -0.8367522, -0.12681077, 0.06268376, -1.0020877, 0.64718056
