PacketCounter_tibia,SampleTimeFine_tibia,Euler_X_tibia,Euler_Y_tibia,Euler_Z_tibia,FreeAcc_X_tibia,FreeAcc_Y_tibia,FreeAcc_Z_tibia,PacketCounter_femur,SampleTimeFine_femur,Euler_X_femur,Euler_Y_femur,Euler_Z_femur,FreeAcc_X_femur,FreeAcc_Y_femur,FreeAcc_Z_femur
1,2343592535,-129.1051025,-73.20713043,-23.07704353,0.037263744,0.017127462,-0.009520531,1,2343592535,-143.0606995,-79.65719604,-60.20734024,0.022927288,-0.008366481,0.17833233
2,2343609202,-129.1227722,-73.19854736,-23.0568409,0.0719591,0.034623943,0.025515556,2,2343609202,-143.048233,-79.65664673,-60.21530914,0.08025731,-0.02144372,0.19215679
3,2343625869,-129.1142578,-73.19160461,-23.05579567,0.07704288,0.027878324,0.03631878,3,2343625869,-143.0562897,-79.65470886,-60.20476532,0.068723164,-0.051891606,0.16813087
4,2343642536,-129.098999,-73.19439697,-23.05635071,0.1125975,0.009853345,-0.008311272,4,2343642536,-143.0851898,-79.64942169,-60.1825943,0.014695628,-0.0681838,0.12450886
5,2343659203,-129.0953369,-73.19650269,-23.04601479,0.110519275,-0.019616056,-0.0593338,5,2343659203,-143.1151733,-79.6404953,-60.16570282,-0.009531836,-0.039453503,0.13758373
6,2343675870,-129.0937805,-73.19536591,-23.04325104,0.09817498,-0.06595107,-0.048841476,6,2343675870,-143.1432343,-79.63174438,-60.15196609,-0.004831987,-4.48E-04,0.18147278
7,2343692537,-129.0945129,-73.19580841,-23.0562439,0.048160575,-0.11237326,-0.027127266,7,2343692537,-143.1749573,-79.62265015,-60.13656616,0.006925353,0.017419035,0.18726254
8,2343709204,-129.1167145,-73.19606781,-23.07682037,0.01396977,-0.08179155,0.028004646,8,2343709204,-143.2089691,-79.61342621,-60.11467361,-5.92E-04,9.59E-04,0.18988991
9,2343725871,-129.1385498,-73.19927979,-23.11145401,-0.024183348,-0.057178304,0.07339764,9,2343725871,-143.2557831,-79.60572052,-60.08494949,-0.006275755,0.011052827,0.21499252
10,2343742538,-129.1409302,-73.21678925,-23.17827225,-0.06973448,0.024878891,0.049793243,10,2343742538,-143.3089447,-79.6016922,-60.05467224,-0.022917034,0.00545936,0.17711353
11,2343759205,-129.1452942,-73.23890686,-23.24203873,-0.12084678,0.09270871,-0.004030228,11,2343759205,-143.3663177,-79.59606934,-60.01979446,-0.034015402,0.034901604,0.16252518
12,2343775872,-129.1494446,-73.25591278,-23.29096794,-0.16313864,0.14750078,-0.04034424,12,2343775872,-143.4132233,-79.59266663,-59.9892807,-0.04723949,0.07890667,0.16544247
13,2343792539,-129.1607056,-73.2637558,-23.31427193,-0.15837304,0.14757174,-0.0476017,13,2343792539,-143.4449921,-79.59194946,-59.96421051,-0.072531685,0.05173392,0.19563293
14,2343809206,-129.1786804,-73.25933838,-23.31628227,-0.1826891,0.15026742,-0.010902405,14,2343809206,-143.4645996,-79.59439087,-59.94394684,-0.06361232,-1.24E-04,0.18643475
15,2343825873,-129.1914368,-73.24793243,-23.30336952,-0.18119451,0.15052089,0.01369381,15,2343825873,-143.4762573,-79.59883118,-59.93535995,-0.060443252,-0.006703489,0.17926598
16,2343842540,-129.2049103,-73.23659515,-23.26377869,-0.12906761,0.12996194,-0.001527786,16,2343842540,-143.4783936,-79.60473633,-59.9378891,-0.0489238,0.01844507,0.17030334
17,2343859207,-129.2063293,-73.22949982,-23.21652412,-0.07480409,0.057902597,0.002149582,17,2343859207,-143.4662628,-79.61038971,-59.94259644,-0.022364818,0.058601297,0.18059921
18,2343875874,-129.1729279,-73.22568512,-23.179245,-0.04901061,0.021828722,0.01647377,18,2343875874,-143.4301453,-79.6144104,-59.94716263,-0.009376508,0.049113564,0.1859951
19,2343892541,-129.1042786,-73.228302,-23.17389679,-0.010867479,-0.011686822,-0.001544952,19,2343892541,-143.3851471,-79.61800385,-59.94833374,-0.028543806,7.82E-04,0.17658901
20,2343909208,-129.0539246,-73.22839355,-23.15532875,0.02070828,-0.029115357,-0.030957222,20,2343909208,-143.3381042,-79.62166595,-59.95029068,-0.023591653,-0.029717555,0.1599083
21,2343925875,-129.0232239,-73.22229767,-23.12533379,0.03143967,-0.049567685,-0.008886337,21,2343925875,-143.2926178,-79.62693787,-59.95587158,-0.002621639,-0.07055745,0.1483345
22,2343942542,-128.9974518,-73.21456909,-23.09300804,0.046638217,-0.06453541,0.019569397,22,2343942542,-143.2479858,-79.62927246,-59.97209549,-0.005472701,-0.05460645,0.16402149
23,2343959209,-128.9729614,-73.21105957,-23.07694244,0.065426655,-0.08169644,0.023087502,23,2343959209,-143.2036133,-79.63001251,-59.99619675,0.003561288,-0.053272694,0.17976761
24,2343975876,-128.9264374,-73.21791077,-23.09317589,0.055657633,-0.049554944,0.07247639,24,2343975876,-143.1701813,-79.62840271,-60.02165985,0.014648159,-0.057510555,0.18708229
25,2343992543,-128.8578491,-73.23549652,-23.13805771,0.049181093,-0.03839159,0.049099922,25,2343992543,-143.1415863,-79.62608337,-60.04916,0.014291908,-0.010566854,0.18817234
27,2344025877,-128.7420807,-73.27693939,-23.22546196,0.0055144,-0.006560552,-0.09993744,26,2344009210,-143.1185303,-79.62502289,-60.06201935,0.024450222,0.03241787,0.14678478
28,2344042544,-128.708313,-73.27950287,-23.25998688,-0.024215141,-0.009430794,-0.055174828,27,2344025877,-143.1038361,-79.61960602,-60.05096817,0.01316096,0.043917112,0.15445423
30,2344075878,-128.6221466,-73.27625275,-23.36827469,-0.07254708,-0.070717044,0.014436722,28,2344042544,-143.0849915,-79.61463928,-60.0445137,-0.042831227,-0.016913058,0.1648798
32,2344109212,-128.5703583,-73.28842163,-23.45777321,-0.0500222,0.006888669,-0.024154663,29,2344059211,-143.0536499,-79.61147308,-60.06406784,-0.08649416,-0.042101346,0.20631981
34,2344142546,-128.5630646,-73.29098511,-23.47148705,-0.027043978,0.017275205,-0.039004326,30,2344075878,-143.0139771,-79.61069489,-60.1085701,-0.058261182,-0.044969186,0.18583679
36,2344175880,-128.541748,-73.26977539,-23.48911285,-0.022663208,0.015541079,-0.013142586,31,2344092545,-142.9755859,-79.61032104,-60.16585159,-0.01291036,-0.001850687,0.17928314
39,2344225881,-128.5195007,-73.24037933,-23.52216339,0.09518573,0.00154928,-0.00390625,32,2344109212,-142.927124,-79.61092377,-60.22794724,-0.029609166,0.058009155,0.1418066
41,2344259215,-128.5227203,-73.23693085,-23.53728867,0.07781478,0.008107038,-0.012420654,33,2344125879,-142.8695068,-79.6112442,-60.28453445,-0.018127069,0.041366324,0.1535263
43,2344292549,-128.5383911,-73.24201202,-23.5795269,0.023990791,-0.01898318,-0.002325058,34,2344142546,-142.7949982,-79.61175537,-60.35276794,-0.040896304,0.011308415,0.18826103
45,2344325883,-128.5134735,-73.2486496,-23.71957397,-0.080158785,0.004471377,-9.78E-04,35,2344159213,-142.7201843,-79.61270905,-60.42594528,-0.049612205,-0.029994154,0.17590618
46,2344342550,-128.5354614,-73.25468445,-23.75993347,-0.097911164,0.040262617,-0.016075134,36,2344175880,-142.6325684,-79.61514282,-60.51639938,-0.02948337,-0.05628218,0.16869926
50,2344409218,-128.6623993,-73.24578094,-23.75402641,-0.08336863,0.20505895,0.013674736,37,2344192547,-142.5520782,-79.61558533,-60.60340881,-0.008140342,-0.024995733,0.15956116
52,2344442552,-128.6070251,-73.2556076,-23.79277039,-0.09692497,0.1925581,0.016958237,38,2344209214,-142.4749756,-79.6151886,-60.68791962,-9.64E-04,0.004505798,0.18571854
54,2344475886,-128.5957642,-73.24945068,-23.73368835,-0.049247056,0.077360965,-2.93E-04,39,2344225881,-142.392334,-79.61180115,-60.76573563,0.031499248,0.021343755,0.18764877
55,2344492553,-128.5812531,-73.24188232,-23.70357323,-0.03432656,0.021043409,0.015778542,40,2344242548,-142.3074951,-79.60749817,-60.84177017,0.052202288,0.007072453,0.19060326
57,2344525887,-128.5434875,-73.24562073,-23.67824745,0.044899296,-0.09204688,-0.032263756,41,2344259215,-142.2528076,-79.60066223,-60.89395142,0.030779593,-0.021656394,0.1550827
61,2344592555,-128.4858856,-73.27902985,-23.74781418,-0.073086224,0.023827488,0.056570053,42,2344275882,-142.2167358,-79.59306335,-60.93832016,-0.007659775,-0.0498934,0.13964367
63,2344625889,-128.5201111,-73.32709503,-23.73030472,-0.12696964,0.1235726,-0.012070656,43,2344292549,-142.1894989,-79.58396912,-60.98954773,-0.022262253,-0.043730423,0.16529274
64,2344642556,-128.5094299,-73.34286499,-23.73457909,-0.12731527,0.1234338,-0.050811768,44,2344309216,-142.1508484,-79.57495117,-61.05892944,-0.01608131,-7.74E-04,0.21334553
66,2344675890,-128.4689636,-73.3345871,-23.75486565,-0.078274965,0.02796337,-0.00829792,45,2344325883,-142.1175537,-79.56728363,-61.12312317,0.003174219,0.053840358,0.20142174
68,2344709224,-128.442337,-73.33206177,-23.76051331,-0.014691549,-0.049565405,0.03319931,46,2344342550,-142.1102905,-79.56161499,-61.1539917,0.020154694,0.073872656,0.16335869
70,2344742558,-128.4102325,-73.36448669,-23.78680611,-0.04856568,-0.02023284,-0.012516975,47,2344359217,-142.0861969,-79.55659485,-61.19138718,0.023730231,0.059103474,0.14822769
72,2344775892,-128.4151611,-73.38347626,-23.79243851,-0.051167704,-1.57E-04,-0.0138731,48,2344375884,-142.0657501,-79.55119324,-61.22913742,-0.004523427,0.019640362,0.17560863
73,2344792559,-128.4271698,-73.38228607,-23.79226685,-0.041287117,-0.004580898,0.0160141,49,2344392551,-142.0652313,-79.54705811,-61.2481041,-0.006632663,0.03405499,0.20642376
75,2344825893,-128.489563,-73.38410187,-23.75801468,0.072303034,-0.020348173,-0.023797035,50,2344409218,-142.0771484,-79.54549408,-61.25066376,0.006324998,0.055351865,0.18016815
77,2344859227,-128.487915,-73.40484619,-23.80245781,0.04950509,-0.048930004,-0.02128601,51,2344425885,-142.0838776,-79.54537201,-61.24444962,0.041821312,0.09999193,0.17685413
81,2344925895,-128.4560699,-73.45425415,-23.94202232,-0.11090568,-0.003350906,-0.02735138,52,2344442552,-142.0999451,-79.54464722,-61.21174622,0.05842049,0.08851091,0.16395855
82,2344942562,-128.4760742,-73.45182037,-23.91724396,-0.14738648,0.017377462,-0.030591011,53,2344459219,-142.1169128,-79.5426712,-61.16516495,0.019519052,0.051101096,0.16550732
84,2344975896,-128.5074463,-73.4311142,-23.84660721,-0.05340736,0.06453143,-0.02904129,54,2344475886,-142.1405182,-79.54177856,-61.1094017,-0.016391616,-0.02800377,0.17967033
86,2345009230,-128.6118317,-73.39476776,-23.71133614,0.13093582,0.06616051,-0.020832062,55,2344492553,-142.1740723,-79.54150391,-61.06016922,-0.039065372,-0.009593902,0.19777012
88,2345042564,-128.6926727,-73.36636353,-23.64758682,0.1995438,-0.012424415,8.33E-04,56,2344509220,-142.2041016,-79.54242706,-61.02620316,-0.03172304,0.017819347,0.14746761
90,2345075898,-128.713974,-73.36252594,-23.67981911,0.12795179,0.00239483,0.070674896,57,2344525887,-142.2396393,-79.54345703,-60.98720932,-0.010475884,0.055316944,0.14680195
91,2345092565,-128.7171173,-73.37440491,-23.72306252,0.06090812,1.28E-04,0.12129116,58,2344542554,-142.2689819,-79.54351807,-60.94715118,-0.019322919,0.006369393,0.16561222
93,2345125899,-128.6504669,-73.43797302,-23.87784386,-0.093852445,0.03334746,-0.004964829,59,2344559221,-142.3053741,-79.54589844,-60.90081406,-0.049020246,-0.035695132,0.20623207
95,2345159233,-128.5341187,-73.48615265,-24.03763962,-0.23852001,0.063949406,-0.077604294,60,2344575888,-142.3472595,-79.55062866,-60.85756683,-0.032143496,-0.014565446,0.19629288
97,2345192567,-128.4715729,-73.47964478,-24.032547,-0.2222453,0.077157676,-0.034482956,61,2344592555,-142.3937683,-79.55665588,-60.81272125,0.015382567,0.036517937,0.15048122
99,2345225901,-128.4815063,-73.45884705,-23.88920975,-0.17080522,0.100153476,-0.006674767,62,2344609222,-142.4402161,-79.56118011,-60.76159668,-0.002596452,0.066853784,0.18026638
100,2345242568,-128.5023346,-73.44728088,-23.81442451,-0.10879088,0.09712398,-0.06978226,63,2344625889,-142.4762726,-79.56602478,-60.71403885,-0.026102904,0.05911476,0.19680023
102,2345275902,-128.5410156,-73.39009094,-23.69649887,0.06359332,-0.03692445,0.0067482,64,2344642556,-142.522644,-79.57411957,-60.65921783,-0.048158564,0.015370595,0.17225075
104,2345309236,-128.5789337,-73.34990692,-23.6195507,0.16292617,-0.1736271,0.086081505,65,2344659223,-142.5722809,-79.58242035,-60.60872269,-0.05985835,-0.02190019,0.15523243
106,2345342570,-128.5937347,-73.38926697,-23.63778114,0.10458368,-0.10401175,-0.036126137,66,2344675890,-142.616684,-79.59060669,-60.57362747,-0.05137427,-0.001227198,0.17251682
108,2345375904,-128.5415955,-73.41547394,-23.75424385,-0.010920648,0.025030322,-0.009947777,67,2344692557,-142.6641541,-79.60102844,-60.53617096,-0.03652572,0.051179886,0.16761875
109,2345392571,-128.5102539,-73.42032623,-23.8114109,-0.018903663,0.05592484,0.014639854,68,2344709224,-142.7049408,-79.61115265,-60.49304581,-0.015441742,0.08117331,0.1737585
111,2345425905,-128.4522095,-73.43521118,-23.89705086,-0.064919785,0.103969954,0.001252174,69,2344725891,-142.7433472,-79.62322235,-60.4370575,-0.01616823,0.0420063,0.1765995
115,2345492573,-128.3656769,-73.43730927,-23.98880386,-0.09364832,-6.77E-04,0.003503799,70,2344742558,-142.7760773,-79.63584137,-60.38799286,-0.048650153,-0.02030196,0.1709156
118,2345542574,-128.3539581,-73.43032837,-24.04140663,-0.007482864,-0.050473697,-0.0367651,71,2344759225,-142.802536,-79.64793396,-60.35664749,-0.056121897,-0.06357485,0.19147015
120,2345575908,-128.3833466,-73.42699432,-24.0024147,-0.023514792,-0.002700595,0.01103878,72,2344775892,-142.8316956,-79.66062164,-60.33259201,-0.033459723,-0.035952672,0.20715523
122,2345609242,-128.4122772,-73.42485046,-23.95694923,-0.07645294,0.16968009,0.008401871,73,2344792559,-142.848465,-79.67488098,-60.32804871,-0.007874766,0.008916714,0.19193459
124,2345642576,-128.4239502,-73.40908813,-23.94039154,-0.022090986,0.16925317,0.001227379,74,2344809226,-142.8766327,-79.68807983,-60.31597519,-0.005257151,0.005675609,0.11966324
126,2345675910,-128.4063263,-73.38677979,-23.91909599,0.101641834,-0.037308224,-0.012440681,75,2344825893,-142.9120789,-79.69879913,-60.30023575,-0.018373715,-0.020342194,0.12514019
127,2345692577,-128.392334,-73.38118744,-23.90838814,0.10521259,-0.09203336,-0.01878357,76,2344842560,-142.9422913,-79.7091217,-60.29029083,-0.012461811,-0.018953117,0.1730957
129,2345725911,-128.3857422,-73.38362122,-23.90527725,0.034032196,-0.14984499,-0.0239954,77,2344859227,-142.9726257,-79.71797943,-60.27913666,-0.024672087,-0.019758936,0.21607494
131,2345759245,-128.4106445,-73.38430786,-23.9276371,-0.030593155,-0.052629925,-2.87E-04,78,2344875894,-142.9919128,-79.72767639,-60.27710342,-0.025383249,0.014528734,0.19857693
133,2345792579,-128.4569702,-73.38931274,-23.94469261,-0.06401757,0.10091286,-0.014144897,79,2344892561,-142.9991913,-79.73747253,-60.27824402,-0.028030746,0.016063485,0.17307758
135,2345825913,-128.5358429,-73.38061523,-23.89281464,-0.11062195,0.19172439,0.033150673,80,2344909228,-142.9976196,-79.74567413,-60.28279114,-0.0498057,0.029836632,0.1565609
138,2345875914,-128.536499,-73.36362457,-23.83904266,-0.13679169,0.11873746,0.004098892,81,2344925895,-142.9896851,-79.75495148,-60.28977966,-0.043047395,0.014185473,0.16238403
140,2345909248,-128.5506744,-73.34494781,-23.73139954,-0.08233904,-0.04019959,-0.040906906,82,2344942562,-142.955719,-79.76599884,-60.32453156,-0.0873291,-0.031902786,0.20314884
142,2345942582,-128.6095123,-73.31123352,-23.55439377,-0.004279365,-0.088397585,-0.058563232,83,2344959229,-142.9065857,-79.77613068,-60.3819809,-0.058244556,-0.031098364,0.22030449
144,2345975916,-128.6756439,-73.26633453,-23.39655685,0.022543838,-0.08356032,0.019201279,84,2344975896,-142.8486481,-79.78781891,-60.45095825,-0.011762761,-0.004598612,0.18540287
145,2345992583,-128.6955261,-73.2534256,-23.35439873,0.031767562,-0.06688782,0.030243874,85,2344992563,-142.7959595,-79.79776001,-60.51874161,0.009755139,0.01650984,0.1546526
147,2346025917,-128.7458496,-73.25944519,-23.30286598,0.05951907,-0.022388957,0.021785736,86,2345009230,-142.7595825,-79.80509186,-60.56244278,0.04070622,-0.019942775,0.13756275
149,2346059251,-128.7742157,-73.27313995,-23.29518127,-0.003700425,0.06706394,-0.03285408,87,2345025897,-142.7249603,-79.80930328,-60.60250092,0.042548332,-0.0354667,0.16307735
151,2346092585,-128.7766266,-73.2664032,-23.32035255,-0.086767256,0.07611186,-0.010263443,88,2345042564,-142.711319,-79.80953217,-60.61916733,0.063273095,-0.025709521,0.16336155
153,2346125919,-128.7796631,-73.24382019,-23.3289547,-0.08476388,0.025408283,0.029088974,89,2345059231,-142.7081146,-79.80834961,-60.62216568,0.077848375,-0.034093827,0.16543579
154,2346142586,-128.7924805,-73.24030304,-23.31444359,-0.0720974,-0.007248972,0.006933212,90,2345075898,-142.7290649,-79.80265808,-60.59638214,0.10813124,-0.020654218,0.16845322
158,2346209254,-128.8628235,-73.21599579,-23.21845055,-0.005850535,-0.025952872,0.020533562,91,2345092565,-142.7705078,-79.79444122,-60.55015945,0.10052403,-0.021188246,0.17191505
160,2346242588,-128.8825531,-73.20751953,-23.21977425,-0.013508368,-0.03231327,-0.019990921,92,2345109232,-142.8431091,-79.78366089,-60.48278046,0.016884197,-0.039287988,0.15118217
162,2346275922,-128.9139557,-73.20788574,-23.22592545,-0.011449535,0.02409872,0.023679733,93,2345125899,-142.9348907,-79.77285767,-60.40756607,-0.07289173,-0.018401207,0.13786983
163,2346292589,-128.9143066,-73.21138,-23.24213791,-0.02154866,0.049175642,0.024962425,94,2345142566,-143.0076141,-79.76042175,-60.35275269,-0.10739034,0.017545432,0.16397285
165,2346325923,-128.8949432,-73.22572327,-23.28427315,-0.05291915,0.13325708,0.036263466,95,2345159233,-143.0379944,-79.75251007,-60.33815765,-0.0952319,0.04981936,0.21853447
167,2346359257,-128.8527527,-73.24591064,-23.33475494,-0.11133102,0.12200946,-0.020244598,96,2345175900,-143.0496979,-79.74893951,-60.33584976,-0.090085246,0.077328496,0.2108612
169,2346392591,-128.8733521,-73.23292542,-23.31159592,-0.075896844,0.06979706,-0.018704414,97,2345192567,-143.0348816,-79.74974823,-60.33895111,-0.091078654,0.10441005,0.17299175
171,2346425925,-128.8596649,-73.21244812,-23.29679489,-0.012640831,-0.0559292,0.004393578,98,2345209234,-142.9868164,-79.75435638,-60.36524582,-0.106043026,0.0901326,0.19574165
172,2346442592,-128.84021,-73.20898438,-23.30056763,1.20E-04,-0.06665536,0.006835938,99,2345225901,-142.9155426,-79.76039886,-60.40455627,-0.078693114,0.049816567,0.1911726
174,2346475926,-128.851532,-73.22031403,-23.26329041,-0.004721767,-0.03743797,0.00226593,100,2345242568,-142.8374481,-79.76863098,-60.44733047,-0.05159484,0.029474486,0.16352081
178,2346542594,-128.9074249,-73.24851227,-23.24106598,-0.025551302,0.08621107,-0.015400887,101,2345259235,-142.7601929,-79.77726746,-60.49225235,0.00462616,-0.008149617,0.17102242
180,2346575928,-128.9276123,-73.2407608,-23.24520683,-0.03993802,0.06545633,0.021455765,102,2345275902,-142.692688,-79.78500366,-60.53700638,0.01467593,-0.061141465,0.1979475
181,2346592595,-128.935318,-73.24015045,-23.24398422,-0.04505932,0.036016542,0.036930084,103,2345292569,-142.6325684,-79.79413605,-60.58917999,0.007675756,-0.06665268,0.18511009
183,2346625929,-128.9426117,-73.25402832,-23.24411201,-0.052808147,0.016590025,0.011648178,104,2345309236,-142.605484,-79.80229187,-60.62536621,0.01246617,-0.07695082,0.15949917
185,2346659263,-128.9209595,-73.27069855,-23.26215363,-0.027006233,-0.007416942,-0.016330719,105,2345325903,-142.5963287,-79.80916595,-60.65176773,0.02733636,-0.026650567,0.13200092
187,2346692597,-128.9068451,-73.28567505,-23.24769592,-0.067285866,-0.030384462,0.013547897,106,2345342570,-142.5829468,-79.81155396,-60.673069,0.03312501,-0.007948959,0.14861298
189,2346725931,-128.8765106,-73.30294037,-23.22690582,-0.12945127,0.01697715,0.056991577,107,2345359237,-142.5658417,-79.81008911,-60.691185,0.049316626,-0.003048549,0.18336678
190,2346742598,-128.8487091,-73.3199234,-23.22391701,-0.13494885,0.05412679,0.035990715,108,2345375904,-142.5696564,-79.80838776,-60.68750763,0.013539884,-0.047287967,0.16191673
194,2346809266,-128.6884766,-73.34306335,-23.19244576,-0.055026766,-6.80E-04,-0.027744293,109,2345392571,-142.5820923,-79.80516815,-60.6843605,-0.03106418,-0.02718007,0.17100334
196,2346842600,-128.6146698,-73.34093475,-23.11970139,-0.05138817,-0.13623953,0.004227638,110,2345409238,-142.5944824,-79.8015976,-60.68574524,-0.035460737,-0.006871626,0.17695522
198,2346875934,-128.5455017,-73.35502625,-23.09565544,-0.03702316,-0.119681574,-0.06335831,111,2345425905,-142.5957794,-79.79718018,-60.6995163,-0.021016756,0.029918214,0.18939781
199,2346892601,-128.5469818,-73.3500824,-23.05932045,0.008094298,-0.0937296,-0.07677555,112,2345442572,-142.5952606,-79.79404449,-60.71231079,-0.010117691,0.0466742,0.17153263
201,2346925935,-128.5759277,-73.31745911,-22.97159004,0.004804104,-0.061982937,0.06508255,113,2345459239,-142.5921478,-79.79026031,-60.71061707,0.019392949,0.0658448,0.20346165
203,2346959269,-128.6273804,-73.31739807,-22.92028046,0.037350077,0.06578378,0.008206368,114,2345475906,-142.592514,-79.78726196,-60.70068359,-0.01714621,0.02709698,0.18673325
205,2346992603,-128.6355743,-73.30915833,-22.92923355,0.08235432,0.09400826,0.026435852,115,2345492573,-142.6029053,-79.78770447,-60.68699646,-0.06399514,-0.020788549,0.16880989
207,2347025937,-128.5737305,-73.32003784,-23.00997543,0.017962785,0.06880344,0.05930996,116,2345509240,-142.6062469,-79.78779602,-60.68839645,-0.09093207,-0.018224688,0.16754627
208,2347042604,-128.5334473,-73.34182739,-23.06997299,-1.70E-04,0.07238892,0.014314652,117,2345525907,-142.5881958,-79.78827667,-60.72320938,-0.072373845,-0.023060614,0.17487717
210,2347075938,-128.4918213,-73.38109589,-23.17198372,-0.013402256,-0.007349218,-0.11850071,118,2345542574,-142.5615997,-79.7897644,-60.77285767,-0.059055742,0.01263664,0.17186737
212,2347109272,-128.5453033,-73.35224152,-23.16111374,0.013351044,-0.11621132,-0.07980251,119,2345559241,-142.5264893,-79.79332733,-60.82112122,-0.018369524,0.04291376,0.17686844
216,2347175940,-128.627182,-73.34749603,-23.32406425,0.08740184,-0.07300011,-0.022299767,120,2345575908,-142.4770355,-79.79734039,-60.86738968,0.00489735,0.0804422,0.19680882
217,2347192607,-128.6452789,-73.35906219,-23.38941002,0.053273477,0.004751215,-0.056598663,121,2345592575,-142.4246979,-79.80231476,-60.90703201,0.008340931,0.06274657,0.20023346
219,2347225941,-128.7663727,-73.3620224,-23.42414093,-0.060652588,0.09752105,0.030481339,122,2345609242,-142.3785248,-79.80643463,-60.93482208,0.013512839,-0.006135989,0.16991806
221,2347259275,-128.8102112,-73.38217163,-23.50889015,-0.2091838,0.11607553,0.02924633,123,2345625909,-142.3399811,-79.80879211,-60.95946503,0.05210534,-0.05846786,0.1587286
223,2347292609,-128.7332458,-73.40300751,-23.64644432,-0.24952435,0.16372469,0.015583992,124,2345642576,-142.3256836,-79.80818176,-60.97367859,0.030951865,-0.064746395,0.1488514
225,2347325943,-128.7971191,-73.42436218,-23.57934952,-0.116775796,0.098138615,-0.072442055,125,2345659243,-142.3255157,-79.80484009,-60.98163605,0.017504683,-0.018306047,0.1617899
226,2347342610,-128.7852631,-73.40454865,-23.563097,-0.12342754,0.048515946,-0.027107239,126,2345675910,-142.3243256,-79.80117035,-60.98953247,0.022585258,0.002705066,0.17645264
228,2347375944,-128.6857605,-73.34994507,-23.57839775,0.009737062,-0.00483995,0.017245293,127,2345692577,-142.3352051,-79.79550171,-60.98038864,0.008008204,5.06E-04,0.17976093
230,2347409278,-128.7144012,-73.31903839,-23.4822216,0.19267249,-0.16147883,0.03299141,128,2345709244,-142.3421478,-79.79032135,-60.97027206,-0.028329652,-0.031079086,0.15216827
232,2347442612,-128.6904297,-73.33423615,-23.48720932,0.16573086,-0.23128495,-0.076797485,129,2345725911,-142.3534851,-79.7832489,-60.9577713,-0.04610058,-0.02650439,0.1624775
235,2347492613,-128.7160492,-73.36070251,-23.62309837,-0.044262145,-0.061934657,-0.020730972,130,2345742578,-142.3502808,-79.77606964,-60.96519089,-0.016666047,-0.007437058,0.16985989
237,2347525947,-128.7269287,-73.3371582,-23.77598,-0.093371026,0.01196342,0.055099487,131,2345759245,-142.3483429,-79.76707458,-60.97132492,-0.006803581,0.001612199,0.18639278
239,2347559281,-128.7326813,-73.36820984,-23.87561989,-0.15269478,0.18434489,0.08179474,132,2345775912,-142.336731,-79.76096344,-60.98839188,-0.016211981,0.030198555,0.16338444
241,2347592615,-128.6492004,-73.40955353,-23.9642601,-0.23260286,0.2774938,0.08562946,133,2345792579,-142.3464661,-79.75579071,-60.99095917,-0.03150285,0.016298229,0.15073872
243,2347625949,-128.4107666,-73.4777832,-24.12249184,-0.26118,0.25222665,-0.011257172,134,2345809246,-142.3456116,-79.75081635,-61.00716782,-0.014706356,0.05984129,0.17457676
244,2347642616,-128.3096466,-73.50284576,-24.1553936,-0.2822435,0.16984604,-0.04269123,135,2345825913,-142.3470306,-79.74640656,-61.0122757,0.016161704,0.07547792,0.20923042
246,2347675950,-128.1096191,-73.52519226,-24.18345642,-0.26060197,-0.018969657,-0.05322838,136,2345842580,-142.346283,-79.74573517,-61.00410843,0.004073789,0.057833977,0.21460533
248,2347709284,-127.9191208,-73.55043793,-24.20154381,-0.12804103,-0.13872533,-0.07304859,137,2345859247,-142.3352661,-79.74813843,-60.99738693,-0.028231977,0.026081,0.17094994
250,2347742618,-127.6874542,-73.53377533,-24.3483429,-0.116289236,-0.1859335,0.013090134,138,2345875914,-142.3091583,-79.74915314,-61.0026207,-0.044916704,0.027331332,0.16164494
252,2347775952,-127.6059265,-73.54684448,-24.42803001,0.12005655,-0.21945608,0.06477356,139,2345892581,-142.2606506,-79.751091,-61.02479553,-0.06604204,0.010179507,0.19004917
255,2347825953,-127.3354645,-73.67005157,-24.77184296,0.078077435,-0.06623639,0.07410145,140,2345909248,-142.1980438,-79.754776,-61.06401062,-0.06306908,0.026404032,0.19482708
257,2347859287,-126.988121,-73.77226257,-25.27826118,-0.18087867,-0.06173305,0.060962677,141,2345925915,-142.125824,-79.76153564,-61.11347198,-0.051891383,0.03474442,0.17681408
259,2347892621,-126.6445236,-73.92327118,-25.77908134,-0.22562131,-0.07084198,0.050533295,142,2345942582,-142.0405273,-79.76779938,-61.16628265,-0.037004527,0.002288214,0.14006424
261,2347925955,-126.0899124,-74.08053589,-26.48522758,-0.33959863,-0.016563874,0.04725361,143,2345959249,-141.9493256,-79.772789,-61.22089767,-0.03615424,-0.037131816,0.17960835
262,2347942622,-125.6870804,-74.16293335,-26.9503212,-0.4644705,0.002568164,0.15801811,144,2345975916,-141.8639069,-79.77792358,-61.28280258,-0.018575603,-0.054772854,0.18655968
264,2347975956,-124.6385193,-74.40885925,-28.11224747,-0.7293786,-0.032527395,0.038279533,145,2345992583,-141.7994232,-79.7811203,-61.34199905,-0.004247347,-0.088107295,0.15078545
266,2348009290,-123.4127197,-74.63890076,-29.51247978,-0.68261224,-0.2381127,0.1687603,146,2346009250,-141.7437134,-79.78234863,-61.40411758,0.028018452,-0.021286536,0.12957
268,2348042624,-122.0195847,-74.89672852,-31.16295624,-0.40046754,-0.33297396,0.25343037,147,2346025917,-141.701355,-79.78013611,-61.44987488,0.035189614,0.02340583,0.16888428
270,2348075958,-120.386795,-75.34494781,-33.13325119,-0.24610643,-0.08869877,-0.047493935,148,2346042584,-141.6767883,-79.77745819,-61.47363663,0.03420743,0.030998956,0.18116856
271,2348092625,-119.6258774,-75.61267853,-34.12865067,-0.16202536,0.11219445,-0.22812843,149,2346059251,-141.6556396,-79.77713013,-61.48984528,0.011385107,0.047823224,0.18808556
275,2348159293,-116.3289948,-76.48016357,-38.07978058,-0.52638936,-0.24117036,0.16729546,150,2346075918,-141.6391602,-79.77825165,-61.49842453,-0.010859698,0.027797803,0.1622057
277,2348192627,-113.1534653,-77.14738464,-41.95211029,-0.54850185,-0.61807656,0.41519737,151,2346092585,-141.630722,-79.77801514,-61.50536346,-0.042476766,-0.016372493,0.15966797
279,2348225961,-107.5277939,-77.90827179,-48.94264984,0.18081279,-0.6145132,-0.12037563,152,2346109252,-141.6240234,-79.7767868,-61.52339935,-0.03955295,-0.017543923,0.20381546
280,2348242628,-104.2557449,-78.21785736,-52.94449997,0.5353239,-0.6063827,-0.4330988,153,2346125919,-141.6100006,-79.77670288,-61.55263519,-0.020780852,0.012580706,0.18916893
282,2348275962,-98.12501526,-78.59938049,-60.38629913,0.49767563,-0.88274616,-0.42076683,154,2346142586,-141.5928802,-79.77838135,-61.58040619,-0.010614015,0.042982772,0.16510677
284,2348309296,-93.31882477,-78.70167542,-66.5109787,-0.39303106,-0.24032336,-0.20270538,155,2346159253,-141.569519,-79.78157806,-61.60424423,-0.008050908,0.041505296,0.17158794
286,2348342630,-89.31349945,-78.68441772,-71.55625916,-0.52112067,0.6490592,-0.40304756,156,2346175920,-141.5422516,-79.78294373,-61.62720108,-0.012858518,0.013456151,0.18647671
288,2348375964,-85.89508057,-78.70346832,-75.78936768,-0.17815408,0.18685058,0.40490818,157,2346192587,-141.5136261,-79.7861557,-61.6511879,-0.047426432,-0.0057126,0.19445705
289,2348392631,-83.82994843,-78.75492859,-78.31197357,-0.20411964,-0.13440046,0.84130764,158,2346209254,-141.4835663,-79.78941345,-61.68800735,-0.04447299,-0.022244848,0.19236374
291,2348425965,-77.54502106,-78.79592133,-85.65615082,0.15745294,0.36785585,0.5847359,159,2346225921,-141.4395447,-79.79342651,-61.74239731,-0.01379677,-0.026549315,0.15684032
293,2348459299,-67.69164276,-78.40588379,-96.37882996,1.1260495,1.2895501,0.265193,160,2346242588,-141.3994446,-79.79512024,-61.79595184,0.004250448,0.01953548,0.14457989
295,2348492633,-57.71047592,-77.30157471,-107.0368271,1.4160255,1.5016506,-0.41951084,161,2346259255,-141.3723145,-79.79647064,-61.83338165,0.027531361,0.019536206,0.1610384
298,2348542634,-44.93688202,-74.14784241,-119.3946304,1.6224526,1.1499797,0.5241022,162,2346275922,-141.352829,-79.79702759,-61.8628273,0.033014372,0.022565812,0.18623066
300,2348575968,-36.73775101,-71.24469757,-126.2269821,1.4471661,1.8082116,-0.18280125,163,2346292589,-141.3589783,-79.79711151,-61.86649323,0.0283206,0.028368488,0.16283989
302,2348609302,-30.60653496,-68.68230438,-130.6171722,0.6207533,1.1861045,-0.6282406,164,2346309256,-141.3665161,-79.79647064,-61.8713913,-0.007534622,0.011215825,0.16939831
304,2348642636,-26.0668602,-65.83312988,-133.4791718,-0.19972461,1.3016672,-1.3091259,165,2346325923,-141.3877106,-79.79624176,-61.85873413,-0.003442393,0.06597069,0.20665455
306,2348675970,-21.68604851,-63.18491364,-135.493927,-1.4520912,0.23182842,-2.3452282,166,2346342590,-141.4098816,-79.79689789,-61.8433342,-0.007768961,0.06606395,0.2029829
307,2348692637,-19.12719536,-61.86763,-136.674881,-1.3632544,-0.80123097,-1.70718,167,2346359257,-141.4343414,-79.79932404,-61.823452,-0.003058747,0.03828615,0.1769638
309,2348725971,-14.40988064,-58.7665863,-139.1621246,0.19966835,-1.3867879,-0.94874954,168,2346375924,-141.4632111,-79.80125427,-61.79831696,-0.003113102,-0.006930019,0.14198112
313,2348792639,-9.787133217,-52.86360931,-140.842041,0.18295605,-1.6457698,-1.4080915,169,2346392591,-141.480896,-79.80292511,-61.78163147,-0.026739553,0.008897771,0.16210747
315,2348825973,-9.726306915,-50.27446365,-140.947403,-0.007121193,-0.38341692,-0.99461937,170,2346409258,-141.5007782,-79.80453491,-61.76536179,-0.03523542,-0.005149236,0.1922884
316,2348842640,-10.26125336,-48.76551056,-141.146286,0.41405702,-0.08719341,-0.7230177,171,2346425925,-141.5167236,-79.80755615,-61.75581741,-0.030238314,0.012310367,0.18371964
318,2348875974,-10.71690464,-45.68334961,-141.5283051,0.8454185,0.38540027,0.31446457,172,2346442592,-141.5294647,-79.81145477,-61.74790955,-0.018798096,0.007258025,0.17733765
320,2348909308,-10.44031811,-43.04166794,-141.8085175,-1.0002981,0.91347843,-0.46692467,173,2346459259,-141.5384064,-79.81445313,-61.74110031,-0.004319528,0.008758634,0.18367386
322,2348942642,-10.08393669,-40.56296921,-142.5155029,-0.21365444,1.0146831,0.016643524,174,2346475926,-141.5512085,-79.81678772,-61.72694016,0.0189633,0.007188847,0.1788292
324,2348975976,-8.926303864,-37.94678116,-142.9712372,0.27924466,0.13597679,-0.09065914,175,2346492593,-141.5612793,-79.81924438,-61.71435165,-0.001369883,0.009039031,0.17407513
325,2348992643,-8.384254456,-36.76895523,-143.0439911,0.20921794,-0.320956,-0.29071426,176,2346509260,-141.5757751,-79.82157898,-61.69739151,-0.017819222,0.004277926,0.17360592
327,2349025977,-7.765645027,-34.50047302,-143.2380066,-0.062287185,-1.0801013,0.60096455,177,2346525927,-141.6015472,-79.8253479,-61.67058563,-0.014380936,0.016404845,0.18140125
329,2349059311,-7.783164501,-32.27579117,-143.3704224,-0.77586794,0.46011266,0.71060085,178,2346542594,-141.62146,-79.83033752,-61.64770889,-0.012575579,0.012829923,0.17759895
333,2349125979,-7.607791901,-28.47372437,-142.96315,-0.44057673,0.21258233,0.5467377,179,2346559261,-141.6433411,-79.83517456,-61.63053131,-0.0088927,0.018770786,0.1859932
334,2349142646,-7.637691975,-27.67743301,-142.7681885,-0.074233666,-0.19129926,1.0452967,180,2346575928,-141.6808319,-79.84085083,-61.60321045,-0.00455546,0.024931977,0.1870718
336,2349175980,-7.7008214,-26.25360107,-142.4551086,0.23062636,-1.1026287,0.61163235,181,2346592595,-141.7250671,-79.84620667,-61.56832886,0.007203096,0.034993075,0.17004585
338,2349209314,-8.002466202,-24.96879005,-142.3892059,0.39071697,-0.28203553,0.70287037,182,2346609262,-141.7742615,-79.85033417,-61.52342987,0.003928268,0.011804837,0.15643024
340,2349242648,-8.311840057,-23.92408943,-142.528595,0.8074207,0.059662815,0.905077,183,2346625929,-141.8168182,-79.85423279,-61.48371124,-2.19E-04,-0.026614359,0.17586422
342,2349275982,-8.33258152,-23.07417488,-142.6313019,0.37366867,0.26960254,0.34084415,184,2346642596,-141.8638458,-79.85786438,-61.44063187,-0.042197987,-0.014300414,0.18680382
343,2349292649,-8.336338043,-22.75646019,-142.6629486,0.23669933,0.58525974,0.734478,185,2346659263,-141.8964996,-79.86299896,-61.40625,-0.06290149,0.03202801,0.17673302
345,2349325983,-8.407493591,-22.31823158,-142.7929535,0.4439179,0.31521747,1.0308876,186,2346675930,-141.903595,-79.86862946,-61.38469315,-0.03809865,0.03866601,0.17656136
347,2349359317,-8.467759132,-22.16328812,-142.786377,-0.002306911,0.4780199,1.1449451,187,2346692597,-141.897995,-79.87414551,-61.36730957,-0.039173383,0.003173437,0.20452881
349,2349392651,-8.459517479,-22.37978363,-142.5815735,0.48326665,-0.03695647,1.3883057,188,2346709264,-141.9009705,-79.88090515,-61.3496666,-0.023619732,-0.019060627,0.18552876
352,2349442652,-8.499147415,-23.37236977,-142.1338959,0.70615214,-0.4255428,1.3684807,189,2346725931,-141.9057922,-79.89107513,-61.3322525,-0.010850576,0.021724453,0.14875889
354,2349475986,-8.70691967,-24.55130005,-142.2088776,0.49112853,-0.5498462,1.292881,190,2346742598,-141.9053802,-79.90258789,-61.3138504,-0.005747412,0.06096327,0.16358662
356,2349509320,-9.239124298,-26.09921455,-142.3387756,0.20521931,0.05633253,1.5167007,191,2346759265,-141.8861542,-79.91199493,-61.30224609,-0.038067777,0.023526248,0.19759655
358,2349542654,-9.640912056,-28.02180672,-142.237915,0.03797379,0.33513388,1.0519323,192,2346775932,-141.864502,-79.92358398,-61.29030609,-0.05909972,-0.006309994,0.17711353
360,2349575988,-9.94000721,-30.23777962,-141.8546906,0.24965657,0.41540912,0.96891594,193,2346792599,-141.8400726,-79.93546295,-61.2889328,-0.055052903,-0.03239049,0.16413689
361,2349592655,-10.02312279,-31.46069145,-141.6014862,0.35834134,0.4159303,0.7570839,194,2346809266,-141.815567,-79.94636536,-61.2951622,-0.045181103,5.98E-04,0.17775345
363,2349625989,-10.08720016,-34.11597443,-141.1231537,0.27169535,0.7625468,0.46214294,195,2346825933,-141.7765198,-79.95850372,-61.31510925,-0.07230407,0.04205117,0.1757555
365,2349659323,-9.951910973,-37.02536392,-140.7741699,0.59963983,0.41992044,0.2573862,196,2346842600,-141.7262573,-79.9732666,-61.33776855,-0.07497975,0.043595307,0.16876793
367,2349692657,-9.66928196,-40.22889328,-140.3139954,0.22076905,0.15851684,-0.1164875,197,2346859267,-141.6543732,-79.98939514,-61.37069321,-0.057199076,0.010092393,0.16287231
369,2349725991,-9.449625969,-43.73903656,-139.6476288,0.13020484,-0.23327947,0.07809925,198,2346875934,-141.5673065,-80.00284576,-61.42420578,-0.07193162,-0.0368926,0.16601086
372,2349775992,-10.49647522,-49.22045898,-137.9580841,-0.332164,-0.8273929,0.08167744,199,2346892601,-141.4628143,-80.01750946,-61.50239944,-0.039362963,-0.040839616,0.19920635
374,2349809326,-12.31393242,-52.80244827,-136.2754364,-0.3172422,-1.6678369,-0.43189907,200,2346909268,-141.35289,-80.03382111,-61.6008606,-0.04354277,-0.016842036,0.22505665
376,2349842660,-14.89256477,-56.38931274,-134.4047394,-0.51524097,-2.0754018,-0.7556095,201,2346925935,-141.2626495,-80.05055237,-61.69058228,-0.006551249,-0.025851285,0.188694
378,2349875994,-19.20106697,-60.18645859,-132.273468,-0.39307678,-2.0162513,-1.1764078,202,2346942602,-141.187439,-80.0666275,-61.77422714,0.024514286,-0.005629342,0.13366508
379,2349892661,-21.97185326,-62.05812454,-130.9558105,-0.5416466,-1.5135858,-1.3545618,203,2346959269,-141.1175079,-80.07909393,-61.85308838,0.07546347,-0.01095314,0.16088104
381,2349925995,-28.29870605,-65.46972656,-127.6505814,-0.63983285,-0.2755412,-1.8097086,204,2346975936,-141.0619659,-80.08918762,-61.91478348,0.1100956,-0.03427113,0.20936108
383,2349959329,-35.6035881,-68.686409,-123.2152328,-0.21409576,0.52869296,-1.744914,205,2346992603,-141.0211487,-80.09738159,-61.96256256,0.09476022,-0.016494697,0.20675945
385,2349992663,-43.49109268,-71.7556839,-117.6877518,-0.0692294,1.3035793,-1.6623297,206,2347009270,-141.0198212,-80.10449219,-61.97704315,0.07008205,0.008445493,0.14739418
387,2350025997,-51.14031601,-74.40831757,-111.3632431,0.44866288,2.4757884,-1.563324,207,2347025937,-141.0483856,-80.10980225,-61.96781921,0.047821447,-0.05277029,0.15890598
388,2350042664,-54.96996689,-75.50610352,-107.6337509,0.61654663,2.648073,-1.220231,208,2347042604,-141.0750732,-80.1132431,-61.97254562,-2.09E-04,-0.020178415,0.15396976
390,2350075998,-62.05284119,-76.97013855,-99.92115021,0.17763107,2.8141453,0.4380932,209,2347059271,-141.1149292,-80.11451721,-61.95941925,-0.019161304,0.028185654,0.15853596
392,2350109332,-67.59325409,-77.48934174,-92.88404846,-0.7220265,2.0121794,1.3744602,210,2347075938,-141.1491699,-80.11933136,-61.94155121,-0.0389694,0.048612837,0.15098
394,2350142666,-72.15583038,-77.76133728,-85.89141083,-0.4807765,0.4015172,0.45815468,211,2347092605,-141.1554565,-80.12295532,-61.937603,-0.011678091,0.022428464,0.175951
396,2350176000,-76.37942505,-78.44067383,-78.54363251,-0.038069867,-0.85435706,-0.2938671,212,2347109272,-141.1580658,-80.12560272,-61.94473648,-0.043265752,-0.055356726,0.19049549
397,2350192667,-78.60397339,-78.83168793,-74.85417938,-0.035229478,-1.3701042,-0.29419327,213,2347125939,-141.1664429,-80.12896729,-61.96875,-0.080339216,-0.09052202,0.17660522
399,2350226001,-82.8387146,-79.26514435,-68.84947205,0.3299919,-2.1988363,-0.23202801,214,2347142606,-141.182312,-80.13321686,-62.00006485,-0.046296768,-0.041933935,0.13584042
401,2350259335,-85.73554993,-79.20063782,-66.1206131,0.6382925,-2.4176118,-0.1001215,215,2347159273,-141.1833801,-80.1335907,-62.04582214,0.020785658,0.014016498,0.1541357
403,2350292669,-88.06776428,-79.0209198,-65.46656799,0.3182205,-1.4647712,-0.023266792,216,2347175940,-141.1710205,-80.13207245,-62.09399414,0.028919546,0.032964192,0.2036953
405,2350326003,-88.88602448,-78.8579483,-66.84162903,-0.01043846,0.09934749,0.5367441,217,2347192607,-141.1738434,-80.1314621,-62.11997604,0.025117869,0.021479595,0.21159267
408,2350376004,-86.78869629,-78.55051422,-71.31758118,-0.6925647,1.7482039,0.2081995,218,2347209274,-141.2031097,-80.13398743,-62.11633682,0.018839488,0.020297378,0.1455288
410,2350409338,-85.15881348,-78.64476776,-73.58074951,-1.0095229,1.4941709,0.23436928,219,2347225941,-141.230957,-80.13564301,-62.11038208,-0.026040278,-0.001420816,0.13995361
412,2350442672,-83.46012878,-78.79294586,-74.89429474,-1.1666301,1.2184904,-0.10551453,220,2347242608,-141.2457428,-80.13578033,-62.11964417,-0.04619377,-0.033097073,0.17986584
414,2350476006,-81.75092316,-78.96374512,-75.57683563,-0.5943826,0.29243898,0.068743706,221,2347259275,-141.241272,-80.13695526,-62.15086365,-0.032077756,0.002657737,0.248065
415,2350492673,-80.18178558,-79.09360504,-76.64672852,-0.43634215,-0.29579896,0.22025585,222,2347275942,-141.2290802,-80.14248657,-62.19319153,0.030597778,0.05569781,0.23017693
417,2350526007,-75.78495026,-79.33052063,-80.42360687,-0.41079697,-1.0097419,0.17919827,223,2347292609,-141.2454681,-80.15016937,-62.18993759,0.016245928,0.15945844,0.11276722
419,2350559341,-69.50423431,-79.26902008,-86.86552429,-0.622396,-1.2580818,0.43345547,224,2347309276,-141.2623444,-80.15897369,-62.1558342,-0.051976528,0.1693048,0.060094833
421,2350592675,-59.38635254,-78.35825348,-97.60105133,-0.548213,-0.9311401,0.17923164,225,2347325943,-141.2318878,-80.16712952,-62.15431976,-0.111164436,0.04777718,0.20488071
423,2350626009,-51.40881729,-76.88312531,-106.9154663,0.83947754,0.34611103,-0.3072281,226,2347342610,-141.1742401,-80.17721558,-62.19996643,-0.09950611,-0.086607635,0.29418278
424,2350642676,-48.64176941,-76.00214386,-110.6451721,1.0380461,0.14527023,-0.053344727,227,2347359277,-141.1231995,-80.19185638,-62.26896286,-0.03539508,-0.13063288,0.22780609
428,2350709344,-38.69511032,-71.98369598,-122.6018524,0.12004638,1.5463331,0.035570145,228,2347375944,-141.0892181,-80.20571899,-62.32859802,0.029648533,-0.050827853,0.09514046
430,2350742678,-35.61710358,-69.72396851,-125.5919113,0.69941586,1.4746027,0.035510063,229,2347392611,-141.0307312,-80.21154022,-62.38916016,0.05988176,0.011373065,0.12301445
432,2350776012,-32.01074219,-67.22997284,-128.6183319,0.12959847,-0.046880502,-0.70392036,230,2347409278,-140.9564209,-80.21246338,-62.44571686,0.016467651,-0.02325792,0.18646431
433,2350792679,-29.37614822,-66.10177612,-130.3677826,0.09223854,-0.6763902,-1.5266552,231,2347425945,-140.8834534,-80.21173096,-62.50381851,-6.69E-04,-0.061186224,0.20481777
435,2350826013,-24.78344536,-64.04248047,-133.5010834,0.4709954,0.2669309,-1.3806868,232,2347442612,-140.822876,-80.21274567,-62.55656433,0.017172402,-0.03291139,0.13792515
437,2350859347,-21.0000515,-61.81097412,-136.0158539,0.3797637,0.11621791,-0.9382229,233,2347459279,-140.7716827,-80.21482086,-62.59965515,-0.009660677,0.006982377,0.11097145
439,2350892681,-17.87988472,-59.0247612,-137.6615448,0.5873685,-0.021031005,-0.910655,234,2347475946,-140.7165833,-80.21250916,-62.64474106,-0.05231948,-0.01135647,0.119950294
441,2350926015,-14.95474529,-56.16773987,-139.0989685,0.6114792,-0.61756253,-1.2767429,235,2347492613,-140.6411285,-80.20895386,-62.72512436,-0.032506578,-0.06063247,0.22837639
442,2350942682,-13.67425728,-54.71648026,-139.6827545,0.94553614,-0.70311207,-0.99373055,236,2347509280,-140.5697784,-80.20837402,-62.82569122,-0.024571227,-0.07970634,0.26694775
444,2350976016,-12.12966347,-51.66013336,-140.4937134,0.39429477,-0.9067745,-1.1284103,237,2347525947,-140.5273285,-80.21574402,-62.92834473,-0.03982832,-0.030384518,0.13907146
448,2351042684,-9.417888641,-45.54825974,-143.0480347,-0.48333392,-0.1888842,-0.1385622,238,2347542614,-140.4888153,-80.22084808,-63.02359772,-0.004699053,0.07470418,0.10951042
450,2351076018,-9.585326195,-42.48825455,-143.3096466,0.043449577,0.437075,0.29482841,239,2347559281,-140.3888397,-80.22109222,-63.13579178,0.10854847,0.1721618,0.23099613
451,2351092685,-9.42056942,-40.89704132,-143.2043304,-0.24501881,-0.33961362,0.018094063,240,2347575948,-140.3077087,-80.22402954,-63.19713974,0.110082,0.11862011,0.28447437
453,2351126019,-8.881781578,-37.921875,-143.0161591,-0.1467886,-0.8470504,-0.24133396,241,2347592615,-140.2532043,-80.23258209,-63.21993637,0.06657591,0.06352031,0.20481205
455,2351159353,-8.972630501,-35.10929489,-143.3252716,0.6421164,-0.9357934,0.92253685,242,2347609282,-140.2165833,-80.24502563,-63.22185898,0.012624361,0.025013614,0.11866951
457,2351192687,-8.62100029,-32.47053528,-144.1613312,-0.6725865,-0.24554586,-0.6963177,243,2347625949,-140.1654053,-80.25837708,-63.24042892,-0.09100802,0.057448808,0.10914993
459,2351226021,-8.625240326,-29.94762421,-144.8192444,1.1695962,0.9080078,0.624856,244,2347642616,-140.1213531,-80.27245331,-63.25810623,-0.14098307,0.095733225,0.19599724
460,2351242688,-8.677750587,-28.68095207,-144.9149933,1.2412088,0.7988522,0.51020813,245,2347659283,-140.0518494,-80.29473114,-63.29800034,-0.12177701,0.13148172,0.24692059
462,2351276022,-8.296305656,-26.46606255,-144.9819489,-0.049025375,0.7031216,0.24697685,246,2347675950,-139.9313202,-80.32688141,-63.38512039,-0.10461812,0.13348825,0.19502258
464,2351309356,-8.288013458,-24.51997566,-145.273819,0.59056985,0.066640384,0.89013577,247,2347692617,-139.8102417,-80.36314392,-63.4695549,-0.12605226,0.09031846,0.12459087
468,2351376024,-8.388113022,-21.38370132,-146.0871124,-0.15405864,-0.17612498,0.7129803,248,2347709284,-139.6555481,-80.40253448,-63.58165741,-0.1274604,0.070788,0.15065384
469,2351392691,-8.492032051,-20.72032928,-146.0736542,0.052717816,0.35768607,0.86100674,249,2347725951,-139.4674072,-80.44420624,-63.7352829,-0.09358193,-0.015877131,0.24107742
471,2351426025,-8.769522667,-19.65678787,-145.920639,-0.14566395,0.99974364,1.372859,250,2347742618,-139.2766113,-80.49215698,-63.91254807,-0.079180695,-0.059212774,0.19236279
473,2351459359,-8.513367653,-19.02354813,-145.9120331,-0.33893615,0.6810139,1.4220266,251,2347759285,-139.0837097,-80.53894806,-64.09734344,0.051244885,-0.059216462,0.1216259
475,2351492693,-8.058506012,-18.74712563,-146.0054321,0.22139752,-0.30057272,0.89379597,252,2347775952,-138.9062653,-80.58157349,-64.27166748,0.06249541,-0.032460786,0.14112663
477,2351526027,-8.17650795,-18.58215332,-145.8761749,0.43292132,-0.7799595,1.2026615,253,2347792619,-138.7451172,-80.62368011,-64.43586731,0.06941605,-0.008693146,0.15811157
478,2351542694,-8.361984253,-18.60902405,-145.7446747,-0.022844082,-0.3470818,0.4807968,254,2347809286,-138.6023407,-80.66465759,-64.58182526,0.057740312,-0.07034311,0.13539505
480,2351576028,-9.044695854,-18.82086563,-145.5585327,-0.11525675,0.09832642,1.18649,255,2347825953,-138.4635162,-80.70349884,-64.73561859,0.06606606,-0.055294033,0.18767452
482,2351609362,-9.439097404,-19.33992386,-145.4603577,-0.51567507,0.24473624,1.620636,256,2347842620,-138.3367004,-80.74037933,-64.88392639,0.06384842,-0.013922902,0.16509438
484,2351642696,-9.292407036,-20.24528122,-145.3480682,-0.14570695,0.13087282,1.316783,257,2347859287,-138.2634277,-80.78034973,-64.98249817,0.025356414,0.038442943,0.13169861
486,2351676030,-8.929377556,-21.50218773,-145.200119,0.4689455,0.09424446,0.88260174,258,2347875954,-138.2222748,-80.82506561,-65.04194641,0.038470294,0.15104984,0.109482765
487,2351692697,-8.748855591,-22.2341938,-145.1026154,0.74074996,0.5356947,1.1736069,259,2347892621,-138.190506,-80.87215424,-65.07061768,0.038055483,0.17924325,0.15608978
489,2351726031,-8.362293243,-24.05051994,-144.8393555,0.7014402,0.7839339,0.9265652,260,2347909288,-138.1650543,-80.92279816,-65.0750351,-0.04418369,0.06262783,0.20216179
491,2351759365,-8.007063866,-26.25793266,-144.5724335,0.7244429,0.5261542,0.5791178,261,2347925955,-138.1369171,-80.98065186,-65.10201263,-0.06281112,0.03824385,0.22140312
493,2351792699,-8.235360146,-28.76396561,-144.1807404,0.7628239,0.21388496,0.49261189,262,2347942622,-138.1461792,-81.04441833,-65.11515045,-0.04587493,0.07717662,0.22193146
495,2351826033,-8.883237839,-31.48718262,-143.5227814,0.842897,0.23831895,0.39753723,263,2347959289,-138.1672668,-81.11460114,-65.10769653,-0.036338724,0.08950269,0.14946365
496,2351842700,-9.246832848,-32.96592712,-143.1026001,0.4555286,0.34287816,0.30908012,264,2347975956,-138.1848755,-81.19119263,-65.07874298,0.037071425,0.14400314,0.15833378
498,2351876034,-9.815517426,-36.21377945,-142.2812653,-0.2160972,0.5674359,0.64669037,265,2347992623,-138.2049408,-81.26572418,-65.02909851,0.14887193,0.09397546,0.18315887
500,2351909368,-9.677363396,-39.74889374,-141.7505951,-0.546294,0.05917785,0.37126923,266,2348009290,-138.2256927,-81.33583069,-64.97340393,0.15368919,0.003624654,0.2602682
504,2351976036,-9.417084694,-47.67920685,-140.072052,0.2034053,-0.9411657,-0.518734,267,2348025957,-138.2376862,-81.40129089,-64.92682648,0.09368242,-0.028738905,0.29076767
505,2351992703,-9.852694511,-49.68888855,-139.4243774,0.15423119,-1.2201333,-0.6421442,268,2348042624,-138.2749786,-81.47013855,-64.84739685,0.15532032,-0.028602226,0.19198704
507,2352026037,-11.47855473,-53.68246841,-137.9563293,-0.28024435,-1.9396839,-0.9872942,269,2348059291,-138.3815918,-81.53912354,-64.68599701,0.1486572,0.078440584,0.03681755
509,2352059371,-14.49230957,-57.8009758,-136.1039886,-0.30074024,-2.2857587,-1.1615286,270,2348075958,-138.5308228,-81.60768127,-64.44384766,0.043872546,0.12286211,-0.018321037
511,2352092705,-19.01298523,-62.05170059,-133.7399902,-1.26858,-1.7913952,-1.2938156,271,2348092625,-138.6119995,-81.68544006,-64.25035095,-0.04909969,0.12288575,0.13786411
513,2352126039,-24.88724709,-66.02474213,-130.9551239,-0.9745517,-0.92386615,-1.4906483,272,2348109292,-138.5514832,-81.76822662,-64.20529175,-0.09797578,0.04729836,0.36415482
514,2352142706,-28.63717651,-67.95765686,-128.9251404,-0.6223531,-0.2668093,-2.0196815,273,2348125959,-138.4901428,-81.84190369,-64.20294189,0.021594075,-0.1566381,0.34894276
516,2352176040,-37.57707977,-71.65251923,-123.0041962,0.036580563,1.4448886,-2.5476928,274,2348142626,-138.5349426,-81.8998642,-64.14080811,0.18811196,-0.24495645,0.124144554
518,2352209374,-47.70830917,-74.99323273,-114.906456,0.4392896,2.2299147,-2.6963878,275,2348159293,-138.6845703,-81.93868256,-63.98963928,0.31221357,-0.13555865,-0.045754433
520,2352242708,-61.69906616,-78.17310333,-100.9166718,0.8935724,3.4067135,-2.038319,276,2348175960,-138.8942108,-81.95785522,-63.73013306,0.3348499,0.10411714,0.009057045
523,2352292709,-89.9654541,-80.38266754,-69.59291077,0.4658979,2.5097778,2.289874,277,2348192627,-139.1276245,-81.96437836,-63.36389923,0.14033765,0.2752285,0.18737793
525,2352326043,-100.1893692,-79.79320526,-56.95517731,-0.28217328,-0.43742922,2.7947206,278,2348209294,-139.3506012,-81.98293304,-62.9294281,-0.23279814,0.20588142,0.21394444
527,2352359377,-102.3560562,-79.43444824,-52.56780243,-0.038236033,-1.2875602,0.5013199,279,2348225961,-139.4572754,-82.0160141,-62.58811188,-0.585241,-0.109289736,0.19072056
529,2352392711,-104.7669449,-79.33554077,-47.86148071,-0.525396,-1.8206093,-0.32291698,280,2348242628,-139.3152008,-82.05853271,-62.5632782,-0.7690702,-0.49076092,0.23892975
531,2352426045,-108.58181,-79.32476807,-42.7605629,-0.91058695,-2.1232967,-0.6160736,281,2348259295,-138.867218,-82.12094879,-62.98071671,-0.8251795,-0.60144234,0.27823257
532,2352442712,-110.5843124,-79.26522064,-40.80020905,0.026194412,-1.7457893,-0.5061922,282,2348275962,-138.1759644,-82.20814514,-63.77855301,-0.72896326,-0.29190478,0.27088833
534,2352476046,-111.6038666,-79.12714386,-40.80659866,0.6451095,-0.92690253,0.46324444,283,2348292629,-137.2323608,-82.33648682,-64.87958527,-0.48248854,0.4307311,0.29642487
536,2352509380,-109.9865646,-78.8846817,-44.01557159,0.3491873,-0.024730591,-0.2913761,284,2348309296,-136.0292664,-82.4862442,-66.11950684,-0.246754,0.71876323,0.21593761
538,2352542714,-110.3187485,-78.49516296,-44.91373825,-0.008299204,0.48798388,0.060112953,285,2348325963,-134.6694946,-82.64289093,-67.41052246,-0.029952481,0.41004133,0.22402191
540,2352576048,-111.8430176,-78.24414825,-43.86253357,-0.45163232,0.7460042,0.7270546,286,2348342630,-133.2366333,-82.78172302,-68.77624512,0.046005014,-0.3719411,0.11529255
543,2352626049,-112.1218491,-78.55604553,-43.42472458,-1.329886,1.487347,0.030688286,287,2348359297,-131.724884,-82.91124725,-70.39801025,-0.08227677,-0.9069484,0.16911793
545,2352659383,-110.9048691,-78.73402405,-43.56725311,-0.25290334,1.0380892,-0.5339718,288,2348375964,-130.1412811,-83.02945709,-72.31427002,-0.070179604,-1.0026889,0.23844719
547,2352692717,-109.7374268,-78.50267029,-42.88198471,0.37751535,0.11063143,-0.28034973,289,2348392631,-128.7214661,-83.12049103,-74.18071747,0.35725263,-0.43804717,0.15944481
549,2352726051,-110.0627823,-78.10121918,-40.77471542,0.9393856,-0.5537442,-0.16074371,290,2348409298,-127.6433716,-83.1926651,-75.65157318,1.1825657,0.5700606,0.01107502
550,2352742718,-110.8052292,-77.99866486,-39.38883972,0.8199777,-0.82696444,0.10873222,291,2348425965,-127.2123718,-83.24785614,-76.27318573,2.062559,1.0678426,-0.14311886
552,2352776052,-112.1617889,-78.00550079,-37.31590271,0.1904687,-1.3040087,0.41709328,292,2348442632,-127.8202133,-83.27996826,-75.63143921,2.1332037,0.9597583,-0.20679379
554,2352809386,-112.1278305,-78.12294006,-37.76162338,-0.03706697,-1.4983466,0.19609928,293,2348459299,-129.1531525,-83.26839447,-74.05879974,1.2744513,-0.28933752,-0.18769741
556,2352842720,-110.0324478,-78.30725098,-41.31096649,-0.13257499,-1.2852131,0.53175354,294,2348475966,-131.1575623,-83.18698883,-71.91158295,0.5395095,-1.4789284,-0.029202461
558,2352876054,-105.4814682,-78.57794189,-47.57453537,0.00334652,-0.27198207,0.076701164,295,2348492633,-133.8640442,-83.02748871,-69.43414307,0.85777867,-2.0807316,0.015151978
559,2352892721,-102.8863831,-78.69277191,-51.07529068,-0.033638503,0.29286847,-0.028709412,296,2348509300,-137.2301788,-82.76096344,-66.62468719,1.636709,-2.1188343,-0.1485405
563,2352959389,-87.76083374,-79.14939117,-69.91923523,-0.077219464,0.97031736,0.9219179,297,2348525967,-140.899231,-82.36953735,-63.56161118,1.7949656,-1.3409977,-0.2175026
565,2352992723,-71.355896,-78.89259338,-88.17999268,-0.15656091,1.423137,0.7229376,298,2348542634,-144.6235046,-81.86856079,-60.2287674,1.8642358,-0.3006641,-0.325943
567,2353026057,-53.70832443,-76.85122681,-107.7132721,0.7403648,2.4237316,0.31272125,299,2348559301,-148.1371765,-81.27352905,-56.76272583,1.7297398,0.23393455,-0.41487694
568,2353042724,-47.10718155,-75.11019135,-115.1061172,-0.19813865,2.8834276,-0.111688614,300,2348575968,-151.3600464,-80.59447479,-53.35022736,1.259028,-0.21639949,-0.51831436
570,2353076058,-39.97512436,-71.13697052,-122.6618118,-1.4829456,2.5349789,-2.3271961,301,2348592635,-154.4614258,-79.81074524,-50.14005661,0.8511376,-0.6021915,-0.35680962
572,2353109392,-34.93000412,-67.57096863,-125.8108978,-0.9012583,0.67664176,-2.4894123,302,2348609302,-157.3281555,-78.91855621,-47.4239502,0.29488003,-0.70641273,0.12452412
574,2353142726,-27.99036407,-64.36106873,-128.7143097,1.1065882,-0.7707611,-2.123201,303,2348625969,-159.9727783,-78.0043335,-45.20152283,0.0662833,-0.28547537,0.12308407
576,2353176060,-20.64264107,-61.69314575,-131.7828674,0.13726269,-1.0749015,-2.375875,304,2348642636,-162.5886078,-77.08338165,-43.11706161,0.3261948,0.37206748,-0.46960735
577,2353192727,-16.87282372,-60.27074432,-133.5084686,-0.6602937,-1.9845597,-2.740499,305,2348659303,-165.1311493,-76.17900848,-41.10087585,0.18633202,0.92051053,-0.7118721
579,2353226061,-11.65915489,-57.14940643,-136.3671875,-0.057583984,-3.4614067,-0.5125923,306,2348675970,-167.4608459,-75.27510071,-39.21458054,-0.050993208,1.2429745,-0.41110992
581,2353259395,-9.246090889,-53.28849411,-138.8076782,0.29556492,-2.8651538,-1.1268387,307,2348692637,-169.5516815,-74.36923218,-37.38682175,-0.016497303,1.074324,-0.09469223
583,2353292729,-8.991470337,-49.12289429,-140.0490265,-0.23666477,-0.18726161,-1.0534639,308,2348709304,-171.4210815,-73.41770172,-35.58518219,0.37469617,0.9057783,-0.11503506
585,2353326063,-10.45870209,-44.82886887,-139.935791,-0.5179101,0.1139611,-0.28077984,309,2348725971,-172.954483,-72.39294434,-33.91719818,0.9953615,0.7159246,-0.090379715
586,2353342730,-10.89449978,-42.75608826,-139.6196594,-0.73729026,-0.121554054,0.010066986,310,2348742638,-174.0688629,-71.36579895,-32.32860565,0.9975469,0.5800958,-0.19857883
588,2353376064,-11.11046696,-38.93880844,-139.29776,-1.4932872,0.96715075,1.7594604,311,2348759305,-174.7415466,-70.35826874,-30.78787422,-0.41886565,0.273981,-0.60441494
592,2353442732,-7.972943306,-32.8955307,-140.9329987,-0.2851241,-0.74624944,0.8124523,312,2348775972,-175.1768341,-69.37663269,-29.42573547,-1.4324253,0.016012691,-0.4832983
594,2353476066,-6.695420265,-29.96532822,-141.5050354,0.15020499,-0.7438961,-0.054494858,313,2348792639,-175.6590881,-68.4208374,-28.34228706,-1.6872044,0.12011072,-0.13190174
595,2353492733,-6.391724586,-28.64176559,-141.6332703,0.52049136,-0.18076438,0.11208439,314,2348809306,-176.3260651,-67.41188812,-27.46960831,-0.47485393,0.047869433,-0.035752296
597,2353526067,-6.596604824,-26.12019157,-141.585083,0.9169,0.18802133,0.5618448,315,2348825973,-177.0269165,-66.36949158,-26.67186546,0.6564036,-0.2695073,-0.12177944
601,2353592735,-7.687283993,-21.56152344,-141.4254913,0.04223427,0.45813856,1.0037212,316,2348842640,-177.5598602,-65.38058472,-25.97037125,-0.24765295,-0.3727126,0.1874628
603,2353626069,-7.843335152,-19.84301567,-141.584671,-0.24011642,0.41310632,1.0008402,317,2348859307,-177.9282532,-64.45729828,-25.41541862,-1.2243954,-0.50592875,0.6186218
604,2353642736,-7.739299297,-19.14465904,-141.6378632,0.53134316,0.3229069,0.9451418,318,2348875974,-178.3349915,-63.58969116,-25.00737572,-1.2231343,-0.53811,0.57376957
606,2353676070,-7.901149273,-17.85140991,-141.5248718,1.8058864,0.46852875,1.2807894,319,2348892641,-179.0293121,-62.7690239,-24.60641289,-0.47441888,0.13789956,0.25609875
608,2353709404,-8.128637314,-16.97554588,-141.3978882,0.9451361,0.6529662,1.1012487,320,2348909308,-179.8550873,-61.94556046,-24.13464737,0.18930449,0.7483026,-0.28892708
610,2353742738,-8.343212128,-16.56695557,-141.4283295,0.7580467,0.63491106,1.2331123,321,2348925975,179.6577148,-61.06118011,-23.69111824,0.7069331,0.73137015,-0.3978157
612,2353776072,-8.270017624,-16.65593529,-141.5599823,0.26997513,0.45316336,1.6596327,322,2348942642,179.6461945,-60.20443726,-23.35111046,0.29790512,0.38871318,0.013766289
613,2353792739,-8.094607353,-16.84464264,-141.5964508,0.7169566,0.21460356,1.81285,323,2348959309,179.892334,-59.40341187,-23.03809929,-0.5146253,0.05914203,0.18421364
615,2353826073,-7.923057079,-17.62001419,-141.5027008,0.42290643,0.1489374,1.1580944,324,2348975976,-179.9412994,-58.60255814,-22.65100861,-0.8954166,0.08226719,0.10489273
617,2353859407,-8.046653748,-18.71364403,-141.3860626,0.87838906,-0.21502353,1.4915581,325,2348992643,-179.8797607,-57.79587936,-22.30014038,-0.9188323,-0.1902934,0.38716412
621,2353926075,-9.099822998,-22.24954987,-141.2543945,0.453817,0.15482692,1.2984657,326,2349009310,-179.9342804,-57.04302979,-22.04005241,-0.9803209,-0.51065665,0.75790596
622,2353942742,-9.551787376,-23.36621094,-141.1302185,0.47403914,0.37207952,1.2562599,327,2349025977,179.8251801,-56.35883331,-21.86808014,-0.6771791,-0.35062337,0.6633358
624,2353976076,-10.48431969,-25.91056252,-140.7111511,0.5833786,0.8096425,0.9103384,328,2349042644,179.4664764,-55.74063492,-21.76519966,-0.13881171,0.09353782,0.61604786
626,2354009410,-11.47824287,-28.69057846,-140.2457733,0.40009013,0.60649896,0.45921707,329,2349059311,179.1238098,-55.20375443,-21.64185143,-0.08439523,0.65951586,0.6880255
628,2354042744,-12.29385853,-31.6989727,-139.7974243,0.35979435,0.5903127,0.9353285,330,2349075978,178.7584991,-54.70046616,-21.39242935,-0.23252843,1.1504728,0.7132721
630,2354076078,-12.3399477,-35.13306808,-139.6676331,-0.4528654,0.366316,0.058707237,331,2349092645,178.3331604,-54.23396683,-21.02166367,-0.23967825,1.1597936,0.88484955
631,2354092745,-12.03833199,-37.05212402,-139.7642517,-0.7386948,0.6346988,0.45581055,332,2349109312,177.8043365,-53.79010773,-20.47430229,-0.22971356,0.851883,0.7567396
633,2354126079,-11.08772564,-40.91527939,-140.1130066,-0.32235518,-0.29860917,0.24977493,333,2349125979,177.158432,-53.38538742,-19.75976944,-0.59931314,0.93413675,0.110871315
635,2354159413,-10.41270733,-44.78504562,-139.9533386,-0.11080181,-0.63699406,-0.04306221,334,2349142646,176.6413116,-52.98972321,-19.13183403,-1.0782446,0.28248098,-0.2124958
637,2354192747,-10.37190056,-48.89123154,-139.1865997,-0.2390185,-1.3500651,-0.3932438,335,2349159313,176.3437958,-52.62737274,-18.74760246,-1.1791191,-0.77439106,0.15877724
640,2354242748,-12.534091,-55.08074951,-137.2734222,-0.4280297,-1.7731937,-0.9772253,336,2349175980,176.0449982,-52.34633636,-18.58403015,-1.1072236,-1.0628766,0.6952381
642,2354276082,-16.12509155,-59.08261108,-135.6139069,-0.58146244,-2.1682584,-1.3886299,337,2349192647,175.5784912,-52.11211777,-18.5166626,-0.7028839,-0.4277021,0.689765
644,2354309416,-21.84161758,-62.92398071,-132.8271942,-0.32731542,-1.5497618,-1.5076475,338,2349209314,175.2125702,-51.84907532,-18.44693375,0.36407936,-0.003898792,0.2466116
646,2354342750,-29.14346886,-66.31510162,-129.22789,-0.9015996,-0.67141134,-1.8778133,339,2349225981,175.1323395,-51.58303833,-18.36062813,0.30809745,0.3901131,0.027932167
648,2354376084,-37.07398224,-69.49607086,-125.0049591,-0.56832606,0.4783997,-1.8173852,340,2349242648,175.4300842,-51.32399368,-18.29861641,-0.10163617,-0.116702594,0.19773006
649,2354392751,-41.3616066,-71.07613373,-122.2357712,-0.032643795,0.9832632,-1.6926832,341,2349259315,175.8700714,-51.11061859,-18.31890488,-0.34574634,-0.5246726,0.5057583
651,2354426085,-50.1671257,-74.08773041,-115.264595,-0.09713583,2.0253842,-1.7220011,342,2349275982,176.1114502,-50.92722702,-18.34758377,-0.58247834,-0.4884543,0.28684235
653,2354459419,-59.58325958,-76.75359344,-105.8045959,0.08480966,2.481104,-0.80406094,343,2349292649,176.0858917,-50.75828552,-18.34128189,-0.42172173,-0.0883179,0.1302824
655,2354492753,-72.08966827,-78.96212006,-91.68586731,0.05105706,2.0488133,0.13901138,344,2349309316,175.9629364,-50.61700821,-18.32297707,-0.15230122,0.34297615,0.18885899
657,2354526087,-87.61428833,-80.10558319,-73.74401855,-0.16170861,1.534831,0.4490862,345,2349325983,175.9287415,-50.51745605,-18.31300735,-0.19357856,0.44639555,0.3681755
660,2354576088,-102.735054,-79.75097656,-54.96672821,0.21709028,-0.78636694,0.15466976,346,2349342650,175.907959,-50.41139984,-18.26265717,-0.12649813,0.46654916,0.37075615
662,2354609422,-109.1385574,-79.49762726,-46.76250076,-0.045955017,-2.2496295,0.4169159,347,2349359317,175.7632599,-50.29100418,-18.12190056,-0.041967623,0.50511634,0.30874825
664,2354642756,-113.1910858,-79.37640381,-42.69708252,0.007686499,-1.218731,0.23603821,348,2349375984,175.5901947,-50.17189407,-17.91913986,-0.19697519,0.21631858,0.26287365
666,2354676090,-115.422699,-79.09676361,-41.50852203,0.4574872,-0.01864478,0.2420559,349,2349392651,175.4627686,-50.08183289,-17.75038528,-0.4802268,-0.20808698,0.29622746
667,2354692757,-116.2621307,-78.99223328,-41.10022736,0.30585492,0.49841478,0.3288889,350,2349409318,175.3730164,-50.04614258,-17.6599865,-0.5820936,-0.46081695,0.5917187
669,2354726091,-117.3258591,-78.97795868,-40.37794495,-0.22090688,1.0049597,0.357543,351,2349425985,175.2474213,-50.07634354,-17.62935638,-0.5854485,-0.24909323,0.86134434
671,2354759425,-117.2195129,-79.07627106,-40.34345245,-0.28366077,0.8613204,0.10742283,352,2349442652,175.2171173,-50.13244247,-17.63186073,-0.544698,-0.33301708,0.70861435
673,2354792759,-117.3306961,-79.08287048,-39.67268372,-0.23498805,0.51022756,-0.19137573,353,2349459319,175.2978668,-50.19926453,-17.67064476,-0.6204011,-0.34378046,0.4702158
675,2354826093,-117.9259109,-79.05132294,-37.99098969,-0.08148855,-0.2155465,-0.13578415,354,2349475986,175.3600922,-50.3123436,-17.73826599,-0.70336145,-0.006226736,0.52215385
676,2354842760,-118.1318665,-78.97904205,-37.1492691,0.07084495,-0.54830307,0.13085747,355,2349492653,175.4487915,-50.4908371,-17.81258011,-0.60645777,0.38696843,0.56509113
678,2354876094,-117.9313583,-78.94831848,-36.33836365,-0.01984749,-0.5841204,-0.025862694,356,2349509320,175.6564636,-50.71323395,-17.92737579,-0.4983133,0.47619462,0.5044317
680,2354909428,-118.1237411,-78.92288971,-35.66978073,0.1626381,-0.13093624,-0.36542606,357,2349525987,175.9518738,-50.97423553,-18.08103561,-0.49765703,0.13415913,0.5821161
682,2354942762,-118.3055191,-78.76750946,-35.29362869,0.14668663,-0.001756365,0.07639408,358,2349542654,176.143631,-51.28570938,-18.20564079,-0.5887863,-0.05789578,0.81631756
684,2354976096,-117.7642517,-78.58323669,-35.71706772,0.11691398,-0.122115076,0.18258381,359,2349559321,176.1470337,-51.6341362,-18.2603817,-0.48080832,0.06273472,0.7027283
685,2354992763,-117.5812607,-78.51834106,-35.87749481,0.087539,-0.2211664,0.023313522,360,2349575988,176.1030579,-52.01135635,-18.29872894,-0.2941071,0.07272553,0.5216389
687,2355026097,-117.6508026,-78.44028473,-35.84081268,0.018850971,-0.37729356,0.21637726,361,2349592655,176.0687561,-52.42581177,-18.35240173,-0.28663978,-0.014489786,0.46379852
689,2355059431,-116.8356171,-78.41227722,-36.73534775,-0.007074912,-0.3195625,0.34171867,362,2349609322,176.0145264,-52.89111328,-18.38236237,-0.6071843,0.33295313,0.33257294
691,2355092765,-114.3694,-78.50813293,-39.14035416,-0.13946936,0.047358148,0.06271553,363,2349625989,175.9611969,-53.38256454,-18.3998642,-0.51009446,0.5768719,0.2223711
693,2355126099,-111.7233963,-78.67751312,-41.63211823,-0.24518204,0.22169714,0.08211899,364,2349642656,176.0098572,-53.90904617,-18.42993355,-0.36804008,0.5198291,0.43039322
696,2355176100,-106.3008194,-78.91072083,-47.41012573,-0.22179364,-0.38974681,0.21899033,365,2349659323,176.1831512,-54.48189545,-18.46761703,-0.37781698,0.23608148,0.64494514
698,2355209434,-101.6981201,-79.11076355,-52.84279633,0.02258488,-0.35229352,-0.17302132,366,2349675990,176.4208221,-55.10636139,-18.53693008,-0.46530205,-0.020779217,0.85647964
700,2355242768,-97.02037048,-79.32338715,-58.54917526,0.39791146,-0.33280465,0.10452747,367,2349692657,176.6394348,-55.73831177,-18.61873055,-0.09346334,-0.31466708,0.45427227
702,2355276102,-90.63225555,-79.41521454,-66.04432678,0.28129315,-0.33170843,0.1843338,368,2349709324,176.8317566,-56.4321785,-18.64824104,-0.8210075,0.002462107,0.24799728
703,2355292769,-87.13259125,-79.36090851,-70.12565613,0.16875571,-0.15811932,-0.05371952,369,2349725991,177.0839691,-57.13722229,-18.69472694,-1.2560445,0.24175994,0.105335236
705,2355326103,-79.89485168,-79.19145203,-78.92932129,0.5205899,0.5146735,-0.014659882,370,2349742658,177.3674316,-57.8800087,-18.83579636,-1.0637068,0.5155157,0.58601475
707,2355359437,-71.24142456,-78.90770721,-89.23588562,0.486968,0.7868503,0.46194935,371,2349759325,177.646286,-58.71190262,-19.02206993,-0.6292577,0.6901154,0.76447296
709,2355392771,-60.96109009,-77.81169891,-100.9395599,-0.39440554,0.79884726,0.26451683,372,2349775992,178.0431671,-59.60837936,-19.21072769,-0.53066206,0.7074442,0.6860428
711,2355426105,-52.77539063,-75.97354889,-110.1813049,0.74668974,1.6596713,-0.4578867,373,2349792659,178.700531,-60.53808975,-19.46141624,-0.685825,0.11120161,0.7395134
712,2355442772,-48.59639359,-74.84597015,-114.7564392,0.5639819,2.085767,-0.1238184,374,2349809326,179.5724182,-61.51481628,-19.84649277,-1.2960451,-0.5923915,0.92080975
716,2355509440,-34.74574661,-68.13130951,-127.234787,-0.45176288,1.0267477,-2.3388467,375,2349825993,-179.5603638,-62.56568146,-20.36466217,-1.9141153,-0.60932,0.82682705
718,2355542774,-28.75226974,-64.44095612,-129.8547668,-0.70140386,0.28962976,-3.9135847,376,2349842660,-178.7794342,-63.67296219,-21.02293396,-1.9522296,-0.29324633,0.506979
720,2355576108,-22.50390053,-61.38365555,-130.9556427,-0.1974928,-0.5354596,-1.5760355,377,2349859327,-177.9416962,-64.83412933,-21.87582207,-1.5240161,0.11348093,0.24462509
721,2355592775,-20.07849312,-60.16793442,-131.4268951,-1.2353778,-2.3782494,-0.35083294,378,2349875994,-176.847229,-66.03842163,-22.96267128,-0.64195883,0.3158824,-0.14670849
723,2355626109,-15.23988914,-57.80150604,-133.9129486,-0.8403806,-2.5272386,-0.18657875,379,2349892661,-175.4653015,-67.27542877,-24.2511158,-0.07913792,0.3801311,-0.305439
725,2355659443,-11.8131876,-54.39913559,-136.9015045,-0.7078341,-1.3277227,-1.0665293,380,2349909328,-173.7686462,-68.52509308,-25.75609398,0.016759532,0.1794837,-0.21271706
727,2355692777,-9.208972931,-50.55968475,-138.8475494,-0.001436336,-1.7798444,-0.8616018,381,2349925995,-171.7780609,-69.7767334,-27.47659302,-0.59944844,0.057666063,-0.14024734
729,2355726111,-9.418081284,-46.80853271,-139.4097748,0.6924531,-1.823082,-0.100743294,382,2349942662,-169.6625214,-71.01995087,-29.33778763,-0.93384045,0.00885536,-0.5188513
730,2355742778,-10.09822178,-45.06431198,-139.5252686,-0.095379375,-0.8615628,0.65243053,383,2349959329,-167.5539246,-72.20913696,-31.27872849,-0.021832123,-0.10988562,-1.0213022
732,2355776112,-11.20748615,-41.75026321,-140.3469849,-1.9104406,-0.18683761,0.48365974,384,2349975996,-165.4940186,-73.35720062,-33.36784363,0.94256276,-0.008865474,-1.185751
736,2355842780,-11.13646317,-34.96251297,-142.966507,0.669624,0.7828364,0.06988335,385,2349992663,-163.3612213,-74.45159149,-35.64241791,1.4615606,-0.16916686,-1.1907797
738,2355876114,-10.35574913,-31.89418602,-143.7180481,0.012508411,0.9915795,0.6366415,386,2350009330,-161.0774078,-75.4576416,-38.10007477,1.9184922,-0.15945224,-1.2247267
741,2355926115,-8.521371841,-28.30800819,-145.0999756,-0.58634806,0.85085124,0.7867193,387,2350025997,-158.7770996,-76.33322144,-40.58066177,2.3225834,-0.091367625,-1.0312643
743,2355959449,-7.633845329,-26.1852932,-145.9069366,-0.4921601,-0.37711564,0.84261894,388,2350042664,-156.6468658,-77.04351044,-42.87104797,2.4479952,-0.13059622,-0.8262558
745,2355992783,-7.702236176,-24.2116127,-146.0176697,0.67590266,0.05028751,0.9090338,389,2350059331,-154.7937317,-77.63467407,-44.88726044,2.2307308,0.009281292,-0.7111721
747,2356026117,-8.409637451,-22.53652382,-145.4928589,0.64986503,1.233666,1.5876427,390,2350075998,-153.1556702,-78.12203979,-46.58369064,2.1391082,0.48076135,-0.584754
748,2356042784,-8.661816597,-21.92026711,-145.264679,0.49184418,1.2763191,1.8147202,391,2350092665,-151.8334045,-78.51425171,-47.69544983,1.88813,0.4961581,-0.21553612
750,2356076118,-8.692400932,-21.11293793,-145.1233368,0.040687248,0.13422891,1.4300451,392,2350109332,-150.4878845,-78.85269165,-48.60132599,1.5102149,0.14076091,0.25108337
752,2356109452,-8.82263279,-20.69482803,-145.0887146,-0.021335684,-0.59779817,1.3643417,393,2350125999,-149.1051636,-79.13420105,-49.4145813,0.6996894,-0.28993213,0.3267212
754,2356142786,-9.036659241,-20.66360092,-144.8748627,0.40788063,-0.07917829,1.8516817,394,2350142666,-147.9570007,-79.36643982,-49.99047089,0.41602275,-0.5831552,0.13602448
757,2356192787,-9.131219864,-21.35934639,-144.6707306,0.7384772,0.29328632,1.681036,395,2350159333,-147.0657806,-79.56417847,-50.42200089,0.33200815,-0.52235144,0.16875362
759,2356226121,-9.203145981,-22.45837975,-144.5979919,0.63760793,-0.095640354,1.2722006,396,2350176000,-146.2133026,-79.74671173,-50.93450928,0.19858706,-0.65708673,0.19053555
761,2356259455,-9.646868706,-23.90908432,-144.3960571,0.5862675,0.08515033,1.2501802,397,2350192667,-145.2182922,-79.89137268,-51.66536331,0.16478077,-0.6214123,0.073005676
763,2356292789,-10.22138786,-25.69304848,-143.9352875,0.63010824,0.3621086,1.1942835,398,2350209334,-144.1731873,-80.00559998,-52.50846481,0.18016547,-0.36643612,0.009730339
765,2356326123,-10.67241192,-27.82585526,-143.378067,0.28890657,0.56066513,0.9324455,399,2350226001,-143.3118439,-80.10995483,-53.27812576,-0.07041714,-0.30885512,0.0365963
766,2356342790,-10.74664879,-29.06209755,-143.1270905,0.1371162,0.688752,1.2889633,400,2350242668,-142.5328522,-80.22416687,-54.06490326,-0.29437566,-0.4168636,-0.02036953
768,2356376124,-10.46013927,-31.83830261,-142.7910004,-0.048234757,0.47868732,1.2133827,401,2350259335,-141.6872406,-80.34584045,-55.00352097,0.003018682,-0.39623353,-0.025709152
770,2356409458,-9.745445251,-35.07123184,-142.5357666,-0.33041948,0.23162167,0.5761099,402,2350276002,-140.8895111,-80.44208527,-55.98654175,0.62689483,-0.33091354,-0.004149437
772,2356442792,-9.19182682,-38.6203537,-142.0447998,0.16322856,-0.22220507,0.27964497,403,2350292669,-140.3460236,-80.50019836,-56.77544785,0.9289152,-0.19460595,0.019572258
774,2356476126,-9.088884354,-42.32343292,-141.0576172,0.20513119,-0.15977454,-0.03476906,404,2350309336,-140.0778198,-80.53523254,-57.30109406,0.81574166,0.067741215,-0.009140015
775,2356492793,-9.273519516,-44.19120789,-140.4338531,0.032197054,-0.1088032,-0.07339859,405,2350326003,-139.9746399,-80.55672455,-57.59716797,0.44763896,0.18270814,-0.09730625
777,2356526127,-9.69970417,-48.14846802,-139.2042847,-0.13722977,-1.090293,-0.44679546,406,2350342670,-139.9242249,-80.57022095,-57.78447342,-0.02892553,0.017852176,0.02747345
779,2356559461,-10.44025803,-52.23627472,-138.1069641,-0.10494087,-1.8353851,-0.7462425,407,2350359337,-139.8554382,-80.57978058,-58.02339935,-0.19325277,-0.1841322,0.23202324
781,2356592795,-12.77720642,-56.22634125,-136.8974609,-0.3357232,-2.1710885,-0.801816,408,2350376004,-139.7513428,-80.59299469,-58.34953308,0.19953233,0.033920802,0.41985703
783,2356626129,-17.16843224,-60.14550018,-134.9283295,-0.32358798,-2.1650786,-1.0986423,409,2350392671,-139.6580811,-80.61977386,-58.63606644,0.45675197,0.33220977,0.36084366
784,2356642796,-20.12714386,-62.0073967,-133.5587616,-0.3289127,-1.6093763,-1.3065443,410,2350409338,-139.6623993,-80.6491394,-58.73152542,0.1682739,0.4336286,0.20393753
786,2356676130,-26.80163383,-65.40129089,-130.3265076,-1.0073133,-1.0644015,-1.9243946,411,2350426005,-139.7272186,-80.68229675,-58.71618652,-0.19411586,0.6543389,0.11406803
788,2356709464,-34.22019958,-68.73731995,-126.4777832,-1.1995895,0.046508577,-1.7650814,412,2350442672,-139.7212219,-80.72807312,-58.68958282,-0.3315244,0.5926425,0.13284874
790,2356742798,-43.17815399,-72.27902985,-120.2615433,-0.262556,1.579686,-1.9520321,413,2350459339,-139.6958618,-80.78527069,-58.62532425,-0.34975517,0.2271822,0.05196953
793,2356792799,-59.9381485,-77.17495728,-104.3637924,-0.08274391,1.762588,-2.030436,414,2350476006,-139.6023407,-80.85873413,-58.59907532,-0.22056144,0.00529424,0.082826614
795,2356826133,-74.98954773,-79.3584671,-88.01476288,-0.057226785,1.9828963,-1.5119209,415,2350492673,-139.402832,-80.9569931,-58.69133759,-0.09203284,-0.140843,0.08136749
797,2356859467,-89.03910828,-79.86342621,-72.46302795,0.64185214,2.4056993,1.2849779,416,2350509340,-139.1704865,-81.06458282,-58.82249832,-0.110082366,-0.227415,0.124783516
799,2356892801,-97.68335724,-79.19429779,-62.11354828,0.3300317,0.7322014,1.6228428,417,2350526007,-139.0818329,-81.18650818,-58.89212418,0.24734236,-0.027133858,0.18670464
802,2356942802,-107.5112381,-78.76050568,-48.05539703,-0.30806983,-0.23799905,-0.22419834,418,2350542674,-139.1875153,-81.33748627,-58.92865372,0.8692353,0.16108489,0.039149284
804,2356976136,-113.5697403,-78.49266815,-39.33187866,-1.1183877,-1.1595731,0.044783592,419,2350559341,-139.49086,-81.52069092,-58.90898895,1.0350715,-0.024120847,-0.020783424
806,2357009470,-117.4919052,-77.93354034,-34.77088165,0.19321485,-1.5178895,0.7617197,420,2350576008,-140.328537,-81.66887665,-58.528965,0.23595017,-0.23457456,0.15043736
808,2357042804,-117.9530792,-77.86867523,-34.89662552,1.038204,-1.1840485,0.4920578,421,2350592675,-141.7535248,-81.69993591,-57.61473465,-0.072816625,-0.65144753,0.42377663
810,2357076138,-116.2569656,-78.0763855,-37.42564011,0.6906441,-0.36926898,-0.18761158,422,2350609342,-143.3872528,-81.67900085,-56.58517075,0.36870167,-0.39506277,0.24111366
811,2357092805,-115.6304474,-78.11333466,-38.52944183,0.27591825,0.2722572,-0.24878407,423,2350626009,-145.307251,-81.68837738,-55.34122086,0.90957516,0.115668096,-0.5582628
815,2357159473,-114.8507767,-77.97077942,-40.13401031,-0.68389446,1.234684,-0.1780672,424,2350642676,-147.6004333,-81.65651703,-53.54481888,1.0189313,0.32568273,-0.78693295
817,2357192807,-115.54142,-78.02333069,-38.81585693,-0.33875513,0.6943865,0.3310976,425,2350659343,-149.8759918,-81.53034973,-51.46378708,1.2361405,0.28619945,-0.17044258
819,2357226141,-115.0064087,-77.99611664,-38.15825653,-0.24457687,0.3313726,-0.05743122,426,2350676010,-152.1242981,-81.31653595,-49.26211166,1.2297893,0.03181651,0.2802906
820,2357242808,-114.6848984,-77.96021271,-37.7551918,0.08574112,-0.022588667,-0.15127468,427,2350692677,-154.746933,-81.00988007,-46.73331451,0.9784065,-0.37651086,0.11627197
824,2357309476,-113.0502472,-77.97807312,-37.74411774,-0.059461333,-0.9307113,-0.003931999,428,2350709344,-157.959137,-80.57537079,-43.79421234,1.2634565,-1.0431521,-0.15455818
826,2357342810,-112.0553665,-78.05731964,-39.19305801,-0.12042248,-0.82047886,0.019854546,429,2350726011,-161.3126373,-80.03242493,-40.93469238,0.97241646,-1.1446474,-0.28529835
828,2357376144,-110.3607941,-78.17253876,-41.92775345,-0.26802194,-0.6085974,0.23434544,430,2350742678,-164.408432,-79.39796448,-38.48630142,0.6327843,-1.0190874,-0.36843395
829,2357392811,-109.026947,-78.25617218,-43.82055283,-0.09758961,-0.2922624,0.009444237,431,2350759345,-167.1567078,-78.76580048,-36.48792648,0.22801094,-0.9515875,-0.15169525
831,2357426145,-105.940979,-78.46356964,-48.01259232,0.07184469,0.058774296,0.39773178,432,2350776012,-169.815979,-78.10266113,-34.64392853,-0.4245571,-0.7227885,-0.18716526
833,2357459479,-100.9200058,-78.84011841,-54.03480911,-0.17739405,0.22629234,0.8375969,433,2350792679,-172.4700623,-77.40570068,-32.84120941,0.04676986,-0.42615712,-0.40032673
837,2357526147,-78.29288483,-79.37017822,-79.46665955,0.46876556,0.83606184,0.15893555,434,2350809346,-174.9289551,-76.58587646,-31.1531105,1.0005004,-0.20247558,-0.43940067
838,2357542814,-71.60944366,-79.14500427,-87.05115509,0.5062961,1.044633,-0.17689323,435,2350826013,-177.0815582,-75.74588013,-29.60691261,1.5491201,0.70132196,-0.18227386
842,2357609482,-52.12201691,-76.70672607,-108.4347763,-0.95237684,0.619835,-0.36339378,436,2350842680,-178.7102814,-74.86969757,-28.18702316,1.7197453,0.9587804,-0.6133585
844,2357642816,-45.29242706,-74.72898102,-114.9719086,-0.43135482,0.7001021,-0.15794754,437,2350859347,-179.8424072,-73.95464325,-26.84577179,0.73589563,0.48950857,-0.46744156
846,2357676150,-37.79435349,-71.74463654,-122.0966949,-0.0757598,-0.09112076,-0.16390419,438,2350876014,179.0338745,-72.95729828,-25.5239048,-0.066718474,0.27196375,-0.14101982
847,2357692817,-34.72141647,-70.003685,-125.09478,0.8730984,0.15723008,-0.9553642,439,2350892681,177.8681335,-71.89063263,-24.25395966,-0.07134933,-0.43159547,-0.15742493
849,2357726151,-29.69919014,-67.00130463,-129.1961212,1.3858991,0.48004028,-2.1450295,440,2350909348,176.776001,-70.85570526,-23.22853088,-0.08426469,-0.44821706,-0.37722397
851,2357759485,-25.16005135,-63.96138382,-132.1313324,0.31250158,0.884459,-2.9447384,441,2350926015,175.8806,-69.83879852,-22.48011017,-0.12476085,-0.5118228,-0.12543678
853,2357792819,-21.93569946,-61.06329727,-133.9535828,0.20694998,1.1002963,-1.5449429,442,2350942682,175.1573029,-68.8401413,-21.85359955,-0.3995569,-0.14071324,-0.027445793
855,2357826153,-18.33091545,-58.10964584,-135.7445679,-1.0629369,0.24862608,-1.0023727,443,2350959349,174.545517,-67.81575012,-21.28490257,0.7974663,-0.05766612,-0.6662388
858,2357876154,-12.64998817,-53.48029327,-137.7427368,-0.21113497,-1.0603164,-1.2892942,444,2350976016,174.3388519,-66.8494339,-20.87322998,0.85292745,-0.09294507,-0.64403534
860,2357909488,-9.735528946,-50.06839371,-138.7177582,-0.61349124,-1.4899119,0.3983221,445,2350992683,174.5670471,-65.85543823,-20.66971016,-1.0707843,0.15365621,0.50643826
862,2357942822,-7.756491184,-46.93987274,-139.7324219,-0.30672336,-1.8013383,0.05486965,446,2351009350,174.7515106,-64.91782379,-20.53845406,-1.6016412,0.24099658,0.55743027
864,2357976156,-7.717463493,-43.81738281,-140.769577,-0.16322415,-0.3984257,-0.22316074,447,2351026017,174.6855164,-63.98062134,-20.51891899,-0.56175786,0.7811376,-0.11917591
865,2357992823,-7.779289246,-42.14360809,-141.2474823,0.1716476,0.019196298,0.012425423,448,2351042684,174.6989594,-63.0084877,-20.47461891,0.74010205,0.5778577,-0.43729877
867,2358026157,-7.668586254,-38.65758133,-141.9697418,0.44453198,-1.1472635,-1.5131807,449,2351059351,174.8826447,-62.07825089,-20.35001183,-0.5705338,0.8434824,0.23122406
869,2358059491,-7.817778111,-35.36463165,-142.3788757,0.7129169,0.04204586,0.66421795,450,2351076018,175.1086731,-61.17589951,-20.20449829,-1.1128203,0.8342216,1.1796894
871,2358092825,-8.011639595,-32.50234604,-143.0121002,-1.7345879,0.19380127,0.95191574,451,2351092685,175.4388885,-60.32171249,-20.1197052,-0.97037023,0.4762871,1.1188726
873,2358126159,-7.52569294,-30.0625515,-143.678772,-1.4544971,0.08883494,1.5774031,452,2351109352,175.8128662,-59.46512222,-20.07946587,-0.0727224,-0.32447168,0.017762184
874,2358142826,-7.289399147,-28.96678734,-143.834671,-0.5899182,-0.16905867,1.9082966,453,2351126019,176.1908112,-58.6227417,-20.06080437,-0.050639767,-1.2306921,-0.5914364
876,2358176160,-6.870001316,-27.03480148,-143.9985199,-0.17490882,-0.14541094,0.61853313,454,2351142686,176.4978485,-57.90083313,-20.1601944,-1.6713467,-1.2794061,0.80084324
878,2358209494,-6.912361622,-25.07949257,-144.1214905,1.3592472,0.30022168,0.59655,455,2351159353,176.6695099,-57.33811188,-20.38760185,-1.7208227,-0.91192394,1.426506
880,2358242828,-7.345096588,-23.48851967,-144.1012573,1.6438437,1.0456753,1.3631334,456,2351176020,176.6870117,-56.82759476,-20.64665222,-0.4783565,-0.14418218,0.33381653
882,2358276162,-7.799994946,-22.48514366,-144.0815735,0.40208003,0.2877702,0.92131424,457,2351192687,176.7760315,-56.24846649,-20.90847015,0.8329149,0.3146784,-0.63227177
883,2358292829,-7.881653309,-22.22194099,-144.0652924,-0.258931,0.17928137,1.2574387,458,2351209354,177.2013092,-55.63697052,-21.16856194,0.8711808,-0.15717934,-0.6112404
885,2358326163,-8.035181046,-21.9101162,-143.9677277,-0.60141,0.019281624,1.8612127,459,2351226021,177.7555695,-55.0979805,-21.46639633,-0.51292044,-0.00707195,0.80315876
887,2358359497,-8.028857231,-21.9603672,-143.7516937,0.017133884,0.10705913,1.4937468,460,2351242688,178.2221375,-54.68170547,-21.8296051,-0.9102105,0.27158725,1.6976519
889,2358392831,-7.982068062,-22.3976593,-143.5440369,1.1894313,0.48305386,0.9663811,461,2351259355,178.4648895,-54.28972626,-22.03736496,-0.829324,0.56048983,0.4377489
891,2358426165,-8.330441475,-23.23039055,-143.267807,1.2516059,0.30312228,1.4045448,462,2351276022,178.5491791,-53.78630447,-22.06990623,0.109202124,0.23987606,-0.817832
894,2358476166,-8.556051254,-25.31155777,-142.8781738,-0.23095664,-0.23640262,1.3969803,463,2351292689,178.6323242,-53.27511978,-22.15943909,-0.014516454,-0.27303874,0.07999325
896,2358509500,-8.722805023,-27.07390976,-142.7751465,-0.06341913,-0.7339044,1.2788248,464,2351309356,178.5807037,-52.89784241,-22.3719101,-0.517822,-0.044209186,1.1188221
898,2358542834,-9.173380852,-29.1005497,-142.5654144,0.18352634,-0.10855421,1.044632,465,2351326023,178.4511566,-52.64321899,-22.58213997,-0.23209907,0.35191742,0.52286816
900,2358576168,-9.674354553,-31.42378807,-142.1121216,0.2619437,0.4472068,0.96737766,466,2351342690,178.4589844,-52.35342407,-22.74394417,-0.62824607,0.97005373,0.32181454
901,2358592835,-9.806550026,-32.71255112,-141.8537598,-0.15513203,0.6793049,0.6700134,467,2351359357,178.5864105,-51.98620605,-22.81415749,0.03545959,0.29196095,-0.041627884
903,2358626169,-9.610790253,-35.50244522,-141.4080963,-0.34294847,0.8360022,0.8319721,468,2351376024,178.6399078,-51.62940598,-22.85378838,-0.38441893,0.26573226,0.41809082
907,2358692837,-8.292495728,-42.12126541,-140.6578217,-0.4738439,-1.0325615,0.18301582,469,2351392691,178.535141,-51.33123016,-22.89868164,-0.32171395,0.7540158,0.4923334
909,2358726171,-8.655499458,-45.58982849,-139.8410492,0.001880582,-1.371138,-0.011825562,470,2351409358,178.5239258,-51.10467911,-22.93235397,-0.01315083,1.0447086,0.34660816
910,2358742838,-9.239431381,-47.28858566,-139.2640533,-0.04189478,-1.397327,-0.05295086,471,2351426025,178.7793427,-50.92340851,-22.95523453,-0.045883905,0.4361438,0.5846958
912,2358776172,-11.14099693,-50.7163353,-137.9820557,-0.12252726,-1.4359305,-0.45458317,472,2351442692,179.0071716,-50.75474167,-22.88511276,-0.63067293,0.38998893,0.48083115
916,2358842840,-17.6458149,-58.04581833,-134.9309998,-1.0688199,-1.3381059,-0.93248653,473,2351459359,179.0808716,-50.57635498,-22.76072121,-0.4953531,0.31888494,0.43693256
918,2358876174,-22.21930313,-61.89975739,-132.5119476,-1.4056916,-1.2005132,-1.4328794,474,2351476026,179.0276184,-50.40890884,-22.64697266,-0.26572007,0.2656606,0.37857533
919,2358892841,-25.02880859,-63.84783173,-130.7985077,-1.3640734,-1.0185285,-1.6078053,475,2351492693,178.9220428,-50.27547455,-22.52006721,-0.49568623,0.047128096,0.41754436
921,2358926175,-31.66466141,-67.54805756,-126.4180298,-0.8834975,-0.13722612,-2.0507007,476,2351509360,178.8323669,-50.22454453,-22.45137596,-0.45264128,-0.2102697,0.81121826
923,2358959509,-39.30235672,-70.93815613,-120.9245834,0.03954514,0.77987397,-2.7037091,477,2351526027,178.7546234,-50.26347351,-22.4414196,-0.59602624,-0.08143136,0.8589573
925,2358992843,-48.90167236,-74.12491608,-112.5099335,0.35009506,1.45384,-2.8359814,478,2351542694,178.5382233,-50.29660416,-22.3523407,-0.54844755,0.3682863,0.15584564
927,2359026177,-61.5459671,-76.7873764,-100.1999588,0.82353425,2.3628497,-1.9856076,479,2351559361,178.3082581,-50.30498886,-22.20960236,-0.13808551,0.61969066,0.23968697
928,2359042844,-68.82694244,-77.80622864,-92.68818665,0.887655,2.6340222,-1.0394955,480,2351576028,178.3334045,-50.37787247,-22.11219788,-0.15928367,0.093100354,0.80986214
930,2359076178,-84.67342377,-79.02612305,-75.4950943,0.8088804,2.6503987,0.97138214,481,2351592695,178.4297943,-50.51635361,-22.03047943,-0.5403979,-0.18075643,0.64323044
932,2359109512,-98.31681061,-79.15245819,-59.67696762,-0.06164486,1.7695613,1.5427542,482,2351609362,178.3961945,-50.6781311,-21.93006516,-0.7387725,-0.041085705,0.38076305
939,2359226181,-120.1923828,-77.13767242,-31.51379013,0.7985116,-1.076931,0.15180779,483,2351626029,178.300293,-50.87382507,-21.85524178,-0.43510318,-0.33380687,0.56634235
941,2359259515,-124.2094193,-76.50583649,-26.97244072,1.4962292,-1.5012455,1.6067781,484,2351642696,178.1193542,-51.11455917,-21.80096626,-0.67358065,-0.25593066,0.43018436
943,2359292849,-123.4913635,-76.48783112,-28.3747406,0.69990057,-0.5086405,0.896842,485,2351659363,177.9058228,-51.35137939,-21.76208687,-0.64048815,-0.2796293,0.06124592
945,2359326183,-122.0788269,-76.64720917,-31.09480476,-0.55674005,0.34209496,-0.46056843,486,2351676030,177.7370148,-51.61398697,-21.79353333,-0.31739867,-0.05387411,0.20625114
946,2359342850,-122.0497208,-76.69319153,-31.69515419,-1.1064669,0.3630988,-0.523036,487,2351692697,177.5563507,-51.91904068,-21.85037041,-0.20334224,0.4053636,0.5164051
948,2359376184,-123.1397858,-76.63301086,-31.0972271,-1.4055102,0.588578,-0.60192776,488,2351709364,177.4526367,-52.24011612,-21.86981773,0.060030427,0.5979714,0.36654472
950,2359409518,-125.0949326,-76.3473053,-28.73756409,-0.8390793,0.8058466,-0.082613945,489,2351726031,177.5182037,-52.5580368,-21.88088036,0.10603219,0.6155971,0.34140682
952,2359442852,-126.0560455,-76.01862335,-26.62887001,-0.15669024,0.7296949,0.38885403,490,2351742698,177.6585999,-52.91002655,-21.86883545,0.027851222,0.63210154,0.49017525
954,2359476186,-125.7365723,-75.81641388,-25.48285103,0.09984603,-0.049388763,0.22550774,491,2351759365,177.798111,-53.27859116,-21.73600197,-0.31517598,0.50292087,0.14482689
955,2359492853,-125.5093994,-75.73033905,-25.15631104,0.0836636,-0.67249674,0.12889576,492,2351776032,177.8740845,-53.63735962,-21.54843521,-0.29944208,0.47322822,0.14054394
959,2359559521,-125.1064148,-75.8780899,-24.82496452,-0.5202126,-1.1130952,-0.20240784,493,2351792699,177.8468781,-54.01531601,-21.38589287,-0.076784626,0.48818377,0.5646763
961,2359592855,-124.8015213,-75.99143219,-25.21891975,-0.75530136,-1.0821732,-0.6103859,494,2351809366,177.7855682,-54.45119476,-21.22948837,-0.12448448,-0.14285976,0.81339455
963,2359626189,-124.6930008,-75.83346558,-26.01436615,-0.33156595,-1.0569605,0.16439152,495,2351826033,177.6716003,-54.97282791,-21.01259995,-1.0018349,-0.24297613,0.74701595
964,2359642856,-124.5761642,-75.71006012,-26.68381882,-0.07385069,-0.5056654,0.39843845,496,2351842700,177.32901,-55.51148605,-20.73547173,-1.2084556,0.10552337,0.2812147
966,2359676190,-124.0320969,-75.70339966,-28.39658928,-0.026158085,0.62406224,0.4301653,497,2351859367,176.8745728,-56.0459938,-20.47392654,-0.66628647,0.3502439,0.16116047
968,2359709524,-123.072731,-76.03448486,-29.93657303,-0.47207516,0.93967843,0.06463432,498,2351876034,176.5970764,-56.61787415,-20.32917404,-0.40393513,0.34151182,0.71149063
970,2359742858,-121.4761581,-76.27759552,-31.07532883,-1.2063088,0.75414187,-0.014616966,499,2351892701,176.5962982,-57.27770233,-20.3210907,-0.17638008,-0.20117529,1.0840883
972,2359776192,-120.1739044,-76.52109528,-32.29224777,-0.19127087,0.7802936,-0.40567207,500,2351909368,176.7191315,-58.07815933,-20.30413437,-0.71782714,-0.5120787,0.9396057
973,2359792859,-120.5705719,-76.55692291,-32.158638,0.3994035,0.5516785,-0.6145115,501,2351926035,176.7035217,-58.91334534,-20.15854836,-1.4818491,0.23920725,-0.0546484
975,2359826193,-120.3932037,-76.21708679,-31.78024483,-0.45271415,-1.2289099,0.90345764,502,2351942702,176.6681824,-59.68432617,-20.01586914,-1.2008646,0.7068081,-0.16444016
977,2359859527,-117.065567,-76.69099426,-34.52896118,-0.4249756,-0.06746537,-0.105825424,503,2351959369,176.7667847,-60.48570251,-19.96507072,-0.6353089,0.57497984,0.4587803
979,2359892861,-116.8368378,-76.97187042,-34.71875763,-0.23255269,-0.112947464,-0.4933691,504,2351976036,177.0765686,-61.39490509,-20.00581932,-0.44245014,0.4361692,0.8752413
981,2359926195,-116.8087082,-77.07744598,-34.90764236,-0.42784205,-0.22664873,0.16146374,505,2351992703,177.7062531,-62.42031479,-20.16929245,-0.6585157,-0.31895086,1.1424856
982,2359942862,-116.3858643,-77.21707153,-35.56924438,0.03775712,-0.00500412,0.16323757,506,2352009370,178.3925323,-63.59301758,-20.45473099,-1.038132,-1.2327198,1.3071423
984,2359976196,-114.8350677,-77.36148071,-37.16382599,0.75319684,0.19304366,-0.11887264,507,2352026037,178.7136688,-64.88230896,-20.77003288,-2.4571471,-0.7398974,0.41862488
986,2360009530,-113.4987183,-77.30680084,-37.84982681,0.5818116,0.52260727,-0.11480999,508,2352042704,178.9633026,-66.1434021,-21.29489708,-2.9360695,-1.18E-04,-0.25819397
988,2360042864,-113.8123474,-77.48088074,-37.29504395,0.39844888,-0.08466123,-0.40421677,509,2352059371,179.4269104,-67.34133911,-22.1803093,-1.8918047,0.27114743,-0.15231228
990,2360076198,-115.0870514,-77.51121521,-36.00117493,0.74675155,-0.5123088,0.32251263,510,2352076038,-179.7498016,-68.60610199,-23.3766346,-0.59470874,0.48246595,0.1752367
991,2360092865,-114.7195206,-77.47407532,-36.19452286,0.6964987,-0.25299388,0.47767448,511,2352092705,-178.3173981,-70.05323792,-24.94297409,0.13929853,0.41341913,0.57579994
995,2360159533,-113.7524948,-77.60374451,-36.90514755,0.27925375,-0.41799024,-0.11289787,512,2352109372,-176.2857971,-71.63285828,-26.96611023,-0.46393034,0.267901,0.93537235
997,2360192867,-114.2281799,-77.59674835,-36.76290894,-0.031154409,-0.28975415,0.5138893,513,2352126039,-173.9750366,-73.28878021,-29.28160858,-1.307297,0.23756136,-0.32384396
999,2360226201,-113.1820145,-77.65872955,-38.30443954,0.10213467,0.51491004,-0.26469326,514,2352142706,-171.6947784,-74.8552475,-31.66817284,-0.9167226,1.0561727,-1.9804182
1000,2360242868,-112.9986038,-77.6975708,-38.73807526,0.2030775,0.49033758,-0.5668602,515,2352159373,-169.3054657,-76.20045471,-34.15275192,0.22462147,1.2981963,-2.0462208
1002,2360276202,-113.9573975,-77.58621979,-38.00275421,0.081582814,0.15061007,-0.23458385,516,2352176040,-166.3438568,-77.42780304,-37.01852036,0.8126823,0.6890999,-0.98802376
1004,2360309536,-114.5823288,-77.38204193,-37.40245819,-0.37828955,-0.019112928,0.3652115,517,2352192707,-162.4876404,-78.68453979,-40.52473831,1.0287077,-0.38834018,-0.55284214
1006,2360342870,-114.2662354,-77.37464142,-37.8776741,-0.21278417,0.002448473,-0.028603554,518,2352209374,-157.8766022,-79.96903229,-44.84843826,0.95376915,-0.83025074,-0.6680374
1008,2360376204,-114.5649185,-77.35655212,-37.88538361,-0.17103347,-0.12810992,-0.14154434,519,2352226041,-152.9011688,-81.16687012,-49.84297943,1.8745744,-0.95174116,-1.1522493
1009,2360392871,-114.8026657,-77.30936432,-37.81545258,-0.18999027,-0.1384151,-0.01922512,520,2352242708,-147.8204041,-82.15237427,-55.18612289,3.151767,-0.13267188,-1.6112194
1011,2360426205,-114.9920273,-77.20993042,-37.86075974,0.00941118,0.07273335,-0.09824467,521,2352259375,-143.160553,-82.78833771,-59.95399475,3.704208,-0.29675865,-1.4205303
1015,2360492873,-115.8498077,-76.98139191,-37.1637764,-0.036469225,-0.072240055,-0.15182209,522,2352276042,-138.7923279,-83.16671753,-64.12100983,3.0688682,-0.7165408,-0.28161526
1017,2360526207,-116.5316315,-76.79627228,-36.62685013,-0.16981675,-0.18570094,0.28633213,523,2352292709,-134.4448395,-83.48175812,-68.07004547,1.8607013,-0.75723815,0.42731953
1018,2360542874,-116.8020859,-76.72385406,-36.48448563,-0.037661124,-0.13490315,0.32387924,524,2352309376,-130.2563019,-83.80891418,-72.11782837,0.9707913,-1.1762209,0.054068565
1020,2360576208,-117.3572693,-76.62049103,-36.27921677,0.31659022,0.13980567,0.025821686,525,2352326043,-126.9921951,-84.03961182,-75.55714417,0.8393152,-1.1117767,-0.2471981
1022,2360609542,-117.8457336,-76.54762268,-36.20170593,0.34106547,0.07924116,-0.104483604,526,2352342710,-125.1891861,-84.119133,-77.5814743,1.367364,-0.3375767,0.16013432
1024,2360642876,-117.9861679,-76.46871185,-36.47463989,0.008216714,-0.02166824,0.13270283,527,2352359377,-124.4530029,-84.12710571,-78.23673248,1.8101786,0.37838265,0.67285633
1026,2360676210,-118.1311417,-76.39994812,-36.75188065,-0.2189332,0.06773549,0.13621902,528,2352376044,-123.8287659,-84.15239716,-78.39486694,1.8179903,0.43818903,0.5274582
1027,2360692877,-118.3681488,-76.38211823,-36.71407318,-0.215281,0.12334853,-0.08897114,529,2352392711,-123.250206,-84.16497803,-78.31572723,1.3054496,-0.23035882,-0.14931679
1029,2360726211,-119.0572586,-76.29738617,-36.31230164,-0.13371667,0.0735395,-0.18579865,530,2352409378,-123.0653152,-84.13867188,-77.98219299,0.16924384,-0.59165114,-0.46488762
1031,2360759545,-119.3560562,-76.15632629,-36.1972847,-0.013116146,-0.00494176,0.088178635,531,2352426045,-123.3643265,-84.07176208,-77.33404541,-0.80012083,-0.6674052,-0.16675568
1035,2360826213,-118.9642487,-76.0893631,-36.59602737,-0.20882118,-0.050023764,0.011116982,532,2352442712,-123.5516205,-84.01194763,-77.112854,-0.8951646,-0.7351259,0.26019478
1036,2360842880,-118.9571152,-76.07939148,-36.49939346,-0.28665686,-0.035437085,-0.07499981,533,2352459379,-123.178772,-83.96733093,-77.83600616,-0.8395203,-0.60454917,0.29672146
1038,2360876214,-119.2805405,-76.01734924,-36.09495926,-0.43814272,0.028284447,-0.1668539,534,2352476046,-122.5404282,-83.92697906,-79.00474548,-0.4113012,-0.17683211,0.11945057
1040,2360909548,-119.7596207,-75.90589905,-35.73428345,-0.22303377,-0.022955116,-0.047153473,535,2352492713,-121.9744339,-83.89286041,-80.06974792,0.18359657,0.38813546,0.0822916
1042,2360942882,-120.0226288,-75.76819611,-35.63027191,0.07908056,-0.0397976,0.13536644,536,2352509380,-121.5981216,-83.87158203,-80.75343323,0.54535073,0.71700233,0.18328571
1044,2360976216,-120.0376816,-75.69023132,-35.63104248,0.15457204,-0.1015758,0.104724884,537,2352526047,-121.3415222,-83.85490417,-81.06023407,0.5103609,0.55843496,0.21826172
1045,2360992883,-120.1120071,-75.67059326,-35.51956558,0.14722316,-0.12913662,0.016600609,538,2352542714,-121.0861969,-83.84467316,-81.17935944,0.40687266,0.012379433,0.1930399
1047,2361026217,-120.4466171,-75.64038849,-35.12823105,0.08867565,-0.14449374,-0.017910004,539,2352559381,-120.9045029,-83.83238983,-81.21118164,0.15379775,-0.41128305,0.13774109
1049,2361059551,-120.6723938,-75.60595703,-34.9382782,-0.004879316,-0.05723541,0.008304596,540,2352576048,-120.7850266,-83.79995728,-81.27837372,-0.06165451,-0.48893994,0.21063137
1051,2361092885,-120.6408844,-75.58394623,-35.08151627,-0.19082323,-0.027265228,6.68E-05,541,2352592715,-120.6640244,-83.75383759,-81.43771362,-0.07516714,-0.12352494,0.3193903
1054,2361142886,-120.8415375,-75.54768372,-35.08401871,-0.19494794,-0.066958115,-0.047423363,542,2352609382,-120.5198059,-83.7186203,-81.64256287,0.15377425,0.24076872,0.2975645
1056,2361176220,-121.2329788,-75.46809387,-34.73595428,-0.035913125,0.07303442,-0.017029762,543,2352626049,-120.4696503,-83.68611145,-81.71912384,0.34662983,0.37156513,0.12565708
1058,2361209554,-121.5606232,-75.39913177,-34.36530304,0.054286882,0.111510165,0.03998947,544,2352642716,-120.5681381,-83.63616943,-81.60816956,0.26271266,0.23067208,-0.04984379
1060,2361242888,-121.7616348,-75.37582397,-34.13667297,0.01912881,-0.003151868,0.04847145,545,2352659383,-120.7070236,-83.58191681,-81.38021851,0.1995072,0.25803795,0.09806538
1062,2361276222,-121.8025742,-75.36909485,-34.08885574,-0.13029887,-0.13610844,-0.01872158,546,2352676050,-120.756134,-83.54995728,-81.15145874,-0.030246612,0.14997642,0.1552124
1063,2361292889,-121.7634888,-75.35730743,-34.13471985,-0.24894156,-0.17071539,-0.01636982,547,2352692717,-120.7090454,-83.53273773,-80.96665955,-0.23679075,0.047254775,0.1740799
1065,2361326223,-121.6508789,-75.33865356,-34.30942535,-0.40234807,-0.19669452,-0.00344944,548,2352709384,-120.4808197,-83.51509094,-80.94438171,-0.1490933,0.061851513,0.23002434
1067,2361359557,-121.5888138,-75.34114838,-34.48788452,-0.4045288,-0.17350395,-0.028569221,549,2352726051,-120.1665955,-83.4924469,-80.99567413,-0.009344979,-0.076785974,0.2049923
1069,2361392891,-121.6401672,-75.34063721,-34.56198883,-0.31843,-0.11375077,-0.08690548,550,2352742718,-119.9227142,-83.46813965,-80.99268341,0.06406278,-0.24420406,0.20418262
1071,2361426225,-121.8447266,-75.32398987,-34.4126091,-0.23709723,-0.019624103,-0.078287125,551,2352759385,-119.8076019,-83.44455719,-80.90660858,0.14882128,-0.34791836,0.14371967
1072,2361442892,-122.0098724,-75.30032349,-34.23652649,-0.16954006,0.04294209,-0.01761818,552,2352776052,-119.8560638,-83.41373444,-80.70263672,0.34440106,-0.38231617,0.057027817
1074,2361476226,-122.2641068,-75.2568512,-33.89511108,-0.07449666,0.09239674,0.12869167,553,2352792719,-120.1664047,-83.36481476,-80.28456116,0.42633656,-0.31239265,0.02763462
1076,2361509560,-122.2993622,-75.25151062,-33.79675674,-0.05219328,0.076615326,0.07821369,554,2352809386,-120.7118912,-83.29869843,-79.69421387,0.46928802,-0.16764276,0.09874058
1078,2361542894,-122.1701889,-75.26892853,-33.92686844,-0.095432766,-0.015144679,-0.07211971,555,2352826053,-121.4779739,-83.21907043,-78.92511749,0.57109725,-0.11134449,0.17159176
1080,2361576228,-122.2364807,-75.26289368,-33.85445023,-0.102993414,-0.18180141,-0.03208542,556,2352842720,-122.5130615,-83.12833405,-77.91695404,0.56799537,-0.06328015,0.20184708
1081,2361592895,-122.3228531,-75.24471283,-33.74346542,-0.120811194,-0.16527095,0.03403473,557,2352859387,-123.7960587,-83.02658844,-76.65876007,0.66212827,-0.12772234,0.14130211
1083,2361626229,-122.4971085,-75.21839905,-33.57679367,-0.050700814,-0.10798995,3.06E-04,558,2352876054,-125.3618011,-82.90909576,-75.0973053,0.81180584,-0.04661916,0.01651001
1085,2361659563,-122.4740219,-75.24340057,-33.67103195,-0.161742,-0.044180688,0.13643456,559,2352892721,-127.2198944,-82.76747131,-73.20439148,1.0097218,-0.15498741,-0.08444691
1087,2361692897,-121.9591599,-75.32598877,-34.15906525,-0.49468648,0.050243143,0.007891655,560,2352909388,-129.3794098,-82.59422302,-70.96405792,1.0984101,-0.1966948,-0.101314545
1090,2361742898,-121.5762634,-75.45975494,-34.53129196,-0.6715287,0.0547885,-0.14495277,561,2352926055,-131.8334351,-82.36666107,-68.38320923,1.2215697,-0.42179817,-0.116716385
1092,2361776232,-121.9947739,-75.44043732,-34.16373062,-0.20847927,0.004763732,-0.16684914,562,2352942722,-134.5525818,-82.06372833,-65.54637146,1.5069152,-0.7344376,-0.1515894
1094,2361809566,-122.6006165,-75.36133575,-33.57135391,0.42176107,-0.09564902,-0.014230728,563,2352959389,-137.5487213,-81.67330933,-62.54510117,1.4680729,-0.8114938,-0.27828407
1096,2361842900,-122.9298859,-75.30246735,-33.14093399,0.71226203,-0.22101285,0.090423584,564,2352976056,-140.8670654,-81.16978455,-59.3169136,1.6234082,-0.5781518,-0.17553425
1098,2361876234,-122.8545151,-75.31142426,-33.12810898,0.49194458,-0.23597994,0.15634537,565,2352992723,-144.4688873,-80.54780579,-55.82413483,2.113351,-0.110585324,0.047228813
1099,2361892901,-122.6964111,-75.35028839,-33.32284927,0.23412496,-0.14206529,0.07858181,566,2353009390,-148.4599304,-79.86302185,-51.96612167,2.068129,0.6239748,-0.11888981
1101,2361926235,-122.4345474,-75.43767548,-33.86847687,-0.0391986,-0.022892645,-0.119758606,567,2353026057,-152.5829773,-79.10158539,-47.92012405,1.3752273,1.0079175,-0.86228085
1103,2361959569,-122.5309601,-75.45300293,-34.13182068,-0.03001072,0.007766963,-0.10083103,568,2353042724,-156.5092468,-78.23496246,-43.9644928,1.0881336,0.77619094,-1.2170753
1105,2361992903,-122.7997284,-75.41513824,-34.00102615,-0.005805316,0.124470115,-0.001775742,569,2353059391,-160.0397949,-77.26835632,-40.46917343,0.94687253,0.10001124,-0.9573231
1107,2362026237,-122.8509903,-75.38228607,-33.83641815,-0.06300759,0.07243083,0.0506773,570,2353076058,-163.3194427,-76.19299316,-37.4419632,0.20344733,-0.4665078,-0.15721035
1110,2362076238,-122.6181946,-75.41583252,-33.94567871,-0.3174983,-0.1372269,0.005978584,571,2353092725,-166.6483307,-75.09468079,-34.68257904,0.16444868,-0.3124596,0.2681017
1112,2362109572,-122.6294479,-75.40193176,-33.96945572,-0.22005194,-0.070421666,0.018064499,572,2353109392,-169.9797821,-73.99991608,-31.93898201,0.96042603,0.30244914,-0.08855152
1114,2362142906,-122.7105408,-75.38332367,-33.8985672,0.014650464,0.03872116,0.03973961,573,2353126059,-172.9992218,-72.84434509,-29.26231384,0.72348964,0.27628943,-1.1788626
1116,2362176240,-122.6182175,-75.4077301,-33.83472061,0.037086833,0.048255328,0.030540466,574,2353142726,-175.403183,-71.56533813,-26.95781517,-0.03825465,0.5226797,-1.5604849
,,,,,,,,575,2353159393,-177.1329803,-70.21867371,-25.04809761,-0.15712158,0.5642891,-1.2911186
,,,,,,,,576,2353176060,-178.2824249,-68.89652252,-23.42695999,-0.05252817,-0.02299831,-0.74809456
,,,,,,,,577,2353192727,-179.1822815,-67.59471893,-22.07213783,-0.76336074,-0.77975035,0.006554604
,,,,,,,,578,2353209394,179.9932251,-66.31452942,-21.06816292,-1.5186055,-1.0872142,0.500062
,,,,,,,,579,2353226061,179.284729,-65.06964111,-20.38250732,-1.3908284,-0.9439532,0.06543732
,,,,,,,,580,2353242728,178.6237793,-63.79878998,-19.96300697,-1.0316865,-0.44553855,-0.5866966
,,,,,,,,581,2353259395,178.0781403,-62.53266907,-19.65416718,-0.6442676,-0.013928601,-0.6733427
,,,,,,,,582,2353276062,177.5937195,-61.29385376,-19.36837387,-0.6023727,0.9948099,-0.123874664
,,,,,,,,583,2353292729,177.2734375,-60.07908249,-19.06270218,0.38067737,1.0480397,0.33035374
,,,,,,,,584,2353309396,177.1616669,-58.96318054,-18.7673912,-0.09516164,0.46775004,1.1744089
,,,,,,,,585,2353326063,177.1394348,-58.01902771,-18.43519592,-1.7704996,0.22218473,1.5965834
,,,,,,,,586,2353342730,177.0424805,-57.13214874,-18.06248283,-1.9407862,0.05768266,0.8318176
,,,,,,,,587,2353359397,176.7504883,-56.25529861,-17.73777962,-1.5343561,0.056692943,0.38054466
,,,,,,,,588,2353376064,176.3130188,-55.45836258,-17.4100399,-2.0893776,0.5782967,0.7515116
,,,,,,,,589,2353392731,176.0215149,-54.71152878,-17.1402874,-1.3015662,0.044088714,0.68891144
,,,,,,,,590,2353409398,176.0281372,-54.01708984,-17.05377388,-0.4769758,-0.8720871,0.73272896
,,,,,,,,591,2353426065,176.0372467,-53.48940659,-17.1326313,-1.2759975,-0.70468616,1.2907591
,,,,,,,,592,2353442732,175.8638,-53.06018448,-17.24092293,-0.9748443,-0.2334224,1.0295238
,,,,,,,,593,2353459399,175.7205811,-52.67916107,-17.38324738,-0.6154908,0.47929415,1.0221167
,,,,,,,,594,2353476066,175.7224579,-52.28090668,-17.47042084,0.16402182,0.8112919,0.14781761
,,,,,,,,595,2353492733,175.8702698,-51.87682343,-17.4402523,0.114249006,0.7443797,-0.0774107
,,,,,,,,596,2353509400,176.2415771,-51.54959488,-17.39672089,-0.4825115,0.18743283,0.5075674
,,,,,,,,597,2353526067,176.5778046,-51.31768417,-17.40074348,-1.0605243,0.26245025,1.0354528
,,,,,,,,598,2353542734,176.5912018,-51.14939117,-17.39425087,-0.61326087,0.58635396,0.8277416
,,,,,,,,599,2353559401,176.3674316,-50.98059845,-17.28112221,-0.06582277,0.602834,0.3210392
,,,,,,,,600,2353576068,176.1834869,-50.83993149,-17.13260269,-0.09326933,-0.15890788,0.36155415
,,,,,,,,601,2353592735,175.9295502,-50.77458191,-16.99381828,-0.7506147,-0.3366589,0.57258034
,,,,,,,,602,2353609402,175.467514,-50.7532692,-16.89434242,-0.37154675,-0.0790272,0.24612808
,,,,,,,,603,2353626069,174.9190826,-50.71505737,-16.81069183,0.17891102,0.20041747,-0.1606369
,,,,,,,,604,2353642736,174.5540619,-50.65927124,-16.79153824,0.45612687,0.090770565,0.22999477
,,,,,,,,605,2353659403,174.4403687,-50.65673447,-16.81663895,0.04736051,0.30341253,0.56683254
,,,,,,,,606,2353676070,174.5347137,-50.63634491,-16.80468941,-0.07140722,0.28239828,-0.053887367
,,,,,,,,607,2353692737,174.7441559,-50.54750824,-16.76534653,0.144327,0.045814008,-0.18736744
,,,,,,,,608,2353709404,174.8916473,-50.47194672,-16.73358917,-0.056575727,0.24574943,0.41871548
,,,,,,,,609,2353726071,175.044281,-50.43903351,-16.69314957,-0.26242515,-0.022602636,0.37042332
,,,,,,,,610,2353742738,175.2409668,-50.40557098,-16.70432091,-0.34127146,-0.2748013,0.14058304
,,,,,,,,611,2353759405,175.292923,-50.36671829,-16.75855255,-0.07698194,-0.411191,0.23514652
,,,,,,,,612,2353776072,175.1237183,-50.34367371,-16.7442627,-0.27638853,-0.18271698,0.34015465
,,,,,,,,613,2353792739,174.9618225,-50.3318634,-16.74136353,-0.29837978,-0.28956434,0.5532932
,,,,,,,,614,2353809406,174.8517609,-50.34532166,-16.80110168,-0.24275832,0.01814657,0.3462143
,,,,,,,,615,2353826073,174.7434998,-50.3420372,-16.81027794,-0.16521649,0.60662246,-0.032058716
,,,,,,,,616,2353842740,174.8527527,-50.34496307,-16.81469917,0.18381917,0.6396825,0.33153534
,,,,,,,,617,2353859407,175.2842865,-50.37992096,-16.86642265,-0.22195123,0.010851889,0.5482254
,,,,,,,,618,2353876074,175.6813812,-50.43106842,-16.91985321,-0.7462312,-0.12003316,0.33400536
,,,,,,,,619,2353892741,175.8778534,-50.50541687,-16.9619751,-0.65356386,0.1356295,0.49823284
,,,,,,,,620,2353909408,175.9910736,-50.65727997,-17.00343895,-0.2391017,0.045805406,0.73793983
,,,,,,,,621,2353926075,176.0700836,-50.84386063,-17.04646492,-0.32442096,-0.118702084,0.5094099
,,,,,,,,622,2353942742,175.9869232,-51.0461235,-17.07230186,-0.36739948,0.37689626,0.32180595
,,,,,,,,623,2353959409,175.8840485,-51.28066635,-17.06212997,-0.22682765,0.63614553,0.43586445
,,,,,,,,624,2353976076,175.9359283,-51.57913589,-17.07348251,-0.013640647,0.39499164,0.8037739
,,,,,,,,625,2353992743,176.0778656,-51.94543839,-17.09460068,-0.24700098,0.31959906,0.7483587
,,,,,,,,626,2354009410,176.14888,-52.30238342,-16.9748764,-0.41836882,0.45109603,0.2916937
,,,,,,,,627,2354026077,176.0730133,-52.62461853,-16.61048698,-0.2811204,0.24084158,0.6949158
,,,,,,,,628,2354042744,175.9124603,-52.99688339,-16.12570381,-0.5569802,-0.46149257,1.1503048
,,,,,,,,629,2354059411,175.8864594,-53.48540878,-16.02194405,-0.74178296,-1.1227431,0.91499615
,,,,,,,,630,2354076078,175.7843628,-54.10914993,-16.11029625,-1.5884036,-0.53324926,0.41116238
,,,,,,,,631,2354092745,175.6522369,-54.70703125,-16.30434608,-1.5779521,0.052422058,-0.91696167
,,,,,,,,632,2354109412,175.6105347,-55.29243088,-16.62699699,-0.9162234,0.5255348,-0.09811783
,,,,,,,,633,2354126079,175.7642975,-55.97584152,-16.97544098,-0.4180291,0.57816005,1.149415
,,,,,,,,634,2354142746,176.1186218,-56.80805588,-17.34216881,-0.24818791,0.58219004,1.5791931
,,,,,,,,635,2354159413,176.6579437,-57.77068329,-17.72840691,-0.116244845,0.22255766,1.124135
,,,,,,,,636,2354176080,177.2045135,-58.76024246,-18.02428246,-1.1475438,0.29886225,0.28108692
,,,,,,,,637,2354192747,177.7126465,-59.68606567,-18.28851128,-1.565062,0.15894783,-0.32761765
,,,,,,,,638,2354209414,178.1966858,-60.60241318,-18.69087791,-1.6499923,-0.02385889,0.402915
,,,,,,,,639,2354226081,178.598114,-61.64848328,-19.25774765,-1.5482417,0.051012587,1.0877514
,,,,,,,,640,2354242748,178.9784851,-62.8668251,-19.95228386,-1.0010608,0.23553236,1.0162687
,,,,,,,,641,2354259415,179.4642487,-64.19689178,-20.75669289,-0.31473872,0.07740237,0.66613674
,,,,,,,,642,2354276082,-179.8481445,-65.61808777,-21.68933296,-0.9901321,0.1924108,0.30705357
,,,,,,,,643,2354292749,-178.9641724,-67.01230621,-22.77895355,-1.074132,0.29110613,-0.70996284
,,,,,,,,644,2354309416,-177.8688049,-68.33098602,-24.06819916,-0.94408375,0.67203414,-0.57437897
,,,,,,,,645,2354326083,-176.6321259,-69.64041901,-25.50429344,-0.5628379,0.6302504,0.044260025
,,,,,,,,646,2354342750,-175.2232056,-71.02518463,-27.02066612,-0.3310016,0.6132467,-0.2653122
,,,,,,,,647,2354359417,-173.6181335,-72.43617249,-28.64580536,-0.012405444,0.07971282,-0.98801136
,,,,,,,,648,2354376084,-171.8330536,-73.77793884,-30.48972893,0.37490186,-0.5336333,-1.245883
,,,,,,,,649,2354392751,-169.8527985,-75.06240845,-32.66639709,0.12913996,-0.48879528,-1.1329136
,,,,,,,,650,2354409418,-167.6941681,-76.22894287,-35.15106201,0.2710731,-0.52561,-0.99947834
,,,,,,,,651,2354426085,-165.3039703,-77.29179382,-37.98245239,0.8825148,-0.56141824,-0.59068584
,,,,,,,,652,2354442752,-162.5991058,-78.3113327,-41.21342087,0.8377573,-0.49257594,-0.29074
,,,,,,,,653,2354459419,-159.4516144,-79.33256531,-44.93045425,0.29287365,-0.069526054,-0.20697498
,,,,,,,,654,2354476086,-155.9377899,-80.29672241,-49.13247299,0.58486515,0.03549151,-0.41626072
,,,,,,,,655,2354492753,-152.1426086,-81.11660004,-53.6330452,1.653448,0.24698734,-0.5314598
,,,,,,,,656,2354509420,-148.3130188,-81.76932526,-58.06896973,2.3734775,0.31007454,-0.4816103
,,,,,,,,657,2354526087,-144.5092468,-82.28375244,-62.26312256,2.4861863,-0.004378004,-0.34067917
,,,,,,,,658,2354542754,-140.6587067,-82.69019318,-66.23361206,1.3415723,-0.08219041,-0.21158314
,,,,,,,,659,2354559421,-136.8881989,-83.04703522,-70.00328827,1.3059958,0.24842168,-0.033857346
,,,,,,,,660,2354576088,-133.5074158,-83.37812805,-73.32806396,1.8526907,-0.057028938,-0.12900734
,,,,,,,,661,2354592755,-130.7364197,-83.61702728,-75.98828888,1.3601134,-0.5789867,-0.49183273
,,,,,,,,662,2354609422,-128.4764862,-83.74088287,-78.1626358,0.6742415,-0.37990308,-0.2464714
,,,,,,,,663,2354626089,-126.5242004,-83.82174683,-80.09190369,0.8320487,-2.71E-04,0.335474
,,,,,,,,664,2354642756,-124.9681473,-83.91201782,-81.60482025,1.0102206,-0.2202195,0.3297472
,,,,,,,,665,2354659423,-123.8694687,-83.97995758,-82.70946503,0.5888049,-0.64418375,0.039105415
,,,,,,,,666,2354676090,-123.1311951,-84.00498199,-83.6259613,0.25271502,-0.7688623,-0.02990532
,,,,,,,,667,2354692757,-122.7040253,-84.03186035,-84.39645386,0.14344724,-0.39010665,-0.014422417
,,,,,,,,668,2354709424,-122.6212692,-84.07582855,-84.8795166,0.42991266,-0.06965759,0.0626173
,,,,,,,,669,2354726091,-122.5401077,-84.0990448,-85.2886734,0.63108706,0.071331255,0.22714996
,,,,,,,,670,2354742758,-122.5996552,-84.10478973,-85.43608093,0.47101372,0.38725877,0.22050858
,,,,,,,,671,2354759425,-123.0084,-84.12664032,-85.09583282,0.56066316,0.48113802,0.11210346
,,,,,,,,672,2354776092,-123.553154,-84.15162659,-84.48097992,0.32710072,0.34195587,0.104273796
,,,,,,,,673,2354792759,-123.9405594,-84.16521454,-83.91413116,0.17158067,-0.01161893,0.09139633
,,,,,,,,674,2354809426,-124.2406082,-84.16454315,-83.37924957,-0.17892304,-0.09274256,0.13251495
,,,,,,,,675,2354826093,-124.4980545,-84.1579895,-82.89827728,-0.24162826,-0.16834526,0.3079319
,,,,,,,,676,2354842760,-124.5594406,-84.15293121,-82.66560364,-0.34207344,-0.077098444,0.37897873
,,,,,,,,677,2354859427,-124.4136887,-84.15420532,-82.66371918,-0.08859352,0.0133454,0.24860668
,,,,,,,,678,2354876094,-124.1224747,-84.16377258,-82.78665924,0.14367369,0.1734508,0.094638824
,,,,,,,,679,2354892761,-123.9409943,-84.17513275,-82.77490997,0.31201005,0.23418659,0.033133507
,,,,,,,,680,2354909428,-123.7632217,-84.18099213,-82.75203705,0.50192195,0.14762427,0.054668427
,,,,,,,,681,2354926095,-123.6722031,-84.17971039,-82.60852051,0.43822002,-0.104902565,0.13106441
,,,,,,,,682,2354942762,-123.7130432,-84.18372345,-82.35219574,0.090056695,-0.1330215,0.16754246
,,,,,,,,683,2354959429,-123.8753967,-84.19623566,-82.0287323,-0.11987659,-0.13195652,0.1954794
,,,,,,,,684,2354976096,-123.8920517,-84.21091461,-81.91230774,-0.14073281,-0.122661784,0.21854973
,,,,,,,,685,2354992763,-123.9486084,-84.2095871,-81.79211426,0.056405924,-0.0966042,0.15217781
,,,,,,,,686,2355009430,-124.3526001,-84.21063995,-81.30097961,0.31889573,-0.013573998,0.11728668
,,,,,,,,687,2355026097,-125.0180359,-84.20732117,-80.46421051,0.49138016,0.010797688,0.18568993
,,,,,,,,688,2355042764,-125.6190796,-84.19491577,-79.6081543,0.36508656,-0.18995556,0.16818333
,,,,,,,,689,2355059431,-126.211792,-84.17728424,-78.76631165,0.07955944,-0.290289,0.06415558
,,,,,,,,690,2355076098,-126.9404984,-84.1500473,-77.88622284,-0.12863111,-0.22606575,0.10116863
,,,,,,,,691,2355092765,-127.6786804,-84.11064911,-77.06921387,0.08608537,-0.15352222,0.16213036
,,,,,,,,692,2355109432,-128.5653076,-84.0590744,-76.11698151,0.35561097,-0.09844913,0.14818096
,,,,,,,,693,2355126099,-129.6483002,-84.0020752,-74.92480469,0.46389514,0.039337553,0.19822025
,,,,,,,,694,2355142766,-130.8874969,-83.93942261,-73.49338531,0.5379149,0.11867158,0.18014717
,,,,,,,,695,2355159433,-132.2146149,-83.86323547,-71.9002533,0.5043914,0.10103015,0.09235382
,,,,,,,,696,2355176100,-133.738678,-83.76155853,-70.08853912,0.34525785,0.01433506,0.06271839
,,,,,,,,697,2355192767,-135.3898621,-83.63863373,-68.16114044,-0.02146638,-0.09219982,0.14034176
,,,,,,,,698,2355209434,-137.0828094,-83.50496674,-66.25858307,0.12289466,-0.13691962,0.16498661
,,,,,,,,699,2355226101,-138.769455,-83.35940552,-64.4139328,0.5162727,-0.21629377,0.087343216
,,,,,,,,700,2355242768,-140.4477234,-83.18269348,-62.58053589,0.42722237,-0.3430435,0.04625702
,,,,,,,,701,2355259435,-142.0966034,-82.98694611,-60.7894783,-0.022988811,-0.35512453,0.13659096
,,,,,,,,702,2355276102,-143.8034058,-82.78488159,-59.00366211,0.12745547,-0.3647084,0.098843575
,,,,,,,,703,2355292769,-145.6104431,-82.56230164,-57.19002914,0.56231254,-0.37577406,-0.050635338
,,,,,,,,704,2355309436,-147.4527435,-82.28586578,-55.35967636,0.73569834,-0.07960922,-0.05946827
,,,,,,,,705,2355326103,-149.4514771,-81.94402313,-53.26714706,1.2958337,-0.015416527,-0.1414051
,,,,,,,,706,2355342770,-151.6549225,-81.53759003,-50.84307861,1.4603081,-0.41304675,-0.22255993
,,,,,,,,707,2355359437,-153.7741394,-81.07498169,-48.4824028,0.6237575,-0.7876282,-0.15359783
,,,,,,,,708,2355376104,-155.770813,-80.58527374,-46.40663528,-0.18167806,-0.6950471,0.03651333
,,,,,,,,709,2355392771,-157.930603,-80.07744598,-44.45959854,0.36988205,-0.32393712,-0.1627369
,,,,,,,,710,2355409438,-160.5211334,-79.46059418,-42.25423813,1.9710001,0.046382736,-0.44032097
,,,,,,,,711,2355426105,-163.4947052,-78.60770416,-39.52366257,3.691147,-0.009211863,-0.7170925
,,,,,,,,712,2355442772,-166.4130554,-77.53443146,-36.55145645,3.8541636,0.023935458,-0.7336788
,,,,,,,,713,2355459439,-169.0514526,-76.3476944,-33.68904495,2.464746,0.5632181,-0.62079525
,,,,,,,,714,2355476106,-171.5454407,-75.00113678,-30.87988663,1.5030334,1.0078623,-0.6450405
,,,,,,,,715,2355492773,-173.6828766,-73.51100159,-28.26319313,1.3974733,0.7983554,-1.0122871
,,,,,,,,716,2355509440,-175.3466644,-71.92247009,-25.94994736,0.8138847,0.20237215,-1.4418993
,,,,,,,,717,2355526107,-176.7727203,-70.27890778,-23.90101051,-0.3121137,-0.07579358,-1.7205725
,,,,,,,,718,2355542774,-178.062027,-68.62995911,-22.1364212,-1.1383951,0.1682596,-1.0311613
,,,,,,,,719,2355559441,-179.2804108,-67.16639709,-20.59668922,-1.9983289,0.27042526,0.11991024
,,,,,,,,720,2355576108,179.6277313,-65.8666153,-19.21738434,-2.654425,-0.39221138,0.56485367
,,,,,,,,721,2355592775,178.6351166,-64.66794586,-18.13199043,-1.8723834,-0.88466525,-0.10772705
,,,,,,,,722,2355609442,177.5851593,-63.37000275,-17.41042137,-0.76328903,-0.054631483,-0.70982456
,,,,,,,,723,2355626109,176.675827,-61.9222374,-16.86588287,0.84712917,0.11973483,-0.5547981
,,,,,,,,724,2355642776,176.1595001,-60.58939362,-16.48731232,0.042049933,0.27734956,0.18417454
,,,,,,,,725,2355659443,176.0279999,-59.39978027,-16.24941826,-1.1567178,-0.062131908,0.6725435
,,,,,,,,726,2355676110,176.0753021,-58.26018143,-16.12011719,-1.6669958,-0.65340173,0.39101982
,,,,,,,,727,2355692777,175.9353485,-57.13116074,-16.0610466,-2.2229693,-0.29640377,0.61695194
,,,,,,,,728,2355709444,175.5176086,-55.96326447,-15.9726181,-1.3944001,-0.3308963,0.78187084
,,,,,,,,729,2355726111,175.1779633,-54.89318085,-15.93378353,-0.8859683,-0.21677025,1.0708799
,,,,,,,,730,2355742778,175.0799103,-54.04417801,-16.04736519,-1.3560294,0.4119455,0.85744
,,,,,,,,731,2355759445,175.2441406,-53.33127975,-16.31039619,-0.7778152,1.1984305,0.3105564
,,,,,,,,732,2355776112,175.85495,-52.61603165,-16.6422348,0.42562068,0.98089206,-0.090088844
,,,,,,,,733,2355792779,176.8265228,-51.68108368,-16.96069908,1.4643623,-0.59862477,-0.6067829
,,,,,,,,734,2355809446,177.6124725,-50.73534775,-17.2353096,0.31514364,-1.4763985,0.48455906
,,,,,,,,735,2355826113,178.1096954,-50.02637863,-17.55184746,-1.5867122,-2.4730392,1.7927828
,,,,,,,,736,2355842780,178.1317444,-49.51957703,-17.81155014,-3.1741514,-1.7008291,1.6182194
,,,,,,,,737,2355859447,177.6594543,-49.01485825,-18.12849808,-2.010079,-0.26457116,0.08963966
,,,,,,,,738,2355876114,177.015686,-48.50292206,-18.56863785,-0.3344211,0.7769542,0.35698605
,,,,,,,,739,2355892781,176.4890289,-48.07408905,-19.00610733,0.7165652,1.1659604,0.6200962
,,,,,,,,740,2355909448,176.3044434,-47.74724579,-19.35571098,0.47773692,1.0687665,0.4597683
,,,,,,,,741,2355926115,176.3783875,-47.44803238,-19.61425781,0.024538837,1.5955396,0.11957073
,,,,,,,,742,2355942782,176.7009735,-47.07161713,-19.76794624,-0.1100125,1.8316346,-0.055974007
,,,,,,,,743,2355959449,177.2194366,-46.60923004,-19.83197212,0.38366166,0.9104878,0.2577753
,,,,,,,,744,2355976116,177.596283,-46.21226883,-19.80558205,-0.15808208,0.86574775,0.7599697
,,,,,,,,745,2355992783,177.8006744,-45.95332718,-19.7128849,-0.65106237,0.45621732,0.648571
,,,,,,,,746,2356009450,177.730011,-45.77852249,-19.57729721,-0.78585696,0.3737539,0.5417948
,,,,,,,,747,2356026117,177.3558502,-45.64419556,-19.40231323,-0.6924826,0.62005466,0.8633537
,,,,,,,,748,2356042784,176.9350128,-45.51012421,-19.19096756,-0.36243737,0.23612334,0.7007351
,,,,,,,,749,2356059451,176.5550385,-45.40494537,-19.00484848,-0.30880582,-0.18132243,0.81844234
,,,,,,,,750,2356076118,176.0765381,-45.3670578,-18.82507706,-0.7154066,0.31914565,0.64056396
,,,,,,,,751,2356092785,175.631134,-45.31301117,-18.60064125,-0.323422,0.4644991,0.13087654
,,,,,,,,752,2356109452,175.465271,-45.26025009,-18.43444824,0.3087602,0.08969234,0.23311615
,,,,,,,,753,2356126119,175.552536,-45.28137207,-18.33141899,-0.34663573,0.011065791,0.5337286
,,,,,,,,754,2356142786,175.6954498,-45.31658936,-18.22718048,-0.870882,-0.17366442,0.35695553
,,,,,,,,755,2356159453,175.758255,-45.37703705,-18.17368507,-0.3782194,-0.15350546,0.84564686
,,,,,,,,756,2356176120,175.7626495,-45.47164536,-18.11746597,-0.28651795,0.060592853,0.5984001
,,,,,,,,757,2356192787,175.7905884,-45.56315994,-18.02222252,-0.5365532,0.072563425,0.21033669
,,,,,,,,758,2356209454,175.8118134,-45.67941666,-17.98787117,-0.30015442,0.11986385,0.39296722
,,,,,,,,759,2356226121,175.7913513,-45.88589478,-17.9666729,-0.115944915,0.040468138,0.772274
,,,,,,,,760,2356242788,175.7025146,-46.12897873,-17.87001228,-0.42670047,0.09279431,0.49863434
,,,,,,,,761,2356259455,175.5599365,-46.3455925,-17.74694061,-0.42108306,0.19675806,0.23442459
,,,,,,,,762,2356276122,175.44104,-46.57409668,-17.63443947,-0.2300303,0.29641092,0.26341248
,,,,,,,,763,2356292789,175.3965302,-46.84161377,-17.52990723,-0.17365155,0.17662033,0.532074
,,,,,,,,764,2356309456,175.4303589,-47.18267441,-17.41979027,-0.3378855,0.043477573,0.6123514
,,,,,,,,765,2356326123,175.4474945,-47.54384232,-17.29025459,-0.6250865,0.24382252,0.41099548
,,,,,,,,766,2356342790,175.4725342,-47.94093323,-17.15039253,-0.8213132,0.12365938,0.51571846
,,,,,,,,767,2356359457,175.5031586,-48.38712311,-17.04047203,-0.8405163,0.03078578,0.820137
,,,,,,,,768,2356376124,175.523819,-48.91408157,-17.00021172,-0.62080187,0.10352908,1.089922
,,,,,,,,769,2356392791,175.493454,-49.53868484,-16.98693657,-0.091537036,0.106751464,0.82258415
,,,,,,,,770,2356409458,175.473114,-50.23366547,-16.87798119,-0.88389456,0.48579216,0.72020817
,,,,,,,,771,2356426125,175.502594,-50.90393066,-16.68725204,-0.93258244,0.41492414,6.68E-05
,,,,,,,,772,2356442792,175.5770569,-51.56772232,-16.52611351,-0.7379421,0.26501334,0.2792225
,,,,,,,,773,2356459459,175.6572876,-52.32082748,-16.42982292,-0.8122889,0.031573888,1.041112
,,,,,,,,774,2356476126,175.7028198,-53.19781876,-16.38493729,-0.7826611,0.1293664,1.311655
,,,,,,,,775,2356492793,175.7323608,-54.18059158,-16.37653542,-0.32731304,-0.049687155,0.8245592
,,,,,,,,776,2356509460,175.8283234,-55.23281097,-16.3198967,-0.9230346,-0.28552538,0.30510235
,,,,,,,,777,2356526127,175.9665833,-56.26575851,-16.23885727,-1.6369781,-0.19383748,-0.119776726
,,,,,,,,778,2356542794,176.1281586,-57.28845978,-16.30844498,-1.2485304,-0.21206217,0.09288025
