PacketCounter_femur,SampleTimeFine_femur,Euler_X_femur,Euler_Y_femur,Euler_Z_femur,FreeAcc_X_femur,FreeAcc_Y_femur,FreeAcc_Z_femur,PacketCounter_tibia,SampleTimeFine_tibia,Euler_X_tibia,Euler_Y_tibia,Euler_Z_tibia,FreeAcc_X_tibia,FreeAcc_Y_tibia,FreeAcc_Z_tibia
1.0,1208023473.0,-112.57592009999999,-82.37860107,-74.09050751,-0.2929091,0.31640464,0.034710884,2,1208023473,-165.2764893,-79.0421524,0.42022892799999995,-0.0566195,-0.16416931,-0.070547104
2.0,1208040140.0,-112.73509979999999,-82.31668854,-73.92288971,-0.25272802,0.19358684,0.17250252,3,1208040140,-165.1854095,-79.07133484,0.298288971,-0.03763565,-0.08923721,0.041528699999999995
3.0,1208056807.0,-112.81680300000001,-82.25800323,-73.83943176,-0.2050431,0.034709956,0.30366707,4,1208056807,-165.0800934,-79.10644531,0.17491112600000003,-0.048476412999999996,0.004582351,0.024840355
4.0,1208073474.0,-112.84455870000001,-82.22724152,-73.80806732,-0.10745610000000001,-0.151469,0.29998302,5,1208073474,-164.970108,-79.14385986,0.076545507,-0.0864944,0.041848443,-0.018874168
5.0,1208090141.0,-112.8729706,-82.22655487,-73.75994873,0.004123165,-0.2524493,0.22895527,6,1208090141,-164.8330841,-79.18489838,-0.029133886,-0.11957499,0.012155696,-0.006399155
6.0,1208106808.0,-112.9511032,-82.24450684,-73.63031006,0.057877157,-0.20312932,0.15208817,7,1208106808,-164.69970700000002,-79.23444366,-0.11723861099999999,-0.11416934,0.0009699999999999999,-0.0028085709999999997
7.0,1208123475.0,-113.0688629,-82.26908875,-73.42734528,0.018411313999999998,-0.037042014,0.17241001,8,1208123475,-164.55548100000001,-79.28813934,-0.209839329,-0.081012875,-0.01562836,-0.028306007
8.0,1208140142.0,-113.11996459999999,-82.29658508,-73.28145599,-0.0877905,0.17563428,0.24558163,9,1208140142,-164.4031982,-79.34656525,-0.313756377,-0.036050934,-0.030220012999999997,-0.01725483
9.0,1208156809.0,-113.0218048,-82.32324982,-73.31063843,-0.18175453,0.32504099999999997,0.3093605,10,1208156809,-164.24563600000002,-79.40508270000001,-0.432768673,0.027595371,-0.039572354,0.021632195
10.0,1208173476.0,-112.7770996,-82.34429932,-73.51713562,-0.20823367,0.32940602,0.32600403,11,1208173476,-164.0903168,-79.46350861,-0.5641675,0.051719405,-0.001066324,0.017630576999999998
11.0,1208190143.0,-112.4663925,-82.36465454,-73.81570435,-0.12756874,0.23799509,0.27218723,12,1208190143,-163.9504089,-79.52037811,-0.6927858,0.038475595,0.032985818,-0.037849426
12.0,1208206810.0,-112.21099850000002,-82.38513947,-74.06241608,0.029097965,0.11249245,0.1836443,13,1208206810,-163.8264771,-79.57485199,-0.813163579,0.053027947,0.036334097,-0.058786392
13.0,1208223477.0,-112.03874209999998,-82.39408875,-74.20581818,0.18833528,-0.027373845,0.14727783,14,1208223477,-163.703598,-79.62396240000001,-0.9345349070000001,0.05284632,0.033309855,-5.15e-05
14.0,1208240144.0,-111.87574009999999,-82.39751434,-74.29914093,0.2697564,-0.09556933,0.15968037,15,1208240144,-163.5874786,-79.66931915,-1.047408223,0.04958429599999999,0.013714028999999999,0.009512900999999999
15.0,1208256811.0,-111.70590209999999,-82.40234375,-74.349823,0.29475704,-0.17407611,0.13154411,16,1208256811,-163.48847959999998,-79.71084595,-1.138388515,0.08617278,0.017954629,-0.031921387
16.0,1208273478.0,-111.56217959999998,-82.40266418,-74.34191132,0.27310073,-0.28061816,0.1997652,17,1208273478,-163.4085388,-79.74504852,-1.202656865,0.201499,0.097824804,-0.055603027
17.0,1208290145.0,-111.40158840000001,-82.4070282,-74.35175323,0.2493484,-0.34526086,0.2326107,18,1208290145,-163.37725830000002,-79.76750946,-1.2019687890000001,0.24020043,0.121127985,-0.10539913
18.0,1208306812.0,-111.2471848,-82.42451477,-74.400177,0.21778962,-0.44572538,0.23951626,19,1208306812,-163.38656619999998,-79.77513123,-1.155127048,0.29479954,0.09402995,-0.08153819999999999
19.0,1208323479.0,-111.0418472,-82.4593277,-74.56191254,0.19512878,-0.5185049,0.2682476,20,1208323479,-163.4475555,-79.77037811,-1.071074247,0.22907846,0.04143215,-0.038228035
20.0,1208340146.0,-110.7380219,-82.52153015,-74.87600708,0.20799579,-0.52119553,0.21543694,21,1208340146,-163.55647280000002,-79.75328064,-0.956537187,0.16294837,0.03578554,-0.05567074
21.0,1208356813.0,-110.366127,-82.59710693,-75.30622101,0.16544628,-0.40375698,0.15923977,22,1208356813,-163.695755,-79.7278595,-0.8285344240000001,0.110740945,-0.034674123,-0.058221817
22.0,1208373480.0,-109.99143980000001,-82.66666412,-75.77207184,0.06327603,-0.27127892,0.124619484,23,1208373480,-163.8422852,-79.69796753,-0.7183123229999999,0.07938991,-0.054186974000000006,-0.050359725999999994
23.0,1208390147.0,-109.66518400000001,-82.73178101,-76.19522858,-0.053131368,-0.11307698,0.10321045,24,1208390147,-163.99668880000002,-79.6673584,-0.6269299979999999,0.020320548,-0.0513611,-0.04406166
24.0,1208406814.0,-109.4625473,-82.79094696,-76.48242950000001,-0.11745072,0.024419282999999996,0.06734276,25,1208406814,-164.1570892,-79.63739777,-0.535048485,-0.03826834,-0.010656091999999999,-0.048804283
25.0,1208423481.0,-109.36148829999999,-82.83004761,-76.65174103,-0.13771659,0.15837821,0.0479002,26,1208423481,-164.2918549,-79.60903168,-0.45532619999999996,-0.06219417,-0.03278488,0.028999329
26.0,1208440148.0,-109.25771329999999,-82.84368896,-76.80584717,-0.12442887,0.29585782,0.03719139,27,1208440148,-164.3854065,-79.58683014,-0.400458425,-0.09110544,-0.054580078,0.05117035
27.0,1208456815.0,-109.17945859999999,-82.82987976,-76.9262085,-0.12746239,0.33195227,0.050865173,28,1208456815,-164.4497833,-79.56957245,-0.372514367,-0.11639652,-0.10421571,0.059502599999999996
28.0,1208473482.0,-109.21252439999999,-82.80810547,-76.93145752,-0.11440112,0.28612274,0.08808899,29,1208473482,-164.4730225,-79.56031036,-0.381493181,-0.15345193,-0.06549578,0.006599425999999999
29.0,1208490149.0,-109.38836670000002,-82.79072571,-76.78918457,-0.089708336,0.16316915,0.035629272000000003,30,1208490149,-164.45715330000002,-79.55857849,-0.408444524,-0.1668782,-0.003569502,-0.026565552000000003
30.0,1208506816.0,-109.7308807,-82.75606537,-76.48333740000001,-0.040166024,-0.0045215690000000005,-0.04456997,31,1208506816,-164.41065980000002,-79.55895233,-0.448070288,-0.09833138,-0.016923396,-0.014883041000000001
31.0,1208523483.0,-110.18396000000001,-82.68217468,-76.08193207,0.010072853,-0.1332111,-0.00863266,32,1208523483,-164.3441315,-79.56163025,-0.518644631,-0.029171675,-0.09057292,0.035107612999999996
32.0,1208540150.0,-110.67728419999999,-82.58171844,-75.66204834,0.09018735,-0.2521364,0.04510498,33,1208540150,-164.2856293,-79.56900787,-0.610691607,0.01090387,-0.09933413,-0.029485703
33.0,1208556817.0,-111.2387314,-82.47605896,-75.19570923,0.15286873,-0.38079309999999994,0.08126449599999999,34,1208556817,-164.23114009999998,-79.57534790000001,-0.717652738,0.060759705,-0.09003163,-0.09900665
34.0,1208573484.0,-111.86170200000001,-82.37404633,-74.68692779999999,0.19062193,-0.46926948,0.17351913,35,1208573484,-164.15493769999998,-79.57200623,-0.854009151,0.09251856,-0.04541722,-0.061709404
35.0,1208590151.0,-112.4858932,-82.28912354,-74.18999481,0.21642749,-0.50660235,0.224329,36,1208590151,-164.09133909999997,-79.56264496,-0.978527248,0.123746775,0.077289216,-0.024151802000000003
36.0,1208606818.0,-113.13600159999999,-82.22118378,-73.67899323,0.23473294,-0.49419227,0.25416183,37,1208606818,-164.05989069999998,-79.54543304,-1.047722101,0.25110283,0.16390786,-0.017279625
37.0,1208623485.0,-113.7228088,-82.16667175,-73.24459839,0.23136759,-0.33032224,0.38066578,38,1208623485,-164.07519530000002,-79.51275635,-1.0428243879999999,0.30668828,0.18697116,-0.020292282
38.0,1208640152.0,-114.1334152,-82.13912964,-72.99184418,0.24117425,-0.081366815,0.46411800000000003,39,1208640152,-164.1470184,-79.46339417,-0.982839882,0.33412337,0.12744954,-0.047733307
39.0,1208656819.0,-114.3728027,-82.14629364,-72.89888,0.28664586,0.14049633,0.45961475,40,1208656819,-164.2959595,-79.40344238,-0.8654712440000001,0.23762423,0.059732272999999995,-0.08305359
40.0,1208673486.0,-114.4995728,-82.19430542,-72.87944794,0.27411237,0.3179223,0.39603330000000003,41,1208673486,-164.4918365,-79.33892059,-0.717959166,0.077329636,0.032923795,-0.09660816
41.0,1208690153.0,-114.4981689,-82.27558899,-72.92169952,0.17931959,0.44514203,0.27179718,42,1208690153,-164.69400019999998,-79.27165222,-0.548034668,-0.065078124,0.0789607,-0.03821373
42.0,1208706820.0,-114.31295779999999,-82.35401917,-73.07494354,0.004081228,0.6240197,0.16552448,43,1208706820,-164.8664398,-79.20761108,-0.366332352,-0.16869809,0.037892375,0.055994034000000005
43.0,1208723487.0,-114.01484679999999,-82.40319824,-73.27996826,-0.23178324,0.77203476,0.09845829,44,1208723487,-165.0202484,-79.15161896,-0.172276318,-0.24755217,-0.00159158,0.058015823
44.0,1208740154.0,-113.7957611,-82.41446686,-73.37241364,-0.45307252,0.76385003,0.067344666,45,1208740154,-165.1660919,-79.11031342,0.016680509,-0.23639065,-0.08912138,0.019618988
45.0,1208756821.0,-113.6815872,-82.38467407,-73.34786224,-0.6239657,0.6355135999999999,0.10971832,46,1208756821,-165.2480164,-79.08088684,0.12064801900000001,-0.23345883,-0.21887696,0.04643631
46.0,1208773488.0,-113.5876923,-82.32534790000001,-73.30382538,-0.63451743,0.41392812,0.14822483,47,1208773488,-165.2752686,-79.06594849,0.145980239,-0.22838959,-0.18652156,0.05979824
47.0,1208790155.0,-113.48864750000001,-82.25782776,-73.2748642,-0.5200282,0.11059457,0.16244984,48,1208790155,-165.25859069999998,-79.06589508,0.116397962,-0.23683338,-0.1093308,0.04457283
48.0,1208806822.0,-113.45048519999999,-82.20326233,-73.19774628,-0.34494369999999996,-0.21357295,0.16154003,49,1208806822,-165.20234680000002,-79.07919312,0.064109758,-0.18911557,-0.032969445,-0.013941765
49.0,1208823489.0,-113.4637375,-82.174263,-73.09168243,-0.21137322,-0.4075773,0.18704414,50,1208823489,-165.0902863,-79.10154724,-0.011433543999999999,-0.14440805,0.000975,0.025647162999999997
50.0,1208840156.0,-113.4789581,-82.17015839,-73.01858521,-0.119814746,-0.40591735,0.18293571,51,1208840156,-164.94369509999999,-79.1341095,-0.095838964,-0.10018994,-0.01384266,0.04497528
51.0,1208856823.0,-113.52362820000002,-82.17825317,-72.96098328,-0.11034478,-0.30272886,0.15861797,52,1208856823,-164.80912780000003,-79.17167664,-0.164580792,-0.050789315,-0.028279417999999997,-0.006617546
52.0,1208873490.0,-113.67671969999999,-82.18739319,-72.84329224,-0.12154575,-0.16705647,0.14824867,53,1208873490,-164.67713930000002,-79.21340179,-0.255873144,-0.009762068,-0.11319639999999999,-0.053020477
53.0,1208890157.0,-113.88327029999999,-82.19397736,-72.71968842,-0.16853826,-0.029393838999999998,0.2139883,54,1208890157,-164.53027340000003,-79.2530899,-0.394184351,0.06752644,-0.06142723,-0.027555466
54.0,1208906824.0,-113.9787216,-82.20900726,-72.74513245,-0.18124355,0.08033898,0.28650856,55,1208906824,-164.401413,-79.28606415,-0.5516026620000001,0.060402818,-0.044707897999999996,-0.004891396
55.0,1208923491.0,-113.863266,-82.23888397,-72.99991608,-0.17119427,0.17237593,0.2839222,56,1208923491,-164.2427368,-79.31188965,-0.77988416,0.049953554000000004,-0.15055023,0.093027115
56.0,1208940158.0,-113.52465819999999,-82.2806015,-73.46894073,-0.075908326,0.25043362,0.2946415,57,1208940158,-164.0192413,-79.32550049,-1.068002105,0.06044504,-0.14588232,0.13485909
57.0,1208956825.0,-112.9906845,-82.32521820000001,-74.11659241,-0.018578006,0.2521015,0.24854946,58,1208956825,-163.7821198,-79.33781433,-1.3452279569999999,-0.02259718,0.0008619999999999999,0.021607399
58.0,1208973492.0,-112.4186935,-82.36959076,-74.77837372,0.03965699,0.22960083,0.13402271,59,1208973492,-163.58187869999998,-79.35870361,-1.5257173780000002,-0.005986934,0.13124827,-0.14473152
59.0,1208990159.0,-112.0433044,-82.39847565,-75.20066071,0.06247556,0.19730283,0.026583672000000003,60,1208990159,-163.4078064,-79.38053131,-1.6274886130000001,0.00420942,0.15481491,-0.15577602
60.0,1209006826.0,-111.9429398,-82.40167999,-75.29923248,0.037379727,0.13542224,-0.001234055,61,1209006826,-163.22666930000003,-79.40008545,-1.712343335,-0.019567393,0.015815776,-0.03623104
61.0,1209023493.0,-112.0833588,-82.3736496,-75.12231445,0.0671201,0.071877226,0.09743023,62,1209023493,-163.06364440000002,-79.42186737,-1.800983429,-0.028861242999999998,-0.055701494000000004,-0.001966476
62.0,1209040160.0,-112.19267269999999,-82.33794403,-74.97647095,0.22750472,-0.05940286400000001,0.19991589,63,1209040160,-162.9595642,-79.44776917,-1.876722574,-0.003249522,-0.060805134000000004,-0.07216835
63.0,1209056827.0,-112.033165,-82.31356812,-75.11276245,0.3277261,-0.21492189,0.22004604,64,1209056827,-162.8506927,-79.47051239,-1.9679480790000001,0.04362628,-0.016091648,-0.11654854
64.0,1209073494.0,-111.64026640000002,-82.30381775,-75.47582245,0.35055378,-0.29759473,0.15781021,65,1209073494,-162.7352905,-79.4886322,-2.06131196,0.099279255,0.04601243,-0.037649155
65.0,1209090161.0,-111.4049149,-82.29393005,-75.67578125,0.29630905,-0.35964325,0.094080925,66,1209090161,-162.6667023,-79.501297,-2.095671654,0.14171493,0.116319045,-0.01510334
66.0,1209106828.0,-111.55506129999999,-82.28693390000001,-75.4909668,0.28494152,-0.41424367,0.12850666,67,1209106828,-162.6594391,-79.50827026,-2.049127579,0.18640418,0.10191319,-0.081088066
67.0,1209123495.0,-111.8858871,-82.29449463,-75.11521149,0.28139770000000003,-0.41861272,0.20831776,68,1209123495,-162.6694489,-79.50643921,-1.984033823,0.15351096,0.051098023,-0.08438969
68.0,1209140162.0,-112.14090729999998,-82.30262756,-74.80049133,0.24283364,-0.24196708,0.21849251,69,1209140162,-162.7103119,-79.49517059,-1.9032300709999999,0.1123781,0.007833403000000001,-0.034939766000000004
69.0,1209156829.0,-112.16904450000001,-82.30915833,-74.72950745,0.21734014,-0.011896098,0.21222399999999997,70,1209156829,-162.7697449,-79.47783661,-1.827664495,0.11268021,-0.011147932,0.005108833
70.0,1209173496.0,-112.13497920000002,-82.31497192,-74.7419281,0.17448826,0.13408822,0.18251419,71,1209173496,-162.8510284,-79.45600128,-1.756490469,0.11053855,-0.009878267,0.01011467
71.0,1209190163.0,-112.23867800000001,-82.31584167,-74.60974884,0.03203021,0.17058945,0.1656332,72,1209190163,-162.9392395,-79.43398285,-1.696080565,0.07303414,0.013050195,-0.024188995
72.0,1209206830.0,-112.3314896,-82.31034851,-74.4712677,-0.06877349,0.18071786,0.22708797,73,1209206830,-163.00479130000002,-79.4108963,-1.656447411,0.032759693,-0.004073132,-0.001631737
73.0,1209223497.0,-112.29194640000001,-82.30274963,-74.44885254,-0.11614273,0.17414005,0.24403381,74,1209223497,-163.0615997,-79.38763428,-1.605676055,-0.005602709,0.033412896,0.029442787
74.0,1209240164.0,-112.18443300000001,-82.29943848,-74.46679688,-0.11840473,0.16212031,0.18696499,75,1209240164,-163.1221771,-79.36614227,-1.5197877880000001,-0.022373982,0.035993855,0.003186226
75.0,1209256831.0,-112.1084747,-82.29261017,-74.41680908,-0.08093281,0.16090734,0.11284351,76,1209256831,-163.12747190000002,-79.34885406,-1.45610249,-0.09371408,-0.04500372,-0.030873299
76.0,1209273498.0,-112.13237,-82.27890015,-74.23192596,-0.06279999,0.18877335,0.11030388,77,1209273498,-163.1228485,-79.33325958,-1.379506946,-0.07953207,0.02985971,-0.024409293999999998
77.0,1209290165.0,-112.2171783,-82.26020813,-73.96739197,-0.06867744,0.19040532,0.1441164,78,1209290165,-163.1133881,-79.32161713,-1.293698907,-0.06780266,-0.085992865,-0.033857346
78.0,1209306832.0,-112.34239199999999,-82.23919678,-73.66201019,-0.07546367,0.12859500000000001,0.14290524,79,1209306832,-163.0836945,-79.31655121,-1.252024889,-0.09963208,-0.15161331,-0.015024185
79.0,1209323499.0,-112.4749374,-82.21177673,-73.36923981,-0.09001616400000001,0.035901323,0.15687752,80,1209323499,-163.0460358,-79.31472778,-1.245906591,-0.10627255,-0.064042605,0.008419036999999999
80.0,1209340166.0,-112.5941772,-82.18121338,-73.11930847,-0.11791846,-0.008527060999999999,0.17456245,81,1209340166,-163.0214539,-79.31784058,-1.241360784,-0.082715064,-0.031542483999999996,-0.01252842
81.0,1209356833.0,-112.68454740000001,-82.15386963,-72.92813873,-0.12427168,-0.06759846,0.1639328,82,1209356833,-163.0251312,-79.32341766,-1.219239473,-0.0441685,0.008362235,-0.08620262
82.0,1209373500.0,-112.75837709999999,-82.132164,-72.77024841,-0.09497692,-0.100923285,0.20639896,83,1209373500,-163.05316159999998,-79.33162689,-1.177963138,-0.01172528,0.034646966,-0.06064415
83.0,1209390167.0,-112.78919979999999,-82.12396240000001,-72.66252136,-0.062681094,-0.07213022,0.25341034,84,1209390167,-163.0990448,-79.34037781,-1.115377426,-0.028619004,0.024793397999999998,-0.013776779
84.0,1209406834.0,-112.74838259999999,-82.12937164,-72.62652588,-0.028487775,-0.050295673,0.2760725,85,1209406834,-163.1615753,-79.35164642,-1.044789076,-0.013210195,-0.019128574,0.01864338
85.0,1209423501.0,-112.6541824,-82.14992523,-72.64516449,-0.05355451,0.008987637,0.2673788,86,1209423501,-163.2233429,-79.36546326,-0.9890952709999999,0.00532762,-0.05180086,0.010955811000000001
86.0,1209440168.0,-112.53458400000001,-82.18212128,-72.69216156,-0.04143669,0.06693003,0.24941729999999998,87,1209440168,-163.302475,-79.37979126,-0.922326863,0.00836623,-0.019833253999999998,-0.043621063
87.0,1209456835.0,-112.40615840000001,-82.22107697,-72.75266266,-0.07816033,0.12392243,0.20488167,88,1209456835,-163.3799896,-79.39099121,-0.8506335620000001,-0.03411458,0.019916905,-0.022454262000000003
88.0,1209473502.0,-112.3001633,-82.26450348,-72.79870605,-0.08784572,0.18176194,0.16893005,89,1209473502,-163.4594574,-79.40420532,-0.7643525,-0.061974764,0.028212197,-0.036076546
89.0,1209490169.0,-112.2103348,-82.30517578,-72.83430481,-0.09543837599999999,0.20242412,0.15242767,90,1209490169,-163.54789730000002,-79.41996765,-0.658175528,-0.0815191,-0.017300406,-0.03667736
90.0,1209506836.0,-112.0935364,-82.33538055,-72.88778687,-0.112844355,0.18902983,0.15809822,91,1209506836,-163.6047363,-79.43929291,-0.582101524,-0.06584487,-0.07590807,0.016168593999999998
91.0,1209523503.0,-111.91922759999999,-82.34873199,-72.98760223,-0.08833075,0.16500942,0.15465832,92,1209523503,-163.6343842,-79.46240234,-0.5466824770000001,-0.063543424,-0.115372695,0.08823967
92.0,1209540170.0,-111.73741909999998,-82.34996796,-73.09087372,-0.08984760000000001,0.09205532,0.16584587,93,1209540170,-163.6504517,-79.48760223,-0.533873498,-0.012912273,-0.05856805,0.020251274
93.0,1209556837.0,-111.6494598,-82.35055542,-73.10068512,-0.046023138,-0.02147574,0.13254356,94,1209556837,-163.66334530000003,-79.5154953,-0.5279946329999999,-0.022097679,0.012827241000000001,-0.04950428
94.0,1209573504.0,-111.68125149999999,-82.35394287,-72.99269867,0.0047672240000000005,-0.14616495,0.10733795,95,1209573504,-163.66377260000002,-79.54399109,-0.5346471070000001,-0.059531285999999996,-0.002062075,-0.041894913
95.0,1209590171.0,-111.7932968,-82.36120605,-72.81212616,0.05171124,-0.23995861,0.10529423,96,1209590171,-163.6527252,-79.57241821,-0.537449121,-0.035421453,0.030481857999999997,-0.036810875
96.0,1209606838.0,-111.8787689,-82.36629486,-72.67027283,0.07774869999999999,-0.2626942,0.10258769999999999,97,1209606838,-163.670166,-79.60132599,-0.512898564,0.0014260479999999999,-0.017554036999999998,-0.006088257
97.0,1209623505.0,-111.933075,-82.36704254,-72.58782959,0.09103536,-0.24288110000000002,0.12401104,98,1209623505,-163.709671,-79.62936401,-0.491825759,0.011971046,-0.09394998,-0.020525932
98.0,1209640172.0,-112.0340881,-82.36439514,-72.49558258,0.074684635,-0.20598665,0.13203621,99,1209640172,-163.7506561,-79.65567779999999,-0.494888306,0.087392144,-0.07043223,-0.030659676
99.0,1209656839.0,-112.2007065,-82.36223602,-72.37996674,0.08410437,-0.19486760000000003,0.17370510000000003,100,1209656839,-163.78877260000002,-79.6784668,-0.5115064979999999,0.11533104,0.013304106000000001,-0.031294823
100.0,1209673506.0,-112.3625565,-82.36238861,-72.30670929,0.067799725,-0.17954545,0.2794428,101,1209673506,-163.84753419999998,-79.69428253,-0.5012954470000001,0.12576700000000002,0.077586435,0.006973266999999999
101.0,1209690173.0,-112.4773865,-82.37849426,-72.30072784,0.0511551,-0.13440938,0.28738213,102,1209690173,-163.941803,-79.70510864,-0.44969308399999997,0.10449457,0.08691128,-0.036128997999999996
102.0,1209706840.0,-112.5839462,-82.41433716,-72.30429840000001,0.075110726,-0.06751875,0.2222786,103,1209706840,-164.04685969999997,-79.71311951,-0.378336489,0.09398701,0.05489674,-0.06359005
103.0,1209723507.0,-112.6798172,-82.45363617,-72.29943848,0.06415924,0.01116867,0.18742752,104,1209723507,-164.1494446,-79.71547699,-0.303578526,0.035538476,0.009019139,-0.008914948
104.0,1209740174.0,-112.70613859999999,-82.48947906,-72.32822418,0.04682495,0.11159281,0.17198944,105,1209740174,-164.2470856,-79.71517944,-0.23491254399999997,0.026597356000000003,-0.041581847000000005,0.03494358
105.0,1209756841.0,-112.65933229999999,-82.51557159,-72.39387512,0.02367909,0.18802446,0.126441,106,1209756841,-164.3556976,-79.71585083,-0.156632304,-0.007621973000000001,-0.018075883,-0.01560688
106.0,1209773508.0,-112.63922120000001,-82.52577209,-72.40341949,-0.022323287999999997,0.20979948,0.09710121,107,1209773508,-164.4510651,-79.71691132,-0.086255915,-0.030940053999999998,0.009245725,-0.035173416
107.0,1209790175.0,-112.64634699999999,-82.51982117,-72.36417389,-0.06410885599999999,0.19162694,0.15290356,108,1209790175,-164.5202484,-79.71691132,-0.024898665,-0.04066207,0.045890953,-0.012251854
108.0,1209806842.0,-112.6185226,-82.51056671,-72.34265137,-0.1118479,0.15429932,0.19717312,109,1209806842,-164.5655518,-79.72119141,0.030856421000000002,-0.07131038599999999,0.00298373,0.03473568
109.0,1209823509.0,-112.5215225,-82.50315094,-72.37864685,-0.11732764,0.09939823,0.19858551,110,1209823509,-164.6081696,-79.72840881,0.08477667,-0.054522794000000006,-0.072169095,-0.009813309000000001
110.0,1209840176.0,-112.4145584,-82.4954071,-72.42382049999999,-0.08255766,0.010061136,0.1609745,111,1209840176,-164.6300659,-79.73680115,0.110222764,-0.031825047,-0.098036416,-0.034101486
111.0,1209856843.0,-112.34040829999999,-82.48579407,-72.4367218,-0.07042318,-0.121977165,0.12508774,112,1209856843,-164.64047240000002,-79.74588776,0.11959976,-0.019994888,-0.060280047,-0.011060715
112.0,1209873510.0,-112.3495407,-82.45678711,-72.36519623,-0.092856325,-0.28761527,0.12433338,113,1209873510,-164.6313629,-79.75552368,0.117627442,0.020983137000000002,0.007585024,0.018418312
113.0,1209890177.0,-112.2753906,-82.45420837,-72.39988708,-0.10797182,-0.13117054,0.17286015,114,1209890177,-164.6320648,-79.76632690000001,0.127052903,0.031580348,0.02674014,-0.006766319
114.0,1209906844.0,-112.64852909999999,-82.46154785,-72.08985138,0.13819654,-0.14122312,0.17648697,115,1209906844,-164.6613159,-79.77561188,0.159082159,0.03701441,0.004490654,-0.052368164
115.0,1209923511.0,-113.05932620000002,-82.4664917,-71.76870728,0.12552746,-0.08665923,0.28244114,116,1209923511,-164.6978302,-79.78205872,0.188227683,0.04217619400000001,0.016421217,-0.020915031
116.0,1209940178.0,-113.131813,-82.48085785,-71.75553131,0.042961995999999995,-0.04874703,0.26086712,117,1209940178,-164.7337494,-79.78826141,0.197687715,0.014341868999999998,0.016668255,0.02240181
117.0,1209956845.0,-112.9934692,-82.49321747,-71.94065094,0.014679783,-0.01751486,0.18747139,118,1209956845,-164.7759247,-79.79489136,0.196410865,0.03013746,-0.002501836,-0.018117905
118.0,1209973512.0,-112.84445190000001,-82.50074768,-72.15528107,0.005226621,0.00148129,0.15280342,119,1209973512,-164.84214780000002,-79.7973175,0.207688108,0.04032502,-0.008209184,-0.022415161
119.0,1209990179.0,-112.84083559999999,-82.51069641,-72.25205231,0.043883267999999996,0.012378385,0.19000435,120,1209990179,-164.91894530000002,-79.79706573,0.22199343100000002,0.021412931,-0.0007650000000000001,-0.045576095999999996
120.0,1210006846.0,-112.94513700000002,-82.52748108,-72.24656677,0.02681617,0.013099319,0.16427708,121,1210006846,-164.9883881,-79.79708862,0.24056311,0.006702546,0.00354201,-0.027600287999999997
121.0,1210023513.0,-113.0453186,-82.53675842,-72.23177338,0.043595623,-0.014749723999999999,0.107910156,122,1210023513,-165.0480499,-79.79457855,0.276052177,0.01626739,0.021084982999999998,-0.009093285
122.0,1210040180.0,-113.12427520000001,-82.52947998,-72.20947266,0.03603258,-0.014172775,0.12587452,123,1210040180,-165.1092529,-79.78966522,0.323627532,0.027456373,-0.01252019,0.002075195
123.0,1210056847.0,-113.19753270000001,-82.51982117,-72.17842102,-0.007921406,-0.0044334909999999995,0.20500755,124,1210056847,-165.1734619,-79.78327179,0.363811702,0.03837278,-0.03773793,-0.011792183000000001
124.0,1210073514.0,-113.256546,-82.52523041,-72.16619873,-0.043007705,-0.03566789,0.2619171,125,1210073514,-165.2433929,-79.77763367,0.40260511600000004,0.043989807,-0.028635418,-0.0541687
125.0,1210090181.0,-113.22920230000001,-82.54580688,-72.23892212,-0.06251021,-0.026555857000000002,0.24973488,126,1210090181,-165.31071469999998,-79.76802826,0.434634209,0.021236546000000002,-0.03363356,-0.05089283
126.0,1210106848.0,-113.1096115,-82.57357788,-72.39160156,-0.10115321,0.000877,0.17774868,127,1210106848,-165.3827209,-79.75746918,0.46922892299999996,-0.01912414,-0.003293743,-0.003404617
127.0,1210123515.0,-112.93254089999999,-82.5982132,-72.58460236,-0.07247576,0.022752305,0.12565517,128,1210123515,-165.45961,-79.75032043,0.52771461,-0.036210615,0.016449157,0.00962162
128.0,1210140182.0,-112.77852630000001,-82.61682129,-72.75353241,-0.03364055,0.06475597,0.13287163,129,1210140182,-165.52793880000002,-79.7456665,0.596584797,-0.05024736,-0.006476064,-0.023917197999999997
129.0,1210156849.0,-112.6819382,-82.63148499,-72.86846161,0.006685035,0.1733916,0.19027042,130,1210156849,-165.5865784,-79.7401886,0.668061137,-0.035578094,0.011250748,-0.027101517000000002
130.0,1210173516.0,-112.62358859999999,-82.64814758,-72.94096375,-0.035471436,0.20934252,0.19633865,131,1210173516,-165.6395874,-79.7374115,0.73526907,-0.019267067,-0.024006354,-0.012009621000000002
131.0,1210190183.0,-112.5902252,-82.66139221,-72.97444916,-0.040251542,0.21382393,0.19351864,132,1210190183,-165.6991272,-79.73695374,0.8015499709999999,-0.020727035,-0.031231799999999997,-0.014505386
132.0,1210206850.0,-112.52256770000001,-82.67113495,-73.01702118,-0.03277613,0.16391161,0.20054913,133,1210206850,-165.75262450000002,-79.73875427,0.854938388,-0.042285018,0.025443764,-0.01732254
133.0,1210223517.0,-112.3865814,-82.68112183,-73.1107254,0.0030155959999999997,0.0899324,0.21691513,134,1210223517,-165.8014679,-79.73999786,0.91889441,-0.022789605,0.058799107,0.00346756
134.0,1210240184.0,-112.16875459999999,-82.69379425,-73.28829193,0.042589244000000005,0.024278438,0.19456959,135,1210240184,-165.84506230000002,-79.74318695,0.999131203,0.010233967,-0.03700721,0.002575874
135.0,1210256851.0,-111.9432144,-82.7028656,-73.48230743,0.025712905,-0.030521233,0.14473534,136,1210256851,-165.86125180000002,-79.74794769,1.043990493,0.025989542,-0.07000867,0.007312775
136.0,1210273518.0,-111.77366640000001,-82.70806122,-73.6214447,-0.024570705,-0.114925586,0.13192463,137,1210273518,-165.8596344,-79.7531662,1.062420964,0.00227796,-0.06610552,-0.008403778
137.0,1210290185.0,-111.68143459999999,-82.7108078,-73.67880249,-0.07195182,-0.16861181,0.15180111,138,1210290185,-165.83474730000003,-79.75984955,1.053736925,-0.005065097,-0.04637061,-0.002092362
138.0,1210306852.0,-111.6830521,-82.71508789,-73.63607025,-0.105829634,-0.19700252,0.15750027,139,1210306852,-165.79556269999998,-79.76488495,1.030372977,-0.010864071000000001,-0.016252242,0.002496719
139.0,1210323519.0,-111.7117996,-82.7223053,-73.56529236,-0.069148645,-0.15966679,0.14470005,140,1210323519,-165.7593994,-79.7710495,1.011014104,0.0026899090000000003,-0.001075544,-0.020954132
140.0,1210340186.0,-111.7495193,-82.72875214,-73.48934174,-0.012520995,-0.087531224,0.13789558,141,1210340186,-165.7250671,-79.77724457,0.9876474740000001,-0.013491682,0.0013069919999999999,-0.026720999999999998
141.0,1210356853.0,-111.78484340000001,-82.73196411,-73.42834473,0.015146102,-0.008801808000000001,0.13521194,142,1210356853,-165.6970215,-79.78423309,0.968497038,-0.009792836,0.009832391,-0.048205375999999994
142.0,1210373520.0,-111.75780490000001,-82.73367309999999,-73.45012665,0.05836542,0.040730905,0.16972256,143,1210373520,-165.66404719999997,-79.78951263,0.9473037120000001,-0.011730813,0.024783954,-0.028813362000000002
143.0,1210390187.0,-111.6449585,-82.73320770000001,-73.5839386,0.0500793,0.07964602,0.17346573,144,1210390187,-165.64016719999998,-79.79671478,0.932006538,-0.015865333,-0.02245724,0.00265789
144.0,1210406854.0,-111.52079769999999,-82.73034668,-73.74654388,0.059103575,0.04696962,0.16435242,145,1210406854,-165.6158295,-79.80500793,0.907061696,-0.013310127,-0.0441114,-0.003128052
145.0,1210423521.0,-111.50406650000001,-82.72244263,-73.80084229,0.03659661,0.019949049,0.16065693,146,1210423521,-165.5865936,-79.81182861,0.8658926490000001,0.006547819,-0.022113645,-0.024617195
146.0,1210440188.0,-111.6268692,-82.7114563,-73.70378113,-0.004782381,0.0032162329999999998,0.19859791,147,1210440188,-165.5493011,-79.81797028,0.81439966,0.01353825,0.011744823,-0.005879402
147.0,1210456855.0,-111.76918789999999,-82.70580292,-73.56726074,-0.01253345,-0.012516698,0.22539425,148,1210456855,-165.52096559999998,-79.82390594,0.7743162509999999,0.004532228,0.010887261,0.0069770809999999996
148.0,1210473522.0,-111.85128020000002,-82.70962524,-73.48283386,-0.009764337,-0.033367533,0.23488903,149,1210473522,-165.5031128,-79.82954407,0.7505335209999999,0.035248984,0.024133196000000003,-0.004555702
149.0,1210490189.0,-111.8106308,-82.71753693,-73.5223465,0.017914064,-0.007733904000000001,0.19026661,150,1210490189,-165.4951019,-79.8314209,0.739906847,0.06500204,0.012374348,-0.037807465
150.0,1210506856.0,-111.70697779999999,-82.72589874,-73.63154602,0.045205124000000006,0.002255253,0.14979076,151,1210506856,-165.4971313,-79.83254242,0.738186717,0.038417086,0.023920637,-0.056043625
151.0,1210523523.0,-111.6189957,-82.73096466,-73.72476196,0.07258802,0.008872018,0.16843224,152,1210523523,-165.4980927,-79.83207703,0.7377726440000001,0.02651048,0.007766795999999999,-0.026846886
152.0,1210540190.0,-111.5699463,-82.73625946,-73.77371979,0.045821264,0.007234750999999999,0.18823624,153,1210540190,-165.5078583,-79.83037567,0.749298096,-0.02544797,0.019023076,-0.000859
153.0,1210556857.0,-111.52839660000001,-82.74585724,-73.80744171,0.042975605,0.008282454,0.17374325,154,1210556857,-165.5225372,-79.82935333,0.765598357,-0.031357616,0.008315576,0.00633049
154.0,1210573524.0,-111.5135269,-82.75380707,-73.81138611,0.002255886,0.020599185,0.17155075,155,1210573524,-165.5329132,-79.83047485,0.7719630000000001,-0.01450071,-0.029960347000000002,0.001639366
155.0,1210590191.0,-111.54060359999998,-82.7589035,-73.77431488,-0.038191088,0.065071315,0.14565945,156,1210590191,-165.5375519,-79.83274078,0.7655879859999999,-0.008595044,-0.047321155999999996,-0.016083717
156.0,1210606858.0,-111.58705900000001,-82.75904083,-73.72920227,-0.08019168,0.040476944,0.14725018,157,1210606858,-165.5471497,-79.83525085,0.757945895,-0.001285668,-0.027604297000000003,-0.03958130000000001
157.0,1210623525.0,-111.6262665,-82.75540924,-73.70455933,-0.09927177400000001,-0.01378359,0.17239094,158,1210623525,-165.5512543,-79.83975983,0.744198501,-0.025861315,0.011126083,-0.019424438
158.0,1210640192.0,-111.615036,-82.75481415,-73.74373627,-0.103126734,-0.025545761,0.20478153,159,1210640192,-165.55207819999998,-79.84551239,0.7392419579999999,-0.013519873,0.029339763999999997,0.005188942
159.0,1210656859.0,-111.56542209999999,-82.76229095,-73.82723236,-0.08795979,-0.051088087000000004,0.20022011,160,1210656859,-165.5475616,-79.85284424,0.739373803,-0.03185576,0.001694116,-0.002479553
160.0,1210673526.0,-111.5216522,-82.77379608,-73.90215302,-0.044716135,-0.00692163,0.18423176,161,1210673526,-165.54151919999998,-79.86128998,0.74086982,0.004307947,-0.027113685,-0.001434326
161.0,1210690193.0,-111.50244140000001,-82.7798233,-73.95107269,0.001685743,0.037498273,0.15634537,162,1210690193,-165.53324890000002,-79.87049103,0.729667485,0.022164432,-0.03941489,-0.02514267
162.0,1210706860.0,-111.5314636,-82.78275299,-73.94650269,0.035392787,0.057435594000000006,0.14683056,163,1210706860,-165.5299072,-79.878479,0.709274828,0.024831368,-0.019224294,-0.03595352
163.0,1210723527.0,-111.5926132,-82.78406525,-73.90093994,0.06733910000000001,0.03347735,0.17014694,164,1210723527,-165.52082819999998,-79.88705444,0.6787477140000001,0.009500446,-0.00045599999999999997,-0.026791573
164.0,1210740194.0,-111.6292648,-82.78430939,-73.86912537,0.08539060000000001,-0.009564008,0.16915417,165,1210740194,-165.4989624,-79.89581299,0.639627934,-0.008881629,-0.001261116,0.004911423
165.0,1210756861.0,-111.6077957,-82.78251648,-73.88951111,0.057246696,-0.027304143,0.17257214,166,1210756861,-165.4868164,-79.90222931,0.618549705,0.003358324,0.03749251,-0.020634651
166.0,1210773528.0,-111.57154080000001,-82.77930450000001,-73.92192841,0.038822062000000004,-0.027342092000000002,0.17153263,167,1210773528,-165.4871979,-79.90725708,0.620950401,0.038115553999999996,0.019609965,-0.021966934
167.0,1210790195.0,-111.55963899999999,-82.77710724,-73.92748259999999,0.022363232,-0.025858673999999998,0.1934948,168,1210790195,-165.4857941,-79.91088867,0.625978947,0.03828959999999999,-0.002108789,-0.027135849
168.0,1210806862.0,-111.5502625,-82.77832794,-73.93530273,0.004251523,-0.025807139,0.21895599999999998,169,1210806862,-165.4806519,-79.91145325,0.628869414,0.06267042,0.00143825,-0.014310837
169.0,1210823529.0,-111.48886110000001,-82.7826004,-74.00001526,0.000468,-0.044468362000000004,0.21260166,170,1210823529,-165.4872894,-79.91022491,0.639319897,0.046915133,0.009607257,-0.014456749
170.0,1210840196.0,-111.42796329999999,-82.78912354,-74.06747437,0.0033723729999999997,-0.060009035999999995,0.19226837,171,1210840196,-165.49839780000002,-79.90691376,0.652259231,0.03356886,-0.017635116,-0.026640892000000003
171.0,1210856863.0,-111.40563200000001,-82.79655457,-74.09488678,0.017712632,-0.05988098,0.16979313,172,1210856863,-165.5062714,-79.90305328,0.655424118,0.031186895,-0.026180407000000003,-0.016076088
172.0,1210873530.0,-111.37500759999999,-82.80775452,-74.12540436,-0.006613506999999999,-0.04893441,0.17680359,173,1210873530,-165.5210876,-79.89981842,0.66164279,0.002971025,-0.026160572000000003,-0.014316559
173.0,1210890197.0,-111.32176969999999,-82.81944275,-74.17956543,-0.019666914,0.009048776,0.14974785,174,1210890197,-165.52421569999998,-79.89742279,0.660459757,-0.024219382999999997,-0.000121,-0.005168915
174.0,1210906864.0,-111.277977,-82.82657623,-74.22299957,-0.018824356,0.06433062,0.1436348,175,1210906864,-165.52964780000002,-79.89773559999999,0.668425322,-0.03368387,-0.003990209000000001,0.018655777
175.0,1210923531.0,-111.2696991,-82.82909393,-74.22663116,-0.017364139,0.07900223,0.15030861,176,1210923531,-165.5117645,-79.90059662,0.66181916,-0.007969786999999999,0.011942856000000002,-0.03196335
176.0,1210940198.0,-111.2892761,-82.82597351,-74.20262909,-0.030134407999999998,0.09813033,0.18542099,177,1210940198,-165.48551940000002,-79.90087128,0.653065264,-0.004844434,-0.007061724,-0.011200905
177.0,1210956865.0,-111.30728149999999,-82.82086182,-74.17736053,-0.023805931000000002,0.064266376,0.1987524,178,1210956865,-165.4645386,-79.90252686,0.641743541,0.014132137,-0.022071847999999998,-0.003937721
178.0,1210973532.0,-111.2919312,-82.81768799,-74.18627167,-0.026060213999999998,0.057439316,0.18730354,179,1210973532,-165.45207209999998,-79.90527344,0.629630685,-0.000439,-0.005163764,-0.016911507
179.0,1210990199.0,-111.2544479,-82.81954956,-74.21826935,0.008020311,0.003907872,0.16719437,180,1210990199,-165.44128419999998,-79.90911865,0.617008448,-0.014464012,0.000102,-0.034366608
180.0,1211006866.0,-111.1855011,-82.81990051,-74.28008270000001,0.022553458999999998,-0.033562344,0.13977242,181,1211006866,-165.4169769,-79.9095993,0.592405617,0.005013514,0.009165429000000001,-0.0347929
181.0,1211023533.0,-111.14042659999998,-82.81394958,-74.31483459,-0.002791654,-0.062051352000000004,0.187603,182,1211023533,-165.40391540000002,-79.91043854,0.578219712,0.015972724,0.007470027,0.013569831999999999
182.0,1211040200.0,-111.118248,-82.81012726,-74.32606506,-0.00404319,-0.06402005,0.19347572,183,1211040200,-165.39665219999998,-79.91191864,0.564203858,-0.012688028,-0.017979158000000002,-0.002716065
183.0,1211056867.0,-111.13017269999999,-82.80953217,-74.30991364,0.00038700000000000003,-0.055790093,0.16908741,184,1211056867,-165.3889465,-79.91601563,0.548579693,0.007806853000000001,0.010521146,-0.014074326000000002
184.0,1211073534.0,-111.17784879999999,-82.80873871,-74.26734924,0.005462624,-0.028554045,0.15054512,185,1211073534,-165.3810425,-79.91747284,0.544449151,-0.005930889,0.015551026,-0.034348487999999996
185.0,1211090201.0,-111.2241821,-82.80696869,-74.23859406,-0.001883851,-0.018102335,0.15024089999999998,186,1211090201,-165.37550349999998,-79.91799927,0.545944929,-0.013880573,-0.008181077,-0.02098751
186.0,1211106868.0,-111.27376559999999,-82.79916382,-74.20448303,0.00905843,-0.02317232,0.16086292,187,1211106868,-165.363678,-79.91950226,0.537854552,0.008466196,-0.013235598999999999,-0.01129055
187.0,1211123535.0,-111.31895449999999,-82.78999329,-74.17399597,0.018708402,-0.0028925440000000004,0.18746567,188,1211123535,-165.35411069999998,-79.92206573,0.526892424,0.015644636,-0.011526004,-0.011575698999999998
188.0,1211140202.0,-111.36106869999999,-82.78311157,-74.14175415,0.021299196,0.004202176,0.22812843,189,1211140202,-165.3549194,-79.92243195,0.517791271,0.031841703,0.009170233,-0.030607224
189.0,1211156869.0,-111.39510349999999,-82.78162384,-74.11646271,0.053290322,0.012619088,0.21066379999999998,190,1211156869,-165.37863159999998,-79.92282104,0.528268814,0.009682749000000001,0.030042543999999997,-0.04609871
190.0,1211173536.0,-111.42165370000001,-82.78827667,-74.10309601,0.044130474,0.0071315580000000005,0.16729069,191,1211173536,-165.40557859999998,-79.92186737,0.541695237,0.01126682,0.028503545,-0.039933205
191.0,1211190203.0,-111.4364777,-82.79688263,-74.10729218,0.000155,0.020113064,0.14672852,192,1211190203,-165.4273682,-79.92177582,0.546979249,-0.015278808,-0.011549138,-0.033751487999999996
192.0,1211206870.0,-111.45252990000002,-82.80091095,-74.11705017,0.004797982,-0.009921765,0.11963463,193,1211206870,-165.44017030000003,-79.92208099,0.5427927370000001,0.00043799999999999997,-0.045374582999999996,-0.022511482000000003
193.0,1211223537.0,-111.4619598,-82.78836059999999,-74.13554382,-0.04171663,-0.020920347,0.20437336,194,1211223537,-165.4398956,-79.92150116,0.526264131,0.048889283,0.001921485,0.017648696999999998
194.0,1211240204.0,-111.46421809999998,-82.78033447,-74.1607132,-0.05654025,-0.0039678890000000005,0.23513985,195,1211240204,-165.46133419999998,-79.92073059,0.532712162,0.028059376,0.005386886,-0.042103767
195.0,1211256871.0,-111.5036926,-82.78354645,-74.14849854,-0.007435024,-0.013250063999999999,0.19522762,196,1211256871,-165.4918518,-79.9198761,0.554942727,0.012188063999999998,0.0010148610000000001,-0.06462002
196.0,1211273538.0,-111.56903840000001,-82.79320526,-74.10003662,0.01394843,-0.0035020740000000004,0.20351982,197,1211273538,-165.4978333,-79.91824341,0.563261449,-0.00490013,0.012576571000000002,0.014610291000000001
197.0,1211290205.0,-111.5623703,-82.8082428,-74.10332489,0.037072957000000004,0.020427212,0.16311455,198,1211290205,-165.5020447,-79.91754913,0.576085508,-0.04125869,-0.012446933,0.019434929
198.0,1211306872.0,-111.4964447,-82.81963348,-74.1500473,0.033201255,0.05606563,0.149539,199,1211306872,-165.5035248,-79.91700745,0.590147555,-0.01226753,-0.012535444,0.001653671
199.0,1211323539.0,-111.4668121,-82.82679749,-74.1493988,-0.039310627,0.10163359,0.15569592,200,1211323539,-165.50608830000002,-79.91897583,0.605548799,-0.0032453240000000004,-0.002613481,-0.04140091
200.0,1211340206.0,-111.50772859999998,-82.82840729,-74.07881165,-0.04857205,0.09405007,0.15564251,201,1211340206,-165.4928436,-79.92005157,0.6068857910000001,0.012025478999999999,-0.0027553,-0.01692295
201.0,1211356873.0,-111.57972720000001,-82.82424927,-73.98252106,-0.04004744,0.13135229999999998,0.16752910000000001,202,1211356873,-165.486557,-79.92178345,0.6189987060000001,0.004013678,0.006852851,-0.003410339
202.0,1211373540.0,-111.59392549999998,-82.81320953,-73.9420929,0.023312272999999998,0.08868737,0.15961933,203,1211373540,-165.48971559999998,-79.92384338,0.640919745,-0.00041900000000000005,-0.005121129,-0.012058258
203.0,1211390207.0,-111.6004791,-82.79761505,-73.89823151,0.09000637,0.04342759,0.15385342,204,1211390207,-165.4858246,-79.92612457,0.656912684,-0.012859588,-0.002787654,-0.008347511
204.0,1211406874.0,-111.630661,-82.78126526,-73.81043243,0.10531107,0.009171791,0.17455387,205,1211406874,-165.4784546,-79.92760468,0.6695953610000001,0.010152629,-0.00829451,-0.019843101999999998
205.0,1211423541.0,-111.662796,-82.77001953,-73.71025848,0.08659687,-0.045342877999999996,0.1999321,206,1211423541,-165.4799957,-79.92687988,0.68323952,0.035156205,-0.020370133000000002,-0.003540039
206.0,1211440208.0,-111.66836550000001,-82.7631073,-73.64404297,0.00330311,-0.10672099,0.19533348,207,1211440208,-165.480835,-79.92384338,0.6908504959999999,0.03844034,-0.00376787,-0.021363258
207.0,1211456875.0,-111.6709518,-82.75782776,-73.60285187,-0.03521031,-0.17625009,0.17681122,208,1211456875,-165.4851837,-79.9197998,0.7062136529999999,0.051884915999999996,0.03880157,-0.03952217
208.0,1211473542.0,-111.6995468,-82.75405121,-73.56752014,-0.03712196,-0.17774792,0.16593361,209,1211473542,-165.5037384,-79.91492462,0.741013765,0.030344398999999998,0.021421312999999997,-0.024474144
209.0,1211490209.0,-111.75461580000001,-82.75332642,-73.53192902,-0.019705200000000003,-0.18015526,0.17252445,210,1211490209,-165.53144840000002,-79.90784454,0.7806639670000001,0.03295278,-0.005592461999999999,-0.021979332
210.0,1211506876.0,-111.82561489999999,-82.75527954,-73.49331665,0.007779803,-0.1417671,0.17899513,211,1211506876,-165.5587311,-79.90032196,0.805698991,0.039525732,-0.035749722000000005,-0.021212578
211.0,1211523543.0,-111.90161129999998,-82.75846863,-73.45368958,0.02092817,-0.08030071,0.21074389999999998,212,1211523543,-165.5908051,-79.89339447,0.81906122,-0.006822775,-0.047557185999999994,0.006272316
212.0,1211540210.0,-111.94258119999999,-82.7649765,-73.44096375,-0.018036442,0.008542385999999999,0.20742989,213,1211540210,-165.6352386,-79.88646698,0.838016212,-0.008910197,0.027199961,-0.011949538999999999
213.0,1211556877.0,-111.93809509999998,-82.78107452,-73.46700287,0.003345607,0.08470912,0.17661762,214,1211556877,-165.6902008,-79.88032532,0.8733357190000001,-0.019504774,0.035209883,-0.037675858
214.0,1211573544.0,-111.9472275,-82.79750824,-73.47956848,-0.004574469,0.13231531,0.13713837,215,1211573544,-165.736908,-79.87639618,0.90660274,-0.046145044,0.006366264,-0.037875175
215.0,1211590211.0,-112.0127335,-82.80565643,-73.43959808,-0.019209338,0.17334142,0.13322735,216,1211590211,-165.77346799999998,-79.87403107,0.932915568,-0.03572893,-0.028150339,-0.009123802
216.0,1211606878.0,-112.1002731,-82.79933167,-73.38400269,-0.045601547,0.17890938,0.14630318,217,1211606878,-165.80390930000002,-79.87428284,0.94621259,-0.027076576,-0.078424215,0.035229683
217.0,1211623545.0,-112.1820602,-82.78148651,-73.33917999,-0.06757118,0.13227066,0.17314053,218,1211623545,-165.8303375,-79.87535095,0.94954294,0.000741,-0.03879492,0.010207176
218.0,1211640212.0,-112.24323270000001,-82.76158905,-73.31695557,-0.06771369,0.05525665,0.18405247,219,1211640212,-165.8490448,-79.87962341,0.942978799,-0.015355745,-0.013186705,-0.0413723
219.0,1211656879.0,-112.33321380000001,-82.74393463,-73.25724792,-0.052589457,-0.059300597999999996,0.16818619,220,1211656879,-165.86833190000002,-79.88320159999999,0.950409114,-0.009329291,0.016855503,-0.043504715
220.0,1211673546.0,-112.42677309999999,-82.72994232,-73.17778015,-0.02827285,-0.12899093,0.20069408,221,1211673546,-165.8692017,-79.88594055,0.950362265,0.006547071999999999,0.007392691,0.002118111
221.0,1211690213.0,-112.4881592,-82.72446442,-73.10728455,0.0034976829999999997,-0.117900066,0.20097828,222,1211690213,-165.85552980000003,-79.88963318,0.936370611,0.008187698,-0.028171126,0.038352013
222.0,1211706880.0,-112.5193634,-82.72457123,-73.05828857,0.00332402,-0.08725016599999999,0.19821739,223,1211706880,-165.8369751,-79.89393616,0.9144724009999999,0.057273105,-0.043862294,-0.00616169
223.0,1211723547.0,-112.565918,-82.7284317,-72.99478149,-0.008500859,-0.036102403,0.1966734,224,1211723547,-165.8171234,-79.89545441,0.8966723679999999,0.07806951,0.001163162,-0.05882263
224.0,1211740214.0,-112.5981445,-82.7325058,-72.95782471,0.008351013000000001,-0.007755683,0.19445801,225,1211740214,-165.7967072,-79.89358521,0.8860284690000001,0.06401910000000001,0.03629744,-0.051826477
225.0,1211756881.0,-112.60993959999999,-82.73650359999999,-72.95631409,0.04974321,0.0015199229999999998,0.18506622,226,1211756881,-165.8002167,-79.88887787,0.8985296490000001,0.04077829,0.02307682,-0.018907547
226.0,1211773548.0,-112.61473079999999,-82.73818207,-72.9661026,0.07944918,-0.032682512000000004,0.17094707,227,1211773548,-165.8182068,-79.88323975,0.9150611759999999,0.007525156999999999,-0.016830023,-0.02410984
227.0,1211790215.0,-112.5939865,-82.73990631,-72.99009705,0.07594508,-0.032214224,0.15960121,228,1211790215,-165.83708190000002,-79.87557983,0.915872335,0.000296,-0.032671392,-0.014915466
228.0,1211806882.0,-112.5552216,-82.73990631,-73.02149200000001,0.0809154,-0.037092607,0.13761425,229,1211806882,-165.8490753,-79.86812592,0.901416123,0.0061285509999999994,-0.008375868,-0.01490593
229.0,1211823549.0,-112.5367813,-82.73453522,-73.03723907,0.021995155,-0.03564755,0.13171768,230,1211823549,-165.8478851,-79.86191559,0.869860291,0.01490807,-0.021927402999999998,-0.007529259
230.0,1211840216.0,-112.54173279999999,-82.72457123,-73.04045868,-0.042563085,-0.023599653999999998,0.14596748,231,1211840216,-165.8648071,-79.85626984,0.86391902,0.016402261,0.026566694,-0.024995804
231.0,1211856883.0,-112.5764465,-82.71366119,-73.03401184,-0.083677985,-0.060293898,0.16935444,232,1211856883,-165.8785706,-79.84931183,0.869137704,0.012750562,0.00674808,-0.034114838
232.0,1211873550.0,-112.6279831,-82.70612335,-73.02819824,-0.088438146,-0.05004471,0.20090294,233,1211873550,-165.892868,-79.8420105,0.8854106070000001,0.010583051999999999,-0.001135334,0.00421238
233.0,1211890217.0,-112.68772129999999,-82.70357513,-73.02243042,-0.057562295,-0.033319358,0.1995039,234,1211890217,-165.8997192,-79.83631897,0.8906474109999999,-0.032471195,-0.02744376,0.026069641
234.0,1211906884.0,-112.7797318,-82.70774078,-72.98077393,-0.041411035,0.016299134,0.17527294,235,1211906884,-165.91452030000002,-79.83188629,0.897001088,-0.014340857,-0.024344472000000002,-0.020329475
235.0,1211923551.0,-112.92846680000001,-82.71311951,-72.86872864,-0.010793028,0.05989682,0.15924835,236,1211923551,-165.9235687,-79.82772827,0.892353952,-0.031760547,-0.03215396,-0.022833824
236.0,1211940218.0,-113.06265259999998,-82.71511841,-72.75579071,-0.003098151,0.114429235,0.18154526,237,1211940218,-165.9347382,-79.82566071,0.885600924,-0.009579822,0.0013124120000000002,-0.020154953
237.0,1211956885.0,-113.12226869999999,-82.7145462,-72.70932007,0.022485083,0.174375,0.17157555,238,1211956885,-165.9447479,-79.82434845,0.882182777,-0.014044548,0.03655085,-0.021219254
238.0,1211973552.0,-113.1171875,-82.70903015,-72.72249603,0.044298872,0.18043943,0.18883324,239,1211973552,-165.9563446,-79.82308959999999,0.895685196,-0.014995868,0.04634396,-0.015723228
239.0,1211990219.0,-113.0650024,-82.70220184,-72.77350616,0.033910815,0.18209945,0.23080826,240,1211990219,-165.9620972,-79.82320404,0.9252979159999999,0.018763263,0.054488212,-0.026621818999999998
240.0,1212006886.0,-113.00566859999999,-82.70139313,-72.81598663,0.03628286,0.17487237,0.24207878,241,1212006886,-165.97563169999998,-79.82273865,0.966462255,0.008588793,0.004048155,-0.020799637
241.0,1212023553.0,-112.9453125,-82.70884705,-72.83590698,0.031746823,0.14692639999999998,0.22894001,242,1212023553,-165.9904938,-79.82273865,1.003138423,0.015408048,-0.03276778,-0.006363869
242.0,1212040220.0,-112.86939240000001,-82.72392273,-72.83890533,-0.000771,0.10765722400000001,0.18637179999999998,243,1212040220,-166.0057678,-79.8248291,1.036970377,-0.016703807,-0.044141404,-0.033753395
243.0,1212056887.0,-112.78357700000001,-82.74058533,-72.82971954,-0.046450917,0.051087987,0.12493992,244,1212056887,-166.00131230000002,-79.82873535,1.050812602,-0.035883907,-0.054731395,-0.024546622999999997
244.0,1212073554.0,-112.7088928,-82.74459076,-72.80010223,-0.09651346,-0.021929009,0.096652985,245,1212073554,-165.9842834,-79.83399963,1.060037851,-0.04508290400000001,-0.035339355,0.007805824
245.0,1212090221.0,-112.6635361,-82.73526764,-72.74919891,-0.16794944,-0.08925855,0.11994171,246,1212090221,-165.9446716,-79.84030151,1.0575790409999999,-0.028637059,-0.034509674,0.024402617999999997
246.0,1212106888.0,-112.6422348,-82.71549225,-72.69402313,-0.18087189,-0.12608160000000002,0.16273212,247,1212106888,-165.8916931,-79.84959412,1.043304205,-0.008149981,-0.007644031,-0.0017824170000000001
247.0,1212123555.0,-112.66330719999999,-82.69685364,-72.62580872,-0.14753848,-0.15824185,0.18543434,248,1212123555,-165.8338013,-79.8609848,1.021707058,0.000395,-0.0333074,-0.05095482
248.0,1212140222.0,-112.7250824,-82.68203735,-72.5491333,-0.044152815,-0.18554193,0.16742802,249,1212140222,-165.77503969999998,-79.86812592,0.9844079609999999,0.03641474,-0.04184185,-0.036382675
249.0,1212156889.0,-112.8178635,-82.67102814,-72.46570587,0.044075485,-0.19559705,0.16307068,250,1212156889,-165.7205963,-79.87530518,0.929425776,0.039770637000000005,-0.019107563,-0.017256737
250.0,1212173556.0,-112.90837859999999,-82.66014099,-72.40029144,0.13558008,-0.21139017,0.16102695,251,1212173556,-165.6746368,-79.87918091,0.868207097,0.051929854000000004,0.021115381000000003,-0.008669853
251.0,1212190223.0,-112.98296359999999,-82.64932251,-72.36537933,0.16649617,-0.18027793,0.16494370000000003,252,1212190223,-165.6478882,-79.87766266,0.821032822,0.08807807,0.04364392,-0.019236565
252.0,1212206890.0,-113.03715520000002,-82.64157867,-72.36558533,0.19149193,-0.13559349,0.18176270000000003,253,1212206890,-165.6515503,-79.87332916,0.8002579809999999,0.08403835,0.060220927,-0.07392883
253.0,1212223557.0,-113.1003723,-82.64019775,-72.37071991,0.1533447,-0.08708889,0.20393848,254,1212223557,-165.6743927,-79.86270905,0.795747221,0.07521597,0.06454937,-0.05423069
254.0,1212240224.0,-113.2094116,-82.641716,-72.33419037,0.124778174,-0.029262861,0.24584103,255,1212240224,-165.71485900000002,-79.8483429,0.811740935,0.046767473,0.03468798,-0.011313438
255.0,1212256891.0,-113.27677150000001,-82.6495285,-72.33921051,0.058294597999999996,0.013431613,0.252285,256,1212256891,-165.76339719999999,-79.83274078,0.837863505,0.05403605,0.04446388,0.006010056
256.0,1212273558.0,-113.2698669,-82.66387939,-72.40716553,0.010189674000000001,0.07448804,0.23740292,257,1212273558,-165.8414001,-79.81674957,0.8907985690000001,0.033200096,0.012698889,-0.014844893999999999
257.0,1212290225.0,-113.23762509999999,-82.68088531,-72.48046875,-0.011657758999999998,0.12772729,0.17092133,258,1212290225,-165.91999819999998,-79.79776001,0.9410599470000001,-0.008451018000000001,-0.0065807240000000005,-0.039121628
258.0,1212306892.0,-113.22131350000001,-82.69577789,-72.51679229999999,-0.023431367999999998,0.17577869,0.15518093,259,1212306892,-165.9900818,-79.78017426,0.9913629290000001,0.000396,0.021746973,-0.018063545
259.0,1212323559.0,-113.1996078,-82.70593262,-72.53864288,-0.047841743,0.2063344,0.14309406,260,1212323559,-166.0570831,-79.76326752,1.050095797,-0.050337885,0.018616337,-0.002504349
260.0,1212340226.0,-113.17746729999999,-82.70768738,-72.54804229999999,-0.045055762,0.20589402,0.12736702,261,1212340226,-166.10870359999998,-79.74929047,1.10151577,-0.058298297,-0.02193925,-0.013766289
261.0,1212356893.0,-113.1985779,-82.69927216,-72.50254822,-0.041631613,0.1618984,0.14610195,262,1212356893,-166.1511383,-79.73947144,1.150071025,-0.05361617,-0.011895583000000001,-0.014044761999999999
262.0,1212373560.0,-113.2538452,-82.68549347,-72.41391754,-0.030281805,0.10727799,0.16619015,263,1212373560,-166.191803,-79.73136139,1.194505334,-0.0481046,-0.006915659,-0.000229
263.0,1212390227.0,-113.3317032,-82.67300415,-72.30049896,-0.020688966,0.031954695,0.1899271,264,1212390227,-166.22363280000002,-79.72620392,1.2355420590000001,-0.040223874,-0.004916391,-0.002112389
264.0,1212406894.0,-113.38413999999999,-82.66441345,-72.22006989,-0.005178959,-0.02573884,0.18321323,265,1212406894,-166.2518463,-79.72238159,1.272259951,-0.013870271000000002,-0.015803372,-0.017119408
265.0,1212423561.0,-113.3962555,-82.66043091,-72.19104004,-0.013534382,-0.049539823,0.19053936,266,1212423561,-166.2822876,-79.71916199,1.3087596890000002,-0.004774306,-0.01381528,-0.023083687000000002
266.0,1212440228.0,-113.4002838,-82.65891266,-72.18015289,-0.017290358000000002,-0.08490234599999999,0.19927025,267,1212440228,-166.3170624,-79.71720886,1.3471663,-0.001443335,-0.024262442999999998,-0.011171341000000001
267.0,1212456895.0,-113.40913390000001,-82.66120148,-72.17175293,-0.029460427999999997,-0.10956876,0.20263863,268,1212456895,-166.3499908,-79.71483612,1.382992148,0.007972505,-0.017831417,-0.010756493
268.0,1212473562.0,-113.42247009999998,-82.66968536,-72.16723633,-0.06641277,-0.09777615,0.19386864,269,1212473562,-166.3766327,-79.71273804,1.4100090269999999,-0.00293455,-0.019838786,-0.021680832
269.0,1212490229.0,-113.4604416,-82.67986298,-72.14200592,-0.0735763,-0.058774114,0.17617035,270,1212490229,-166.4078369,-79.7108078,1.43860352,-0.016180389,0.004296534,-0.022726059
270.0,1212506896.0,-113.5143814,-82.68732452,-72.09848022,-0.04555002599999999,-0.001167104,0.17738152,271,1212506896,-166.4405365,-79.71182251,1.470507741,-0.01336122,-0.017077954,0.002142906
271.0,1212523563.0,-113.54694369999999,-82.69335938,-72.07211304,-0.05324058,0.06543597599999999,0.17621708,272,1212523563,-166.4653168,-79.71385956,1.494939685,-0.025689747000000002,-0.02102022,-0.000781
272.0,1212540230.0,-113.54672240000002,-82.69719696,-72.08205414,-0.03447366,0.11624852,0.17940807,273,1212540230,-166.4900055,-79.71645355,1.515671253,-0.015378376000000001,-0.02790604,-0.025709152000000002
273.0,1212556897.0,-113.51984409999999,-82.69714355,-72.11603546,-0.016948033,0.094662674,0.17035961,274,1212556897,-166.506073,-79.72000885,1.5266225340000001,-0.033059627,-0.037356,-0.011611938999999998
274.0,1212573564.0,-113.51636509999999,-82.69483948,-72.11883545,-0.010610498999999999,0.06941378,0.17709446,275,1212573564,-166.50344850000002,-79.72538757,1.521247506,-0.019198772,-0.021535026000000002,-0.002655029
275.0,1212590231.0,-113.52832790000001,-82.69145203,-72.09709167,0.00438593,0.029990567000000003,0.17615414,276,1212590231,-166.5097351,-79.73065186,1.525379181,-0.019842809,-0.009796405,-0.001243591
276.0,1212606898.0,-113.55303190000001,-82.68869019,-72.05604553,-0.008645942,0.008458841,0.16547108,277,1212606898,-166.51402280000002,-79.73620605,1.528645635,-0.004949122,-0.0254997,-0.020853043
277.0,1212623565.0,-113.5998459,-82.68453217,-71.99060822,-0.017977843,-0.018985512,0.17287064,278,1212623565,-166.5109863,-79.74276733,1.5222390890000002,-0.000536,-0.0030827470000000003,-0.0038852690000000002
278.0,1212640232.0,-113.6283112,-82.68254089,-71.94611359,-0.016878843,-0.055064317,0.16731071,279,1212640232,-166.50344850000002,-79.74868774,1.512903214,0.000715,0.002579451,-0.019205093
279.0,1212656899.0,-113.63013459999999,-82.68200684,-71.93615723,-0.050120942,-0.068337776,0.18607426,280,1212656899,-166.49752809999998,-79.75331879,1.508846283,0.011275963,-8.94e-05,-0.011004448
280.0,1212673566.0,-113.60076140000001,-82.67962646,-71.97131348,-0.047354676,-0.06560398,0.19514847,281,1212673566,-166.4938965,-79.75967407,1.508976221,0.028871777,-0.024681863999999998,-0.017261505
281.0,1212690233.0,-113.55899050000001,-82.68136597,-72.03255463,-0.057193945999999996,-0.07665374,0.20318985,282,1212690233,-166.48902890000002,-79.76417542,1.503782749,0.02844057,-0.036105894,-0.01569748
282.0,1212706900.0,-113.52021029999999,-82.68782806,-72.09902191,-0.04846419,-0.08810364,0.19010258,283,1212706900,-166.4790497,-79.76802826,1.484058857,-0.011932833,-0.023086151,-0.012371063
283.0,1212723567.0,-113.51679229999999,-82.70179749,-72.1256485,-0.028170682000000002,-0.047086685999999996,0.16313648,284,1212723567,-166.4674835,-79.77272034,1.460357785,-0.015792014,-0.024669907999999997,-0.01731968
284.0,1212740234.0,-113.54613490000001,-82.71600342,-72.11598206,0.000146,-0.001373857,0.14426422,285,1212740234,-166.4545593,-79.77853394,1.441561699,-0.030461022999999997,0.015430273000000001,-0.018336296000000002
285.0,1212756901.0,-113.58245090000001,-82.72013092,-72.08904266,0.013929698,0.05410764,0.15130997,286,1212756901,-166.43270869999998,-79.78483582,1.4245451690000002,0.007655276999999999,0.012812098000000001,-0.001992226
286.0,1212773568.0,-113.58719640000001,-82.71614075,-72.087677,0.01632694,0.0850673,0.17343998,287,1212773568,-166.4117889,-79.78976440000001,1.4085127119999998,0.010982687,-0.016077567,-0.017256737
287.0,1212790235.0,-113.56085209999999,-82.70684814,-72.11938477,0.013621891,0.08556301,0.210639,288,1212790235,-166.3940582,-79.79390717,1.390736938,0.064420275,-0.027630169,-0.014774323
288.0,1212806902.0,-113.4938126,-82.70144653,-72.18989563,0.02492183,0.061431907,0.20221233,289,1212806902,-166.3773651,-79.79658508,1.368447304,0.037528887000000004,-0.007311891,-0.03330326
289.0,1212823569.0,-113.41999820000001,-82.70149994,-72.26648712,0.030585034,0.001344602,0.18215275,290,1212823569,-166.3744659,-79.79785919,1.3590971230000002,0.010927213,0.015349976000000001,-0.03631401
290.0,1212840236.0,-113.37538149999999,-82.70693207,-72.30326843,0.035578646,-0.041602038,0.18611908,291,1212840236,-166.3648987,-79.79760742,1.352628231,0.0070315709999999995,0.03210607,-0.005598068
291.0,1212856903.0,-113.36443329999999,-82.71263885,-72.295578,0.022375414,-0.06923471,0.17422867,292,1212856903,-166.3592529,-79.79980469,1.3526251319999998,-0.02133649,0.0048977840000000005,0.015213966
292.0,1212873570.0,-113.35652160000001,-82.71820831,-72.28082275,-0.005902733,-0.035222877,0.16776085,293,1212873570,-166.3533325,-79.80237579,1.3519113059999999,-0.016399775,-0.014226767,-0.009678841
293.0,1212890237.0,-113.349617,-82.72184753,-72.27133179,-0.021622244,-0.0038922590000000003,0.15580940000000001,294,1212890237,-166.35063169999998,-79.80506897,1.348050356,0.00734261,0.0054048230000000004,-0.03174591
294.0,1212906904.0,-113.3430405,-82.72106934,-72.277565,-0.057233665,0.003721463,0.16898441,295,1212906904,-166.3378601,-79.80599213,1.338721633,0.02672923,0.009666544000000001,-0.023357391
295.0,1212923571.0,-113.32513429999999,-82.71767426,-72.31009674,-0.057406782999999996,-0.0055590990000000005,0.18337345,296,1212923571,-166.3316956,-79.80804443,1.333709598,0.020457666,-0.012181456,-0.020858765
296.0,1212940238.0,-113.28437040000001,-82.71589661,-72.37901306,-0.04305922,-0.017216092,0.16186905,297,1212940238,-166.3309479,-79.80950928,1.328360081,0.003368641,-0.018068843,-0.03788376
297.0,1212956905.0,-113.26127620000001,-82.71616364,-72.43583679,-0.02388424,-0.050091199999999995,0.17281914,298,1212956905,-166.33248899999998,-79.81084442,1.322194695,-0.01104214,-0.024417896,-0.028583527
298.0,1212973572.0,-113.2605591,-82.72020721,-72.46247101,-0.003821304,-0.042810895,0.18888855,299,1212973572,-166.31790159999997,-79.81223297,1.30039525,0.000439,0.004613028,-0.001049042
299.0,1212990239.0,-113.26599879999999,-82.72651672,-72.47428131,0.010181911,-0.02895508,0.18000698,300,1212990239,-166.2990417,-79.81458282,1.2746346000000002,-0.005839199000000001,0.013032314,0.018803596000000002
300.0,1213006906.0,-113.26436609999999,-82.73188019,-72.48604584,0.012707788999999999,0.00886569,0.17109585,301,1213006906,-166.2783966,-79.81974029999999,1.249243975,-0.011921188999999999,-0.004806479000000001,-0.002922058
301.0,1213023573.0,-113.26593020000001,-82.73445129,-72.48783875,0.029258715,0.074904405,0.17012405,302,1213023573,-166.25245669999998,-79.82508087,1.220293045,0.002626131,0.002474903,-0.024964333
302.0,1213040240.0,-113.2755432,-82.73615265,-72.47454071,-0.004107382,0.08736002400000001,0.18208313,303,1213040240,-166.22619630000003,-79.8296051,1.194390178,0.0065174280000000005,-0.001732561,-0.024518012999999998
303.0,1213056907.0,-113.2692871,-82.73558807,-72.47316742,-0.004692788,0.07402376,0.17829132,304,1213056907,-166.2072601,-79.8327179,1.178527474,0.018501397,0.003849005,-0.01403141
304.0,1213073574.0,-113.2310028,-82.73370361,-72.50131989,0.012922827,0.038529925,0.19252777,305,1213073574,-166.1931915,-79.83650970000001,1.168759584,0.020320456,0.007545965,-0.0074081419999999995
305.0,1213090241.0,-113.17104340000002,-82.73023987,-72.54950714,0.01708205,0.015241234,0.18590927,306,1213090241,-166.1815033,-79.8373642,1.158942223,0.020033844,-0.001094264,-0.009962081999999999
306.0,1213106908.0,-113.1051712,-82.72805023,-72.60429382,0.032738544,-0.027435314,0.19808865,307,1213106908,-166.17480469999998,-79.83740234,1.152130485,0.021470739,-0.0039531620000000005,-0.0044212340000000004
307.0,1213123575.0,-113.0570068,-82.73191071,-72.64152527,0.026906595,-0.056341264,0.2080307,308,1213123575,-166.1739197,-79.83732605,1.150343418,0.018523993,0.010473873,-0.030095099999999996
308.0,1213140242.0,-113.02542109999999,-82.74276733,-72.66615295,0.018057797,-0.07647185,0.18142986,309,1213140242,-166.168045,-79.83774567,1.145965576,0.012463591999999999,0.029295955,-0.029065132
309.0,1213156909.0,-112.9851074,-82.75671387,-72.70252228,-0.004643708,-0.051556885,0.17371845,310,1213156909,-166.1698914,-79.8390274,1.152658224,-0.026185626,0.02985429,-0.022315979
310.0,1213173576.0,-112.9276886,-82.77191925,-72.75914764,-0.031100916,-0.02310933,0.18112278,311,1213173576,-166.17327880000002,-79.84191132,1.159741044,-0.020763481,0.003118062,-0.024770737
311.0,1213190243.0,-112.83444979999999,-82.78523254,-72.85447693,-0.07292551,0.033853408,0.17713451,312,1213190243,-166.17094419999998,-79.84487915,1.158962727,-0.02293891,-0.045693255999999995,0.006637573000000001
312.0,1213206910.0,-112.732605,-82.79857635,-72.96592712,-0.06670194,0.07845212,0.16626167,313,1213206910,-166.16842649999998,-79.85002899,1.153642535,-0.005493774,-0.054522187,-0.004085541
313.0,1213223577.0,-112.64616389999999,-82.80764771,-73.06992340000001,-0.07974702,0.09354004,0.17439365,314,1213223577,-166.16082759999998,-79.85623169,1.140741825,-0.010284984,-0.020330347,-0.029595375
314.0,1213240244.0,-112.5765533,-82.81649017,-73.15705109,-0.064887695,0.09722554,0.18059921,315,1213240244,-166.15232849999998,-79.86416626,1.132640004,-0.035171403999999996,0.003718194,-0.032424927
315.0,1213256911.0,-112.54630279999999,-82.82791901,-73.19604492,-0.05156132,0.07074855,0.14925575,316,1213256911,-166.1436157,-79.87567902,1.1329211000000001,-0.038816217,0.006235396999999999,-0.024055481
316.0,1213273578.0,-112.545639,-82.83661652,-73.1884079,-0.016891401,0.055685847999999996,0.16502857,317,1213273578,-166.11410519999998,-79.88827515,1.118853331,-0.030035056,-0.006527025,0.0023965839999999998
317.0,1213290245.0,-112.48737340000002,-82.84319305,-73.22000122,0.010542164,0.06486544,0.16949177,318,1213290245,-166.08230590000002,-79.9017868,1.1004481320000001,-0.03361282,-0.007026968000000001,-0.0009310000000000001
318.0,1213306912.0,-112.38666529999999,-82.84379578,-73.28474426,0.021255207999999998,0.060044575,0.17369938,319,1213306912,-166.0505981,-79.91734314,1.0778690579999999,-0.011316747,-0.02353016,-0.01846695
319.0,1213323579.0,-112.2897491,-82.84185028,-73.34162903,-0.00715213,0.04556412,0.17549706,320,1213323579,-166.0119019,-79.93352509,1.048889756,-0.004044935,-0.005619954,-0.01154232
320.0,1213340246.0,-112.2071686,-82.84121704,-73.38817596,-0.005242359,-0.0015923170000000002,0.19423962,321,1213340246,-165.9756012,-79.94787598,1.028949261,0.015868226000000003,0.02650439,-0.023693085
321.0,1213356913.0,-112.125473,-82.84310913,-73.44226074,-0.027405072000000003,-0.049374997999999996,0.20456886,322,1213356913,-165.9412994,-79.96082306,1.017558336,0.025581485,0.012080093,-0.021630287
322.0,1213373580.0,-112.03926090000002,-82.84835052,-73.50752258,-0.0032437779999999997,-0.087702975,0.20242214,323,1213373580,-165.91412350000002,-79.97267914,1.011781573,0.029894935,0.006146886,-0.012979507
323.0,1213390247.0,-111.957283,-82.85834503,-73.57254791,0.013125997,-0.09335202,0.20021725,324,1213390247,-165.8818207,-79.98356628,0.998895347,0.028867333999999998,0.007971366,-0.015084267
324.0,1213406914.0,-111.8707657,-82.870224,-73.6421814,0.034522448,-0.090582445,0.17272472,325,1213406914,-165.86369319999997,-79.99228668,0.994440138,0.02191404,-0.001791568,-0.042380333
325.0,1213423581.0,-111.74817659999998,-82.87913513,-73.75371552,0.018455356000000003,-0.07250274,0.1712656,326,1213423581,-165.8520813,-79.99608612,0.9885098929999999,0.05959322,0.003409355,-0.030264854
326.0,1213440248.0,-111.5926514,-82.88296509,-73.90909576,0.027383992000000003,-0.08240238,0.15319252,327,1213440248,-165.8505249,-79.99740601,0.9813568000000001,0.06546671,-0.032293933999999996,-0.05471611
327.0,1213456915.0,-111.4262314,-82.88420868,-74.08918762,0.05561614,-0.14834206,0.17560959,328,1213456915,-165.8509521,-79.99608612,0.9648705120000001,0.056456175,-0.013163906999999999,-0.021834372999999997
328.0,1213473582.0,-111.2477188,-82.88798523,-74.29512787,0.013154041000000002,-0.17177473,0.19068813,329,1213473582,-165.842514,-79.99375916,0.937251568,0.047650665,0.005075476,0.005055428
329.0,1213490249.0,-111.09134669999999,-82.90583038,-74.48735046,0.012554952,-0.14454888,0.15548038,330,1213490249,-165.8453369,-79.99337006,0.92363143,-0.015548308,-0.026223434,-0.024454117
330.0,1213506916.0,-111.0188675,-82.92748259999999,-74.59327698,-0.019508172,-0.1246989,0.12210750599999999,331,1213506916,-165.8301849,-79.99295807,0.898075759,-0.022606876,-0.031279853999999996,-0.024184227000000003
331.0,1213523583.0,-111.02379609999998,-82.94456482,-74.61586761,-0.058631107,-0.014068925,0.14238644,332,1213523583,-165.7952423,-79.99219513,0.860284328,-0.032142602,-0.0011737219999999999,-0.005167007
332.0,1213540250.0,-111.04457859999998,-82.95274353,-74.62068939,-0.07482111,0.04720609,0.14783192,333,1213540250,-165.75177,-79.99372101,0.8204196690000001,-0.016616967,0.006571336999999999,0.012863158999999999
333.0,1213556917.0,-111.0528564,-82.95129395,-74.64241791,-0.06277477,0.09865238,0.18944454,334,1213556917,-165.7107544,-79.9960022,0.778637171,0.004325032,0.018837057,-0.006233215
334.0,1213573584.0,-111.0118713,-82.94593048,-74.70970917,-0.034266405,0.13163644,0.23442649999999998,335,1213573584,-165.67529299999998,-79.99620056,0.738348663,0.021076672,0.014135351,-0.04082012
335.0,1213590251.0,-110.90608219999999,-82.94600677,-74.83499908,0.04921264,0.13494489,0.22016525,336,1213590251,-165.64765930000002,-79.99588776,0.699245453,-0.011256691999999999,-0.022581122999999998,-0.026943207
336.0,1213606918.0,-110.76525120000001,-82.95330048,-74.98095703,0.10050695,0.09929246,0.16348934,337,1213606918,-165.62159730000002,-79.99628448,0.655609071,-0.02360011,-0.017320186,-0.015586853000000001
337.0,1213623585.0,-110.6558533,-82.96034241,-75.07830048,0.100745134,0.06932709,0.12769604,338,1213623585,-165.58815,-79.99794769,0.614053547,-0.028811677999999997,-0.000563,-0.019350052
338.0,1213640252.0,-110.58387759999998,-82.96338654,-75.12388611,0.07414233,0.053294815,0.098882675,339,1213640252,-165.54350280000003,-80.00228119,0.576809227,-0.010534948,0.030060817000000004,-0.025419235
339.0,1213656919.0,-110.5722122,-82.95427704,-75.10095215,0.000512,0.043224957,0.15631676,340,1213656919,-165.5014801,-80.00510406,0.556223929,0.04599161,0.029761309,0.007777214
340.0,1213673586.0,-110.5680313,-82.94336700000001,-75.06936646,-0.026700556,0.019561365,0.21555042,341,1213673586,-165.48121640000002,-80.00611115,0.5542669889999999,0.026822211000000002,0.027532717,-0.0323143
341.0,1213690253.0,-110.583519,-82.94253540000001,-75.02703094,-0.011785221,-0.02895181,0.21181774,342,1213690253,-165.4754791,-80.00569916,0.5580784679999999,0.023604441,0.019412994,-0.03013897
342.0,1213706920.0,-110.5731125,-82.94273376,-75.01503754,0.027554732000000002,-0.038308993,0.21296215,343,1213706920,-165.4508209,-80.00491333,0.542702734,0.04783540000000001,-0.028676768999999998,0.00894928
343.0,1213723587.0,-110.46402739999999,-82.94434357,-75.10128021,0.05581030000000001,-0.032768503,0.20102882,344,1213723587,-165.42687990000002,-80.00019073,0.523019969,0.023210535,0.025736175,-0.00958252
344.0,1213740254.0,-110.290802,-82.95012665,-75.25867462,0.08056263599999999,-0.06125938,0.18605232,345,1213740254,-165.4182281,-79.9969635,0.517701387,0.028898919,-0.001753292,-0.013895035
345.0,1213756921.0,-110.19145970000001,-82.95809174,-75.34694672,0.07637205,-0.06815635,0.1828556,346,1213756921,-165.41593930000002,-79.99443054,0.518921256,0.0315406,0.018524697,-0.012168884
346.0,1213773588.0,-110.1189041,-82.96879578,-75.40882111,0.01651923,-0.04301627,0.19876671,347,1213773588,-165.417038,-79.99053955,0.523512065,0.023830784,0.019400477,-0.0208292
347.0,1213790255.0,-110.07182309999999,-82.98043823,-75.45185852,-0.011709022,-0.006625441,0.16729449999999998,348,1213790255,-165.42579650000002,-79.98407745,0.538620532,-0.005613025,0.015032643,-0.015812873999999998
348.0,1213806922.0,-110.0920105,-82.98809814,-75.43038940000001,-0.030493999,0.03349683,0.16816902,349,1213806922,-165.4520111,-79.97714996,0.570911407,-0.045752104,0.007767466,-0.014279366000000002
349.0,1213823589.0,-110.10175320000002,-82.99999237,-75.41589355,-0.028663421,0.06339697,0.1926403,350,1213823589,-165.4725647,-79.97357941,0.593881607,-0.023084858,-0.01640166,-0.024137497
350.0,1213840256.0,-110.04367830000001,-83.01273346,-75.46753693,0.001934573,0.06997671,0.16121101,351,1213840256,-165.4782715,-79.9713974,0.599041343,-0.007215208000000001,-0.031572714,-0.03167534
351.0,1213856923.0,-109.94718929999999,-83.01570892,-75.56200409,-0.016289456,0.06505871,0.12427807,352,1213856923,-165.488205,-79.96816254,0.598695517,-0.003111901,-0.05504297,-0.010183334
352.0,1213873590.0,-109.8490067,-83.008461,-75.66480255,-0.04040339,0.002906783,0.13901138,353,1213873590,-165.4986267,-79.96656036,0.59153074,-0.020592283,-0.028581329,-0.02717495
353.0,1213890257.0,-109.81723020000001,-82.99512482,-75.71180725,-0.046864014,-0.08835509400000001,0.15807724,354,1213890257,-165.49508669999997,-79.96518707,0.57131511,-0.002917675,-0.009667661999999999,-0.013196945
354.0,1213906924.0,-109.828804,-82.98339844,-75.72158051,-0.05284572,-0.12724729,0.18559551,355,1213906924,-165.4751282,-79.96606445,0.540535271,-0.045991037,-0.049038295,0.03627014
355.0,1213923591.0,-109.85495759999999,-82.98029327,-75.71939087,-0.041481894,-0.1467068,0.16667938,356,1213923591,-165.44671630000002,-79.97074127,0.50228256,-0.03466978,-0.060630683,0.0026683809999999996
356.0,1213940258.0,-109.9426041,-82.9796524,-75.65402985,-0.040776192999999995,-0.14125803,0.12309265,357,1213940258,-165.4072876,-79.97301483,0.452368289,0.020685676,-0.04860485,-0.035678864
357.0,1213956925.0,-110.0904922,-82.97052002,-75.52217102,-0.07193778,-0.09195728,0.1554575,358,1213956925,-165.3464508,-79.97522736,0.38104918600000004,0.059396856,-0.011938777,-0.031905174
358.0,1213973592.0,-110.19495390000002,-82.96588898,-75.43675232,-0.07386668,-0.06032994,0.22712803,359,1213973592,-165.3038788,-79.97679901,0.32562676100000004,0.03162172,0.028694816,-0.042562485
359.0,1213990259.0,-110.15171809999998,-82.98267365,-75.50619507,-0.056831325999999995,0.0009140000000000001,0.23386192,360,1213990259,-165.2684174,-79.98126984,0.28650045399999996,-0.07091735,-0.025714215,-0.05184269
360.0,1214006926.0,-109.97444920000001,-83.01618195,-75.71132659999999,-0.07110524,0.13248564,0.18208694,361,1214006926,-165.21272280000002,-79.98977661,0.240472078,-0.10394533,-0.05035255,0.004404068
361.0,1214023593.0,-109.8011627,-83.04862213,-75.90438843,-0.0979846,0.27007365,0.043961525,362,1214023593,-165.127121,-80.00380707,0.168901771,-0.12722877,-0.032051086,0.060433388
362.0,1214040260.0,-109.8422165,-83.0463562,-75.87841797,-0.13208659,0.349688,-0.015808105,363,1214040260,-165.0075531,-80.02279663,0.069841444,-0.08685393,-0.025345363,0.028486252000000004
363.0,1214056927.0,-110.07053379999999,-82.99529266,-75.66529083,-0.16030732,0.29868302,0.1036129,364,1214056927,-164.8721313,-80.04386902,-0.063809961,-0.003034202,-0.041187793,-0.041246414
364.0,1214073594.0,-110.38463590000002,-82.92033386,-75.37226105,-0.061966293,0.123188436,0.22456741,365,1214073594,-164.7661133,-80.06304932,-0.204757527,0.032405794,-0.026749695,-0.044751167
365.0,1214090261.0,-110.66257479999999,-82.84805298,-75.11548615,0.1255953,-0.14633444,0.30747795,366,1214090261,-164.6712799,-80.07659149,-0.35144946,0.13947820000000002,0.031517617000000005,-0.048106194000000005
366.0,1214106928.0,-110.82282260000001,-82.80175781,-74.97676086,0.30109400000000003,-0.33873495,0.29090879999999997,367,1214106928,-164.6056824,-80.08493805,-0.46681904799999996,0.15962388,0.12311882,-0.04459095
367.0,1214123595.0,-110.8235703,-82.79140472,-74.99612427,0.40920138,-0.39022952,0.24707222,368,1214123595,-164.577713,-80.08664703,-0.527806401,0.13874741,0.14304360000000002,-0.0335474
368.0,1214140262.0,-110.72755430000001,-82.81233978,-75.10553741,0.40902528,-0.328879,0.24479675,369,1214140262,-164.60153200000002,-80.08190918,-0.502611935,0.17539757,0.15983278,-0.053768157999999996
369.0,1214156929.0,-110.56564329999999,-82.85587311,-75.27275848,0.30810893,-0.20090329999999998,0.27107716,370,1214156929,-164.65336609999997,-80.06748199,-0.419146687,0.128826,0.11514113,-0.054722785999999995
370.0,1214173596.0,-110.43759920000001,-82.91008759,-75.41547394,0.13190542,-0.050654415,0.23641014,371,1214173596,-164.7349091,-80.04807281,-0.309473693,0.08731016,0.026970413999999998,-0.022079467999999998
371.0,1214190263.0,-110.3992615,-82.95806122,-75.49298859,-0.08037985,0.031119239,0.21221352,372,1214190263,-164.8314209,-80.02628326,-0.204213277,0.10732392,-0.025603354,0.0028409959999999997
372.0,1214206930.0,-110.38853449999999,-82.9957428,-75.56327057,-0.22883336,0.11554685,0.16348648,373,1214206930,-164.95751950000002,-80.00326538,-0.102343924,0.015993056999999998,-0.036656126000000004,-0.019472121999999998
373.0,1214223597.0,-110.35597990000001,-83.020401,-75.66247559,-0.25752532,0.20291926,0.13090992,374,1214223597,-165.0746155,-79.98099518,-0.033424508,-0.056487717,-0.051638532,-0.00849247
374.0,1214240264.0,-110.28601840000002,-83.02937317,-75.79077148,-0.21675032,0.24200909999999998,0.12261199999999998,375,1214240264,-165.1681366,-79.966362,0.0017788189999999998,-0.12345442,-0.07332689,0.040308
375.0,1214256931.0,-110.18364720000001,-83.03370667,-75.9315567,-0.17510198,0.26392353,0.15613174,376,1214256931,-165.2423248,-79.96035004,0.020118561,-0.14531139,-0.04334017,0.032844543
376.0,1214273598.0,-110.05193329999999,-83.03533936,-76.07929993,-0.09895786,0.23338819,0.14947605,377,1214273598,-165.298233,-79.96056366,0.038607258,-0.15222196,-0.003698581,0.0050601959999999994
377.0,1214290265.0,-109.99156950000001,-83.03060913,-76.13418579,-0.02675919,0.19607729999999998,0.11321926,378,1214290265,-165.3274994,-79.96691132,0.059993207,-0.11845108,0.030672235,0.0054693219999999996
378.0,1214306932.0,-110.08335109999999,-83.01405334,-76.02120972,0.037024523999999996,0.15940899,0.09303284,379,1214306932,-165.32427980000003,-79.98129272,0.074737161,-0.07119851599999999,0.005262165,-0.007356644
379.0,1214323599.0,-110.32101440000001,-82.99249268,-75.75428772,0.040062394,0.09688498,0.13869667,380,1214323599,-165.32931519999997,-79.99765778,0.10576164699999999,-0.04527978,0.006579663,-0.02012539
380.0,1214340266.0,-110.5708084,-82.97627258,-75.47116089,0.040642425,0.07008364,0.191288,381,1214340266,-165.31805419999998,-80.01612854,0.1261511,-0.032623224,0.006538704,-0.029763222000000002
381.0,1214356933.0,-110.7228622,-82.96790314,-75.28867340000001,0.047793300000000004,0.024674422999999997,0.22815990000000003,382,1214356933,-165.31343080000002,-80.0353775,0.151046649,0.014679499999999998,0.014974976999999999,-0.011833191000000002
382.0,1214373600.0,-110.73388670000001,-82.96204376,-75.25349426,0.026190776000000002,-0.046875,0.2252512,383,1214373600,-165.31587219999997,-80.05224609,0.180440322,0.07237615,-0.002082805,-0.0051069259999999995
383.0,1214390267.0,-110.66529080000001,-82.95780945,-75.30460358,0.010665125,-0.12728247,0.20569610000000002,384,1214390267,-165.3304901,-80.06601715,0.204914227,0.06928456599999999,-0.04189493,-0.033207892999999995
384.0,1214406934.0,-110.60781100000001,-82.95375061,-75.34884644,-0.010048704,-0.17603534,0.17633533,385,1214406934,-165.3607025,-80.07758331,0.224265397,0.09457013,-0.04882389,-0.04365349
385.0,1214423601.0,-110.59390259999998,-82.95171356,-75.34671021,-0.030833106000000002,-0.15780750000000002,0.1625166,386,1214423601,-165.38433840000002,-80.08634949,0.234608948,0.008770753000000001,0.0009,-0.023742676
386.0,1214440268.0,-110.5967865,-82.95285034,-75.32167053,-0.021045407000000002,-0.09689329,0.19009686,387,1214440268,-165.3995514,-80.09249878,0.255742073,0.03715354,0.034887522000000004,-0.004673958
387.0,1214456935.0,-110.5768585,-82.96034241,-75.31284332,0.033197317000000004,-0.010231187,0.18055153,388,1214456935,-165.41375730000001,-80.09569549999999,0.29257741600000003,0.058158282,0.008837646999999999,-0.02032566
388.0,1214473602.0,-110.5843582,-82.96681213,-75.27257538,0.07919391,0.022542062999999998,0.15581226,389,1214473602,-165.4233246,-80.09783936,0.320609897,0.04358828,-0.05028701,-0.013161659
389.0,1214490269.0,-110.6312637,-82.96787262,-75.18844604,0.0767934,0.017163053,0.145401,390,1214490269,-165.4347382,-80.09791565,0.33906891899999997,0.03365775,-0.00977763,-0.019542694
390.0,1214506936.0,-110.72122959999999,-82.96148682,-75.06676483,0.07640336,-0.023218042999999997,0.1469841,391,1214506936,-165.43296809999998,-80.10016632,0.343117774,0.014347533999999999,-0.003996132,0.002623558
391.0,1214523603.0,-110.78371429999999,-82.95004272,-74.98398590000001,0.03499777,-0.10389359,0.17883205,392,1214523603,-165.4288788,-80.10157013,0.34153229,0.008726994,-0.03570938,-0.013425827
392.0,1214540270.0,-110.820816,-82.93917084,-74.94147491,-0.019713094,-0.14646989,0.18922329,393,1214540270,-165.4342499,-80.10153961,0.345490605,0.021409517000000003,0.014588243,-0.03157425
393.0,1214556937.0,-110.8760834,-82.93256378,-74.89867401,-0.021126183,-0.15017270000000002,0.17841148,394,1214556937,-165.4411621,-80.09964752,0.35244607899999997,0.035092293999999996,0.004629904000000001,-0.028233527999999997
394.0,1214573604.0,-110.9758453,-82.92837524,-74.82261658,-0.043881804,-0.1346612,0.21789074,395,1214573604,-165.4499359,-80.09442902,0.35562440799999995,0.07025117,0.013350876000000001,-0.0176754
395.0,1214590271.0,-111.02944950000001,-82.93028259,-74.80420685,-0.04090568,-0.09487909,0.23882389,396,1214590271,-165.477417,-80.08759308,0.366442919,0.043502967999999996,0.017687809,-0.025216102999999997
396.0,1214606938.0,-111.0289307,-82.93750763,-74.84979248,0.00630615,-0.08207919,0.2059927,397,1214606938,-165.5193024,-80.07933044,0.380848289,0.008383105,-0.004391303,-0.018113136000000002
397.0,1214623605.0,-110.98455049999998,-82.9499054,-74.94128418,0.03082827,-0.037869457,0.20384312,398,1214623605,-165.5608521,-80.07144165,0.387706131,-0.003930238,-0.007692478000000001,-0.0038404470000000003
398.0,1214640272.0,-110.9083557,-82.96636963,-75.06604767,0.019877857,0.037772857,0.18198776,399,1214640272,-165.6040802,-80.06350708,0.396926612,-0.016972946000000003,-0.00658838,0.003263474
399.0,1214656939.0,-110.81834409999999,-82.98088074,-75.20365143,-0.021928756,0.09348767,0.137743,400,1214656939,-165.6342926,-80.05713654,0.400521576,0.000993,-0.006661245,-0.013995171
400.0,1214673606.0,-110.78073880000001,-82.98596954,-75.28223419,-0.06153024,0.114792466,0.109342575,401,1214673606,-165.6577911,-80.05167389,0.407497734,-0.019981883,0.000324,-0.01631546
401.0,1214690273.0,-110.81759640000001,-82.9810791,-75.27291107,-0.07158808,0.100042045,0.15050888,402,1214690273,-165.6758881,-80.04815674,0.417168975,-0.047926317999999996,0.05093754,-0.015095711000000001
402.0,1214706940.0,-110.86838529999999,-82.96974182,-75.23270416,-0.05896398,0.07837268,0.19208336,403,1214706940,-165.6621094,-80.04522705,0.410591662,-0.016248351,-0.011083168999999999,-0.011713028
403.0,1214723607.0,-110.8642578,-82.96360779,-75.23405457,-0.010839211999999999,0.04606159,0.20432186,404,1214723607,-165.6543579,-80.0437088,0.398389041,-0.005555121,-0.056256815999999994,-0.010725975
404.0,1214740274.0,-110.8320541,-82.95934296,-75.25930023,0.03945442,0.037354127,0.18657589,405,1214740274,-165.6489716,-80.04043579,0.37868338799999995,0.008322582,-0.012104176999999999,-0.032769203
405.0,1214756941.0,-110.8041534,-82.95362854,-75.28196716,0.049259704,0.021773517000000003,0.18261242,406,1214756941,-165.6466675,-80.03843689,0.359401315,0.011390332,0.006480982,0.009315491
406.0,1214773608.0,-110.7574081,-82.95204926,-75.32649994,0.035811644,-0.007782833,0.19530869,407,1214773608,-165.6239929,-80.04025269,0.335498482,0.011360101000000001,0.004762110999999999,-0.000339
407.0,1214790275.0,-110.6656418,-82.95697784,-75.42914581,0.04612166400000001,-0.034281634,0.17964363,408,1214790275,-165.6135406,-80.03689575,0.34836444299999997,0.052102733,0.07976149,-0.05161285400000001
408.0,1214806942.0,-110.594429,-82.96276855,-75.52352905,0.007123448,-0.086215995,0.16596508,409,1214806942,-165.6307983,-80.03013611,0.399107486,0.0066262790000000005,0.06319823,-0.021743774
409.0,1214823609.0,-110.5822906,-82.97177887,-75.54735565,-0.06055719,-0.10686292,0.20439434,410,1214823609,-165.6286163,-80.02768707,0.425590545,-0.00105385,-0.066248454,-0.009932518000000001
410.0,1214840276.0,-110.60554499999999,-82.98916626,-75.52707672,-0.08885981,-0.05893306,0.22512531,411,1214840276,-165.61755369999997,-80.02858734,0.425831378,-0.04451451,-0.051499117000000004,0.008778572
411.0,1214856943.0,-110.56082920000001,-83.01972961,-75.57845306,-0.10894775,0.037252087,0.20783138,412,1214856943,-165.59785459999998,-80.03149414,0.39311510299999997,-0.070159666,-0.05516378,0.02604103
412.0,1214873610.0,-110.3743973,-83.05330658,-75.77011871,-0.09152923,0.14562124,0.16353703,413,1214873610,-165.5739594,-80.03742981,0.34799695,-0.05235499,-0.04597008,-0.010527611000000001
413.0,1214890277.0,-110.1831284,-83.07092285,-75.96289063,-0.043893676,0.25533104,0.12326431,414,1214890277,-165.53804019999998,-80.04807281,0.30201804600000004,-0.042198177,0.013389878999999999,-0.033637047
414.0,1214906944.0,-110.1112595,-83.06961823,-76.02823639,-0.02762586,0.24900503,0.11408615,415,1214906944,-165.48440549999998,-80.05944824,0.252660006,-0.031547695,0.033636913,-0.034080505
415.0,1214923611.0,-110.15786740000001,-83.06188965,-75.95493317,-0.031191767999999998,0.20720142,0.14863491,416,1214923611,-165.4320679,-80.07314301,0.21674223199999998,-0.047957387000000004,0.007615478,-0.02168274
416.0,1214940278.0,-110.176506,-83.05352783,-75.88333893,-0.024617061000000003,0.13261147,0.20923996,417,1214940278,-165.3670959,-80.09194183,0.18203957399999998,-0.053125188,-0.03428074,0.023200988999999998
417.0,1214956945.0,-110.0914383,-83.04882049999999,-75.89700317,0.021229062000000003,0.08363403,0.22589970000000004,418,1214956945,-165.2838898,-80.11209106,0.130578861,-0.032323744,-0.023852072999999998,0.008422852
418.0,1214973612.0,-109.94519809999998,-83.05200958,-75.96305847,0.049623522999999996,0.03483906,0.17676067,419,1214973612,-165.20066830000002,-80.12957001,0.081282094,0.012037778999999998,-0.00731787,-0.0046262740000000005
419.0,1214990279.0,-109.85988619999999,-83.05567169,-75.96800232,0.037703086000000004,-0.028815547,0.14886379,420,1214990279,-165.1224365,-80.14802551,0.040377412,0.036077372999999996,0.044933256,-0.04751396
420.0,1215006946.0,-109.82087709999999,-83.05220795,-75.93346405,0.018010039,-0.10413474,0.17451572,421,1215006946,-165.0391846,-80.16269684,0.0035879320000000003,0.05237641,0.03617859,-0.05237961
421.0,1215023613.0,-109.75190729999998,-83.04286194,-75.93681335,0.023686778,-0.18160634,0.18680191,422,1215023613,-164.9658356,-80.17418671,-0.027581064,0.072132654,-0.024062455,-0.021974564
422.0,1215040280.0,-109.64702609999999,-83.03711700000001,-75.98270416,0.05542853,-0.24375896,0.18567657,423,1215040280,-164.90631100000002,-80.18228149,-0.067309536,0.07723456,-0.032621436000000004,-0.04228306
423.0,1215056947.0,-109.56843570000001,-83.03505707,-76.01248932,0.06388786,-0.26477936,0.19750595,424,1215056947,-164.8642731,-80.18802643,-0.10682687199999999,0.09489238,0.000136,-0.031181335
424.0,1215073614.0,-109.52110290000002,-83.04243469,-76.03785706,0.076944396,-0.22640622,0.17445087,425,1215073614,-164.8295898,-80.19063568,-0.15034747099999998,0.07657722,0.021186233999999998,-0.04500389
425.0,1215090281.0,-109.471756,-83.05802155,-76.09880829,0.06180634,-0.23080054,0.15637779,426,1215090281,-164.8194885,-80.18855286,-0.172963217,0.08170993,0.028489297,-0.06063652
426.0,1215106948.0,-109.40609740000002,-83.07204437,-76.2095108,0.057650175,-0.20643714,0.16086197,427,1215106948,-164.82110600000001,-80.18193817,-0.18736866100000002,0.054724577999999996,0.029666819,-0.009444237
427.0,1215123615.0,-109.33580020000001,-83.08409882,-76.3478241,0.040457047999999995,-0.14358251,0.18044186,428,1215123615,-164.8442383,-80.17519379,-0.184686035,0.050142847000000004,0.007945607,-0.01190567
428.0,1215140282.0,-109.2933426,-83.09635925,-76.47180176,0.034294926,-0.092922665,0.1643734,429,1215140282,-164.9032135,-80.1648941,-0.164701656,0.051150206,-0.011427043999999999,-0.05251026
429.0,1215156949.0,-109.2926865,-83.11049652,-76.55979919,0.014897341000000001,-0.04033047,0.18662739,430,1215156949,-164.9477539,-80.15525818,-0.17103020800000002,0.06382647,-0.046106588,-0.04571247
430.0,1215173616.0,-109.2367935,-83.13156128,-76.69043732,-0.030782717999999997,0.047548402000000003,0.23431206,431,1215173616,-164.975235,-80.14561462,-0.187322408,-0.008793356,0.04041628,0.000413
431.0,1215190283.0,-109.1255798,-83.16362,-76.85969543,-0.055615146,0.14034015,0.25351143,432,1215190283,-165.02055359999997,-80.14096832,-0.17848354600000002,-0.10324898,0.03882677,0.057429314
432.0,1215206950.0,-108.97161100000001,-83.20987701,-77.06313324,-0.08879962,0.2348794,0.21891212,433,1215206950,-165.0650787,-80.14202881,-0.149559304,-0.05930936,0.026024899,-0.000519
433.0,1215223617.0,-108.79941559999999,-83.25776672,-77.28179169,-0.116752855,0.31769076,0.12071228,434,1215223617,-165.0940247,-80.14775085,-0.11759661099999999,-0.13232858,0.024304352999999997,-0.055638312999999995
434.0,1215240284.0,-108.72322079999999,-83.28183746,-77.39317322,-0.1303862,0.36024490000000003,0.05843067,435,1215240284,-165.08673100000001,-80.15425873,-0.10880569400000001,-0.08796255,-0.00994655,0.0007059999999999999
435.0,1215256951.0,-108.7919617,-83.27285004,-77.34207916,-0.09710002,0.3411603,0.07188797,436,1215256951,-165.0647736,-80.16710663,-0.127774149,-0.0836673,-0.076789945,0.062113762
436.0,1215273618.0,-108.90671540000001,-83.24802399,-77.21623993,-0.03530826,0.26005346,0.12355327599999999,437,1215273618,-165.0440063,-80.18782806,-0.162149414,-0.090762965,-0.078279436,-0.027915955
437.0,1215290285.0,-108.93611909999998,-83.21958923,-77.14844513,0.002399899,0.12711252,0.13932133,438,1215290285,-164.9952545,-80.21083832,-0.228457525,-0.05446618,-0.045193147,-0.06421852
438.0,1215306952.0,-108.90481570000001,-83.18928528,-77.12539673,0.058272300000000006,0.008847279,0.16401196,439,1215306952,-164.9217834,-80.23455048,-0.311723381,-0.02185036,0.011203587,9.54e-06
439.0,1215323619.0,-108.8720169,-83.16278839,-77.09498596,0.03907314,-0.094067916,0.2208662,440,1215323619,-164.8648376,-80.26023865,-0.354640275,0.028337546,0.08148327,0.008548736999999999
440.0,1215340286.0,-108.87874599999999,-83.150177,-77.0321579,0.056035046,-0.18551248,0.23143387,441,1215340286,-164.8191528,-80.28356171,-0.36763477299999997,0.08382289999999999,0.057122704,-0.042160987999999996
441.0,1215356953.0,-108.926651,-83.14659882,-76.94508362,0.08025901,-0.23687394,0.22106170000000003,442,1215356953,-164.7862396,-80.30495453,-0.361549944,0.10906573,0.02075776,-0.033244132999999995
442.0,1215373620.0,-108.95343020000001,-83.14685822,-76.897995,0.09250906,-0.2430134,0.18634415,443,1215373620,-164.7605896,-80.31724548,-0.360200047,0.13556312,-0.020087669,-0.024364471000000002
443.0,1215390287.0,-108.9823303,-83.14794159,-76.86534882,0.11784483,-0.23547202,0.18191719,444,1215390287,-164.74508669999997,-80.32358551,-0.37252762899999997,0.12469119,-0.03190994,0.007599831
444.0,1215406954.0,-108.9845047,-83.15338898,-76.87319946,0.11246516599999999,-0.22363986,0.21209717,445,1215406954,-164.7388611,-80.32500458,-0.388986111,0.09877576,0.011431291000000001,-0.023571013999999998
445.0,1215423621.0,-108.93930049999999,-83.16622925,-76.94249725,0.066764474,-0.17967363,0.20725346,446,1215423621,-164.7532501,-80.3219223,-0.387107551,0.06842197,0.054464128,-0.057113647000000003
446.0,1215440288.0,-108.8664703,-83.18566132,-77.05143738,0.034172907,-0.10863767,0.20167446,447,1215440288,-164.78550719999998,-80.3156662,-0.36021441200000004,0.032335214,0.055766425999999994,-0.029907227
447.0,1215456955.0,-108.82632450000001,-83.20762634,-77.13647461,-0.006502674,0.005581173,0.15876865,448,1215456955,-164.8298187,-80.30939484,-0.314247012,0.025286984,0.026652633999999998,-0.031492233
448.0,1215473622.0,-108.84584050000001,-83.22367096,-77.1703186,-0.011317106,0.09258079,0.13278484,449,1215473622,-164.88937380000002,-80.30302429,-0.253961354,0.005909927,0.0038759940000000002,-0.03722191
449.0,1215490289.0,-108.8940735,-83.2263031,-77.17723846,-0.013684625,0.13930202,0.13200378,450,1215490289,-164.92807009999999,-80.29734802,-0.221118525,0.006669703000000001,-0.066882506,-0.024095535
450.0,1215506956.0,-108.93072509999999,-83.21854401,-77.18403625,0.028560782000000003,0.1363782,0.14771652,451,1215506956,-164.9499969,-80.29252625,-0.21644738300000002,-0.01452135,-0.06913384,0.002282143
451.0,1215523623.0,-108.9515762,-83.2082901,-77.18056488,0.042178307000000005,0.119857386,0.17862034,452,1215523623,-164.9512177,-80.29062653,-0.22866846600000001,0.001834161,-0.00595405,0.017850876
452.0,1215540290.0,-108.97155759999998,-83.20223236,-77.15153503,0.030167787999999997,0.09838712,0.18833923,453,1215540290,-164.958786,-80.29167175,-0.218672633,-0.008949271,0.050970565999999995,-0.031249046000000003
453.0,1215556957.0,-109.0118408,-83.19712829999999,-77.08275604,0.005448245,0.06799673,0.19620610000000002,454,1215556957,-164.9640503,-80.28964996,-0.191879943,0.010937948999999999,0.04918883,-0.047193527
454.0,1215573624.0,-109.08230590000001,-83.19176483,-76.96999359,-0.012148398999999999,0.04754149,0.18132782,455,1215573624,-164.9673157,-80.28684235,-0.150237307,0.025056815,0.048175927,-0.020456314
455.0,1215590291.0,-109.15810390000001,-83.1861496,-76.84545898,0.014609908999999999,0.020193898999999998,0.19542408,456,1215590291,-164.9784088,-80.28533936,-0.097878315,0.018847827,0.013245322,-0.015752791999999998
456.0,1215606958.0,-109.1961365,-83.18105316,-76.75501251,0.023851157999999997,-0.011401555,0.21146584,457,1215606958,-164.98909,-80.28507996,-0.055694424000000006,-0.014846925,-0.016772188,-0.010492325
457.0,1215623625.0,-109.18619540000002,-83.18137359999999,-76.7182312,0.037089635,-0.028084716000000003,0.18495274,458,1215623625,-165.0114136,-80.28420258,-0.017994944,-0.026251737,-0.047130723,-0.01224041
458.0,1215640292.0,-109.1439133,-83.18243408,-76.72792816,-0.021730045,-0.042139243,0.17190933,459,1215640292,-165.0529175,-80.28345490000001,0.026588378,-0.003271245,-0.020545535,-0.013928413
459.0,1215656959.0,-109.1075668,-83.18370056,-76.75208282,-0.06891369,-0.05760176,0.18068123,460,1215656959,-165.08078,-80.28543854,0.05836352,-0.02281088,0.00434878,-0.014348983999999999
460.0,1215673626.0,-109.05753329999999,-83.18560791,-76.81000519,-0.12273415,-0.084332325,0.1948204,461,1215673626,-165.0903931,-80.288414,0.07161124099999999,0.002338874,0.012268682,-0.013464928000000001
461.0,1215690293.0,-109.0121307,-83.18778992,-76.87980652,-0.10511248599999999,-0.07913077,0.17288113,462,1215690293,-165.096405,-80.29161072,0.084554769,-0.0027020340000000003,-0.019358737,-0.0014095310000000001
462.0,1215706960.0,-109.0174713,-83.18724823,-76.91027832,-0.06683542,-0.08902868,0.13812351,463,1215706960,-165.0895844,-80.2954483,0.079142742,-0.001921387,-0.049686707999999996,-0.010970116
463.0,1215723627.0,-109.0716095,-83.18647003,-76.89894867,-0.03169725,-0.07174635,0.16537476,464,1215723627,-165.0804443,-80.30111694,0.063889191,-0.03457946,-0.024831172000000002,-0.006052971
464.0,1215740294.0,-109.12467190000001,-83.18822479,-76.88536072,0.030711787,-0.049619295,0.15056801,465,1215740294,-165.07710269999998,-80.3081131,0.06117107,0.006029540999999999,0.017773136000000002,-0.05168819400000001
465.0,1215756961.0,-109.1623764,-83.19158936,-76.87846375,0.05832447,0.00045099999999999996,0.1726284,466,1215756961,-165.0676727,-80.31481171,0.052524975999999994,0.00611579,-0.0031866240000000003,-0.034893036
466.0,1215773628.0,-109.1995697,-83.19429779,-76.86464691,0.049266372,0.053597215999999996,0.18591976,467,1215773628,-165.05467219999997,-80.31905365,0.035270467,0.019688578,-0.004123255,-0.003735542
467.0,1215790295.0,-109.22660829999998,-83.19599915,-76.85271454,0.06263404,0.07408023,0.19575882,468,1215790295,-165.049942,-80.32524872,0.026407412999999998,0.017805113,0.018903943,-0.01985836
468.0,1215806962.0,-109.212471,-83.1979599,-76.87557983,0.076071255,0.062468595999999994,0.1982317,469,1215806962,-165.0613251,-80.32915497,0.035845842,0.06059826,0.033090927,-0.029147147999999998
469.0,1215823629.0,-109.1682739,-83.19911957,-76.92537689,0.09814969,0.034981966,0.16876125,470,1215823629,-165.0779877,-80.33087921,0.05685116,0.07014977,0.035352543,-0.058631897
470.0,1215840296.0,-109.1504288,-83.19429779,-76.94374847,0.10440561,-0.022921752000000004,0.15231419,471,1215840296,-165.1087341,-80.32823944,0.091773689,0.051095873,0.036368575,-0.03415203
471.0,1215856963.0,-109.1792374,-83.18264008,-76.90616608,0.1143225,-0.104777955,0.15946865,472,1215856963,-165.1442261,-80.32208252,0.12977007,0.05221091,0.03123532,-0.017683983
472.0,1215873630.0,-109.22896580000001,-83.1698761,-76.84403992,0.11185753,-0.15454929,0.20282269,473,1215873630,-165.2011871,-80.31259918,0.180179283,0.08440299999999999,0.019489827,-0.004501343
473.0,1215890297.0,-109.2585754,-83.15737152,-76.80989075,0.11086951,-0.16374014,0.21055698,474,1215890297,-165.2796936,-80.29888916,0.233470753,0.10095157,-0.008060045,-0.04293251
474.0,1215906964.0,-109.27527620000001,-83.14923859,-76.80282593,0.07896332,-0.20331046,0.27043343,475,1215906964,-165.3728638,-80.28177643,0.285356939,0.08994951,0.024705892,-0.000263
475.0,1215923631.0,-109.20586399999999,-83.16069794,-76.89571381,0.0049387879999999995,-0.18452020000000002,0.31099415,476,1215923631,-165.47314450000002,-80.26752472,0.340945125,0.01914693,0.026806133,0.005470276
476.0,1215940298.0,-109.03123470000001,-83.20451355,-77.11116791,-0.06634858,-0.04146182,0.21867085,477,1215940298,-165.58053590000003,-80.25385284,0.419116318,-0.053584997,0.000392,-0.04694271
477.0,1215956965.0,-108.8467789,-83.26166534,-77.35271454,-0.11487001,0.09825915,0.050505638,478,1215956965,-165.6584625,-80.24205017,0.492560655,-0.09138815,-0.06467554,-0.06397724
478.0,1215973632.0,-108.7799835,-83.29437256,-77.47550964,-0.17702729,0.18503775,-0.05904579,479,1215973632,-165.6829376,-80.23271942,0.531762064,-0.087487236,-0.08524505,0.006631850999999999
479.0,1215990299.0,-108.89919280000001,-83.28116608,-77.38793945,-0.26604065,0.2308683,0.012803078,480,1215990299,-165.6509399,-80.22770691,0.5257180929999999,-0.062112253,-0.079565026,0.07205868
480.0,1216006966.0,-109.13745120000002,-83.24117279,-77.15653992,-0.2877102,0.20802034,0.18597794,481,1216006966,-165.6184082,-80.23028564,0.501130641,-0.07909852,-0.07053828,0.005960465
481.0,1216023633.0,-109.3554535,-83.21756744,-76.92603302,-0.22820115,0.13934797,0.26863956,482,1216023633,-165.5811157,-80.24071503,0.46160286700000003,-0.10953818,-0.010556852,-0.06324482
482.0,1216040300.0,-109.4654922,-83.21170044,-76.79385376,-0.102374785,0.15661472,0.2598467,483,1216040300,-165.52420039999998,-80.25640106,0.40490031200000004,-0.11201192,-0.00136097,-0.015936851999999998
483.0,1216056967.0,-109.43283079999999,-83.21600342,-76.79673004,0.07210889,0.22348571,0.19680023,484,1216056967,-165.4400635,-80.2766037,0.33559373,-0.05989171,0.010364296,0.013889313
484.0,1216073634.0,-109.3684769,-83.21259308,-76.82958984,0.18936,0.21218973,0.13370895,485,1216073634,-165.3647003,-80.29789734,0.291779548,0.053359135999999995,0.038820177000000004,0.00261116
485.0,1216090301.0,-109.31453700000002,-83.19274139,-76.84429932,0.23515971,0.14934772,0.1761074,486,1216090301,-165.3033142,-80.31643677,0.272308946,0.12767692,0.034554377000000004,-0.036364555
486.0,1216106968.0,-109.30596159999999,-83.16798401,-76.79051208,0.19273818,0.036135223,0.21930408,487,1216106968,-165.2553101,-80.32691956,0.268139929,0.13187787,0.037779894,-0.04142666
487.0,1216123635.0,-109.34847260000001,-83.14591217,-76.66082001,0.14041123,-0.120872885,0.256485,488,1216123635,-165.2357941,-80.33059692,0.283606261,0.12585476,0.07314635,-0.037906647
488.0,1216140302.0,-109.4176102,-83.13967896,-76.48342896,0.14048694,-0.21515474,0.2383194,489,1216140302,-165.25820919999998,-80.33094025,0.338795036,0.08165285,0.07746171,-0.039616585
489.0,1216156969.0,-109.43181609999999,-83.14957428,-76.36174774,0.10800441,-0.2575943,0.20821953,490,1216156969,-165.29776,-80.32706451,0.402547717,0.08494539,0.012531812,-0.04114628
490.0,1216173636.0,-109.3887024,-83.16622925,-76.32128906,0.070794046,-0.23559245,0.16662598,491,1216173636,-165.34025569999997,-80.31958008,0.45647227799999995,0.052305187999999996,-0.012764154,-0.032654762000000004
491.0,1216190303.0,-109.32267,-83.18341064,-76.34748077,-0.014993096000000001,-0.22158149,0.12844181,492,1216190303,-165.39724730000003,-80.31048584,0.510396063,0.053755894000000005,-0.000535,-0.057106018
492.0,1216206970.0,-109.2428207,-83.19461823,-76.43728638,-0.07357625,-0.22011654,0.13081932,493,1216206970,-165.4628448,-80.29897308,0.573144794,0.043120313,0.03913589,-0.03505993
493.0,1216223637.0,-109.1526413,-83.19424438,-76.58063507,-0.08107902,-0.19892986,0.12663174,494,1216223637,-165.51907350000002,-80.28881836,0.627518594,0.026947176,-0.026141461,-0.008836746
494.0,1216240304.0,-109.10473629999998,-83.18528748,-76.70624542,-0.09728761,-0.18930997,0.13348007,495,1216240304,-165.56221010000002,-80.27843475,0.659454286,0.000801,-0.045924928,-0.004899025
495.0,1216256971.0,-109.135582,-83.17720795,-76.75333405,-0.052605517000000004,-0.11988654,0.18177128,496,1216256971,-165.5967407,-80.26855469,0.67184484,0.016947996,-0.0637602,-0.01349926
496.0,1216273638.0,-109.2253571,-83.17896271,-76.7203064,-0.012031199,-0.030419623,0.225811,497,1216273638,-165.62539669999998,-80.25711059999999,0.66901201,0.01610174,-0.037160818,0.0015478129999999999
497.0,1216290305.0,-109.32586670000002,-83.1933136,-76.65504456,0.01434943,0.06589663,0.21803093,498,1216290305,-165.6487885,-80.24960327,0.661091805,-0.005250829,0.003227415,-0.028455734
498.0,1216306972.0,-109.4057159,-83.21349335,-76.59591675,0.045682557,0.11654439999999999,0.17195606,499,1216306972,-165.6817474,-80.24125671,0.6725427509999999,-0.016775122,0.043505512,-0.065410614
499.0,1216323639.0,-109.4549103,-83.22552490000001,-76.5594101,0.04422067,0.1580836,0.1401043,500,1216323639,-165.71151730000003,-80.23464966,0.696600795,-0.019687565,0.032229785,-0.033068657
500.0,1216340306.0,-109.48271940000001,-83.22497559,-76.5382843,0.029373113,0.19963199,0.14437962,501,1216340306,-165.745285,-80.22672272,0.735764205,-0.05609086,0.027354801,-0.007275581
501.0,1216356973.0,-109.4760361,-83.21820831,-76.54682922,0.016403299,0.22127962,0.17582417,502,1216356973,-165.78466799999998,-80.22173309,0.78234911,-0.014699546,0.0024620510000000003,-0.006018639
502.0,1216373640.0,-109.43441010000001,-83.20774078,-76.58229828,0.013122419,0.20952079,0.20814228,503,1216373640,-165.819931,-80.21733093,0.8226073979999999,0.013036148999999999,-0.011400055,-0.0007030000000000001
503.0,1216390307.0,-109.3668213,-83.19940186,-76.63090515,-0.003749275,0.14123558,0.21099472,504,1216390307,-165.85157780000003,-80.21437836,0.8533783559999999,0.005436875999999999,-0.040595595,-0.013349533
504.0,1216406974.0,-109.3195953,-83.19087219,-76.647995,-0.0023203810000000003,0.020506656,0.16396236,505,1216406974,-165.8812256,-80.21186066,0.876205325,0.004115153,-0.031721685,-0.0202322
505.0,1216423641.0,-109.316185,-83.18186188,-76.61658478,-0.050339483,-0.08625076,0.17287254,506,1216423641,-165.8929749,-80.20975494,0.8811708090000001,-3.46e-05,-0.004198859,-0.009482384
506.0,1216440308.0,-109.3663712,-83.17444611,-76.53325653,-0.053154387000000004,-0.17351529999999998,0.16152668,507,1216440308,-165.8833466,-80.20674133,0.872336805,0.017803624,0.001110357,0.006192207
507.0,1216456975.0,-109.41125490000002,-83.17004395,-76.46595764,-0.0639902,-0.18043806,0.18626785,508,1216456975,-165.8870544,-80.20397186,0.882027507,0.024489965,0.012375913,-0.009536743
508.0,1216473642.0,-109.4403,-83.17456055,-76.43191528,-0.060774695,-0.13018489,0.16535568,509,1216473642,-165.90464780000002,-80.20137787,0.8993350859999999,-0.017457955,-0.022729926,-0.05895233
509.0,1216490309.0,-109.46757509999999,-83.18209839,-76.41675568,-0.016073022,-0.045544412,0.17496109,510,1216490309,-165.9168854,-80.19792938,0.911544919,-0.014695383000000001,0.03231014,-0.022667885
510.0,1216506976.0,-109.4771194,-83.19026947,-76.43047333,0.0034065,0.038534906,0.19056511,511,1216506976,-165.94104,-80.19599152,0.9436151979999999,-0.014693574,0.027453817000000002,0.006527901
511.0,1216523643.0,-109.43906399999999,-83.19664001,-76.50490570000001,0.023633162000000003,0.09558593,0.20091057,512,1216523643,-165.96101380000002,-80.19472504,0.9707432990000001,-0.015903443,-0.030581712999999996,0.010183334
512.0,1216540310.0,-109.3802567,-83.19689941,-76.60268402,0.028751613999999998,0.10713030400000001,0.1659441,513,1216540310,-165.980423,-80.19504547,0.985866427,-0.002996736,-0.044015455999999994,-0.019058228
513.0,1216556977.0,-109.4006119,-83.19194031,-76.60813141,0.044751737,0.08270415,0.14974594,514,1216556977,-165.9954376,-80.195755,0.9911797640000001,0.020919053,0.000124,-0.035681725
514.0,1216573644.0,-109.4957962,-83.18556976,-76.52320862,0.02619457,0.056657843,0.14623356,515,1216573644,-166.0121002,-80.19538116,0.994760931,0.017420147,0.012396531,-0.05011463
515.0,1216590311.0,-109.61948390000002,-83.18140411,-76.39632416,0.014662202,0.014057395,0.19983959,516,1216590311,-166.0125732,-80.19439697,0.9864159229999999,0.0069011440000000005,0.042305972000000004,-0.006414414
516.0,1216606978.0,-109.6367874,-83.18359375,-76.36715698,0.004031361,0.001277181,0.2399311,517,1216606978,-166.0258789,-80.19289398,1.0043842790000002,-0.013334545,0.061550102999999995,-0.008230209
517.0,1216623645.0,-109.5320663,-83.19300079,-76.45252991,-0.025753792,-0.010943022,0.19873524,518,1216623645,-166.05206299999998,-80.19364166,1.0421522859999999,-0.015306523,0.017569795,-0.02068901
518.0,1216640312.0,-109.4197769,-83.20479584,-76.53897858,-0.009428703,-0.012112346999999999,0.14428329999999998,519,1216640312,-166.0678864,-80.1951828,1.071500063,-0.021953924,-0.017100586,-0.025476456
519.0,1216656979.0,-109.3765335,-83.20886993,-76.55615234,-0.015318627,-0.007028299,0.10960102,520,1216656979,-166.0776978,-80.19496918,1.08962369,0.006714238000000001,-0.027265284,-0.005010605
520.0,1216673646.0,-109.38542939999999,-83.20173645,-76.52525329999999,-0.013139294,-0.008396234,0.13723469,521,1216673646,-166.08839419999998,-80.1965332,1.099358678,0.005136363,-0.03294307,-0.013327598999999999
521.0,1216690313.0,-109.4143295,-83.19011688,-76.48444366,-0.018284997,-0.023637147999999997,0.16871452,522,1216690313,-166.103775,-80.19773102,1.109814405,0.009626451999999999,-0.000248,-0.0027475359999999996
522.0,1216706980.0,-109.4523544,-83.18062592,-76.44580078,0.002051432,-0.063735425,0.1929102,523,1216706980,-166.1172791,-80.19865417,1.119836569,0.01849905,0.009283946,-0.01931572
523.0,1216723647.0,-109.47515109999999,-83.17634583,-76.43328094,0.03141616,-0.09867377599999999,0.18063545,524,1216723647,-166.134613,-80.19821167,1.134996772,0.012475341000000001,0.019842809,-0.021186829
524.0,1216740314.0,-109.53350829999998,-83.17485046,-76.39357758,0.03170106,-0.093984604,0.16375732,525,1216740314,-166.15499880000002,-80.19680786,1.153009653,0.01670218,0.045651345999999995,-0.014931679
525.0,1216756981.0,-109.58647920000001,-83.17732239,-76.36325836,0.035662322999999996,-0.075660035,0.19483852,526,1216756981,-166.1774139,-80.19470978,1.16983521,0.010432453000000001,-0.010443866,-0.021960258
526.0,1216773648.0,-109.5993729,-83.18482971,-76.37890625,0.001899915,-0.054806408,0.20037746,527,1216773648,-166.197403,-80.19312286,1.1750699279999999,0.006925325,-0.01803677,-0.019853592
527.0,1216790315.0,-109.56558989999999,-83.1932373,-76.44848633,0.005641205,-0.022231597000000002,0.19510650000000002,528,1216790315,-166.2076874,-80.19137573,1.165419698,0.015128523,-0.04267069,-0.019247055
528.0,1216806982.0,-109.5102081,-83.20341492,-76.54594421,-0.017358879,0.001711968,0.1687479,529,1216806982,-166.2154846,-80.1907196,1.148819208,-0.015639257,-0.018094435,-0.015332222
529.0,1216823649.0,-109.49488829999999,-83.21037292,-76.60251617,-0.041162033,0.045161507999999996,0.13864613,530,1216823649,-166.2287445,-80.19083405,1.142796278,0.001109169,0.005902139,-0.031798362999999996
530.0,1216840316.0,-109.5379028,-83.21528625,-76.58823395,-0.04194442,0.072558746,0.16555214,531,1216840316,-166.2368164,-80.19213867,1.1419953109999998,-0.02270951,0.011058471,-0.017848969
531.0,1216856983.0,-109.5908508,-83.21878052,-76.5425415,-0.04212806400000001,0.100644104,0.17150020000000002,532,1216856983,-166.2379608,-80.19480896,1.144121766,-0.02618068,0.003536031,-0.019021988
532.0,1216873650.0,-109.597435,-83.22077942,-76.51747131,-0.019153696,0.11116081,0.17022228,533,1216873650,-166.2287445,-80.19941711,1.142743111,-0.038531058,-0.012418938999999999,-0.015724182
533.0,1216890317.0,-109.5618134,-83.21511078,-76.51983643,-0.009421543000000001,0.12106708,0.16778564,534,1216890317,-166.20805359999997,-80.20491791,1.129965305,-0.019368738,-0.026753439,-0.005393028
534.0,1216906984.0,-109.4865112,-83.20303345,-76.55341339,-0.004050174,0.10936631,0.15372944,535,1216906984,-166.17141719999998,-80.21080017,1.10129261,0.004177499,-0.04626651,-0.00494194
535.0,1216923651.0,-109.42594150000001,-83.18804932,-76.569664,-0.00309635,0.045473848,0.18304634,536,1216923651,-166.1338196,-80.21608734,1.068160415,-0.009712441,-0.031190395,-0.009280205
536.0,1216940318.0,-109.4024887,-83.17642212,-76.55269623,-0.000686,-0.041406814,0.18589401,537,1216940318,-166.0950928,-80.22290039,1.039432764,0.013407202,0.020697467,-0.017692566
537.0,1216956985.0,-109.4386063,-83.1693573,-76.48473358,-0.011363991,-0.12411141,0.15137196,538,1216956985,-166.0568237,-80.22881317,1.016475677,0.021925252000000003,-0.0010268739999999999,-0.016645431999999998
538.0,1216973652.0,-109.51067350000001,-83.16143799,-76.39177704,0.022441392999999997,-0.17565146,0.17810726,539,1216973652,-166.02529909999998,-80.23259735,1.000281692,0.043506145,0.017784758,-0.023561477999999997
539.0,1216990319.0,-109.55443570000001,-83.1559906,-76.33785248,0.03112925,-0.15552755,0.18826675,540,1216990319,-165.9951935,-80.23543549,0.980523825,0.016471026,0.008800655,-0.01703167
540.0,1217006986.0,-109.56880190000001,-83.15180969,-76.326828,0.042619284,-0.1518884,0.18954849,541,1217006986,-165.9832764,-80.23738861,0.96844697,0.03756636,-0.007910905,-0.028315543999999998
541.0,1217023653.0,-109.5396652,-83.14937592,-76.37138367,0.044442944000000005,-0.10066834,0.20779514,542,1217023653,-165.98928830000003,-80.23567963,0.9657658929999999,0.051813095999999996,0.024177117,-0.01763153
542.0,1217040320.0,-109.4684067,-83.15573883,-76.46998596,0.042883053,-0.053693324,0.18575191,543,1217040320,-166.00288390000003,-80.23284149,0.9679149990000001,0.018943233,0.026738462999999997,-0.026661873
543.0,1217056987.0,-109.4303741,-83.16689301,-76.54409790000001,0.050144564,-0.006711085,0.1694479,544,1217056987,-166.0198975,-80.22763062,0.977808714,0.034877498,0.023039995,-0.01000309
544.0,1217073654.0,-109.4546738,-83.17487335,-76.55861664,0.023220867000000003,0.038538873,0.160779,545,1217073654,-166.01620480000003,-80.22346497,0.9703158140000001,0.010770823999999998,0.013152955,0.015133858
545.0,1217090321.0,-109.49343870000001,-83.17906952,-76.5510788,0.013863809,0.09244203,0.16470337,546,1217090321,-166.0171356,-80.21859741,0.970835507,-0.006752012,0.007507744,0.0005070000000000001
546.0,1217106988.0,-109.5668106,-83.1776886,-76.49494934,0.012796848999999999,0.11365553,0.17391396,547,1217106988,-166.019928,-80.21457672,0.9664084909999999,-0.011991337,0.017446248,-0.03209591
547.0,1217123655.0,-109.646286,-83.17352295,-76.41637421,0.008715887,0.11971403,0.1720419,548,1217123655,-166.02346799999998,-80.21055603,0.963933527,-0.015008825,0.026893247000000002,-0.034256935
548.0,1217140322.0,-109.66417690000002,-83.16654968,-76.38365936,0.013305872,0.10758789,0.18043804,549,1217140322,-166.02651980000002,-80.20596313,0.970939875,-0.000118,0.01742641,-0.003881455
549.0,1217156989.0,-109.61533359999999,-83.16026306,-76.40501404,0.001793645,0.07257809,0.18052387,550,1217156989,-166.02076719999997,-80.20230865,0.97212708,-0.006492276,-0.019571353,-0.013981819
550.0,1217173656.0,-109.5301132,-83.15077972,-76.45581055,-0.015414093,0.038365033,0.16790581,551,1217173656,-166.0062256,-80.1987381,0.9685997959999999,0.021445585,-0.019430205,-0.025179862999999997
551.0,1217190323.0,-109.44802859999999,-83.14056396,-76.50003815,-0.027821218999999998,-0.028502617,0.17203903,552,1217190323,-165.98217769999997,-80.19259644,0.961844444,0.04344486400000001,-0.02107269,-0.022888184
552.0,1217206990.0,-109.39447779999999,-83.13050842,-76.51104736,-0.050349865,-0.053358185999999995,0.20084381,553,1217206990,-165.95332340000002,-80.18672943,0.956013918,0.01668828,0.0026303,-0.005127907
553.0,1217223657.0,-109.34722140000001,-83.12508392,-76.51290131,-0.056379847000000004,-0.11396252,0.19488144,554,1217223657,-165.90933230000002,-80.18383789,0.940642476,-0.000802,-0.011901506000000001,-0.007670403
554.0,1217240324.0,-109.30480959999998,-83.12525177,-76.51132202,-0.036440216,-0.11398109,0.17156792,555,1217240324,-165.8679199,-80.18157959,0.9231106640000001,-0.020897882,-0.042038262,-0.017744064
555.0,1217256991.0,-109.2881851,-83.12661743,-76.48760223,-0.015497265,-0.10717910000000001,0.16182613,556,1217256991,-165.8105774,-80.18091583,0.879417419,-0.021147887999999997,-0.0703977,-0.022774696
556.0,1217273658.0,-109.28289790000001,-83.12496948,-76.46304321,-0.029754813999999997,-0.07777158,0.16400814,557,1217273658,-165.7495575,-80.17953491,0.821791053,-0.002570497,-0.013757614,-0.016186713999999998
557.0,1217290325.0,-109.2835159,-83.1192627,-76.44984436,-0.030552594,-0.03327665,0.17347527,558,1217290325,-165.688736,-80.17783356,0.760437727,-0.002248191,0.027807917,-0.03988743
558.0,1217306992.0,-109.26175690000001,-83.11233521,-76.48258972,0.007218692,-0.021854502999999997,0.17891788,559,1217306992,-165.6475372,-80.17687225,0.72589612,0.016458258,0.055068396,-0.022097587999999998
559.0,1217323659.0,-109.2120514,-83.10553741,-76.56217957,0.013083437,-0.00216531,0.21272373,560,1217323659,-165.6196747,-80.17519379,0.7117887740000001,0.019825578,0.014845003999999998,-0.020655632
560.0,1217340326.0,-109.11727909999999,-83.102211,-76.69744109999999,0.05130941,-0.013211641000000001,0.21588135,561,1217340326,-165.59767150000002,-80.17329407,0.698767602,0.04598232,0.009914308,-0.01817131
561.0,1217356993.0,-109.0461044,-83.10357666,-76.81096649,0.07178689999999999,-0.002717914,0.21336174,562,1217356993,-165.59664919999997,-80.16901398,0.693283498,0.020799074,-0.03570938,-0.0033531190000000003
562.0,1217373660.0,-109.0245743,-83.11177063,-76.8680191,0.061646927000000004,0.0010131460000000001,0.1844244,563,1217373660,-165.5980225,-80.16349029999999,0.6759823559999999,-0.015106794,-0.010744771,-0.03186512
563.0,1217390327.0,-109.0343781,-83.12659454,-76.88063049,0.048903015,-0.00043499999999999995,0.18725872,564,1217390327,-165.5992889,-80.16155243,0.6551196579999999,-0.019992696,0.02431575,-0.008563995
564.0,1217406994.0,-109.0165253,-83.14302063,-76.90671539,0.01292506,0.02676406,0.18845654,565,1217406994,-165.6085205,-80.158638,0.648709238,-0.043426535999999995,0.034542699999999996,0.002464294
565.0,1217423661.0,-108.9392853,-83.15349579,-76.98297119,-0.011458622,0.07248778,0.16514969,566,1217423661,-165.61755369999997,-80.15765381,0.6542481179999999,-0.022877682000000003,0.028626812999999997,0.001442909
566.0,1217440328.0,-108.8464966,-83.15318298,-77.06927490000001,-0.02851629,0.12009898599999999,0.15664291,567,1217440328,-165.6266479,-80.15825653,0.6663814779999999,0.006505289,-0.004114706,-0.01290226
567.0,1217456995.0,-108.77450559999998,-83.14368439,-77.12750244,-0.032170523,0.12134244,0.16673851,568,1217456995,-165.6256104,-80.16087341,0.665261626,-0.017833589,-0.038630415,-0.029183387999999998
568.0,1217473662.0,-108.7404785,-83.13835907,-77.13243103,-0.03636182,0.13405606,0.1655035,569,1217473662,-165.6197205,-80.16474915,0.65513736,-0.06259064,-0.018190267,-0.033798218
569.0,1217490329.0,-108.7378235,-83.139328,-77.08512878,-0.022883784,0.15402924,0.18684196,570,1217490329,-165.59883119999998,-80.17248535,0.639192939,-0.08155271,0.054867905,0.0011768339999999999
570.0,1217506996.0,-108.697998,-83.14633942,-77.05221558,-0.024598163,0.20008099999999998,0.18067074,571,1217506996,-165.5897064,-80.18408966,0.66004312,-0.08464841,0.09607978,0.005274773000000001
571.0,1217523663.0,-108.6099319,-83.1524353,-77.05155945,-0.026584886000000002,0.26230392,0.16892147,572,1217523663,-165.5794983,-80.19893646,0.699715555,-0.049580384000000005,0.009586248,-0.018403053
572.0,1217540330.0,-108.5505524,-83.14568329,-77.01361084,0.007061262,0.24268657,0.14329815,573,1217540330,-165.5603943,-80.21775055,0.7238641379999999,0.0022352270000000002,-0.06343622,-0.009581566
573.0,1217556997.0,-108.54633329999999,-83.12354279,-76.91947937,0.02479587,0.18164077,0.18550587,574,1217556997,-165.5319366,-80.23555756,0.7169890999999999,0.04215805,-0.08255747,0.006145477
574.0,1217573664.0,-108.5482635,-83.09845734,-76.82299042,0.043556425999999995,0.06614373,0.21392536,575,1217573664,-165.5014343,-80.25095367,0.6943158509999999,0.07270047,-0.014522811000000002,-0.017137527
575.0,1217590331.0,-108.5257492,-83.07618713,-76.75378418,0.052269094,-0.061628558,0.21098804,576,1217590331,-165.4837494,-80.25898743,0.693861127,0.043058723,0.07442216,-0.030883789
576.0,1217606998.0,-108.53468319999999,-83.06178284,-76.65523529,0.105152436,-0.1975354,0.18615723,577,1217606998,-165.4941254,-80.27175140000001,0.7336137890000001,0.06389024,0.09413075,-0.031899452
577.0,1217623665.0,-108.5809631,-83.05474854,-76.52708435,0.09207534,-0.33580855,0.17842007,578,1217623665,-165.4998779,-80.27834320000001,0.784891248,0.07098263,0.04057833,-0.05626392400000001
578.0,1217640332.0,-108.51856229999999,-83.05654907,-76.51694489,0.08534639,-0.38428807,0.19669056,579,1217640332,-165.51570130000002,-80.28153229,0.8389807340000001,0.08135796,-0.036795932999999996,-0.020593643000000002
579.0,1217656999.0,-108.3153381,-83.06339264,-76.66659546,0.022705102,-0.33586118,0.19504356,580,1217656999,-165.53651430000002,-80.28070831,0.8669586779999999,0.09049996,-0.061250318,0.0031433109999999998
580.0,1217673666.0,-108.1543808,-83.07213593,-76.81954956,-0.008685716,-0.22538938,0.16544533,581,1217673666,-165.57162480000002,-80.27633667,0.88874644,0.09655502,-0.03892506,-0.04151535
581.0,1217690333.0,-108.1019135,-83.08596802,-76.90829468,-0.063289054,-0.22074114,0.18409634,582,1217690333,-165.60411069999998,-80.26659393,0.900455236,0.07279186,0.002394606,-0.039829254
582.0,1217707000.0,-108.1193695,-83.1057663,-76.9618454,-0.083748534,-0.20869735,0.18762302,583,1217707000,-165.6443939,-80.25376129,0.91621846,0.032772817,0.011162014,-0.036406517
583.0,1217723667.0,-108.06395719999999,-83.12682343,-77.11710358,-0.04826691,-0.17184244,0.19666862,584,1217723667,-165.6687622,-80.24178314,0.9078773859999999,0.009734918,-0.044404704,-0.007890701
584.0,1217740334.0,-107.93240359999999,-83.14888763,-77.36199951,-0.002615938,-0.11622183,0.15159798,585,1217740334,-165.6874542,-80.23092651,0.879292548,-0.017509481,-0.07378917,-0.00524807
585.0,1217757001.0,-107.89723970000001,-83.16873169,-77.50165558,-0.004412379,-0.039301895,0.07166386,586,1217757001,-165.6896362,-80.22782898,0.829207957,-0.06883741,-0.038400977999999995,0.006494521999999999
586.0,1217773668.0,-107.99198909999998,-83.17734528,-77.50720978,-0.013445923,0.041971657,0.07624149,587,1217773668,-165.6732941,-80.22575378,0.76643008,-0.044603653,-0.007192926999999999,-0.010205269
587.0,1217790335.0,-108.1331253,-83.17225647,-77.46343231,-0.0682201,0.10871618,0.17049122,588,1217790335,-165.6483459,-80.22559357,0.704864681,-0.02816301,0.013418824,6.87e-05
588.0,1217807002.0,-108.2075653,-83.16542816,-77.47720337,-0.075820304,0.15117757,0.20089245,589,1217807002,-165.6242523,-80.22503662,0.653353393,-0.012889188999999999,-0.000797,-0.030823708
589.0,1217823669.0,-108.24478149999999,-83.16371155,-77.52112579,-0.025295751000000002,0.13898762,0.21365356,590,1217823669,-165.5955963,-80.22518921,0.6046518679999999,-0.007915753000000001,0.0024490320000000003,-0.025698662
590.0,1217840336.0,-108.2918472,-83.16904449,-77.54129791,0.019644774,0.13842203,0.23805237,591,1217840336,-165.5626678,-80.22716522,0.548673987,0.010399451,0.021021337999999997,0.002055168
591.0,1217857003.0,-108.30332179999999,-83.17504883,-77.58151245,0.061582547,0.15436870000000003,0.21316147,592,1217857003,-165.5415955,-80.22509766,0.506977439,0.015941326999999998,0.01928302,-0.009509087
592.0,1217873670.0,-108.2971115,-83.17597198,-77.62047577,0.10098483400000001,0.15328658,0.15329742,593,1217873670,-165.5277405,-80.22332001,0.467768222,0.026344718,0.001039615,-0.007332801999999999
593.0,1217890337.0,-108.3059998,-83.17010498,-77.61401367,0.10923207,0.05683736,0.15028381,594,1217890337,-165.506073,-80.22006989,0.41696101399999996,0.01868129,0.018594882,-0.02909565
594.0,1217907004.0,-108.3243942,-83.1603241,-77.58094025,0.08659709,0.017030567,0.17620659,595,1217907004,-165.49404909999998,-80.21559906,0.378503114,0.03080225,0.010649443,-0.028225899
595.0,1217923671.0,-108.2900085,-83.15097809,-77.60095978,0.05625209999999999,-0.058497507000000004,0.20358944,596,1217923671,-165.484024,-80.20889282,0.347053111,0.07859694,-0.009295122,-0.0185709
596.0,1217940338.0,-108.2424469,-83.14685822,-77.64654541,0.029241145,-0.11052395400000001,0.18338203,597,1217940338,-165.4898376,-80.20106506,0.330886424,-0.003540019,0.02204268,-0.006586075
597.0,1217957005.0,-108.225975,-83.15003204,-77.67332458,0.003059268,-0.09947049599999999,0.17830563,598,1217957005,-165.4976501,-80.19314575,0.323710024,0.0008039999999999999,0.003646949,-0.01840496
598.0,1217973672.0,-108.26511380000001,-83.15625,-77.65595245,0.009814628,-0.08192487,0.17315292,599,1217973672,-165.5020447,-80.18466187,0.320437163,0.017733442,0.014402057,-0.028471947
599.0,1217990339.0,-108.3265533,-83.16075134,-77.623909,0.004699702,-0.063658245,0.1715231,600,1217990339,-165.5178986,-80.17527771,0.325873435,-0.005766907,0.00604977,-0.024965286
600.0,1218007006.0,-108.3658447,-83.15957642,-77.62019348,-0.01076492,-0.05398895,0.16594887,601,1218007006,-165.55187990000002,-80.16387177,0.342732191,0.024168357,-0.0034360090000000003,-0.02413559
601.0,1218023673.0,-108.39000700000001,-83.15845490000001,-77.63788605,-0.004836502,-0.020896485,0.17287349999999999,602,1218023673,-165.59553530000002,-80.15497589,0.36171320100000004,0.01405103,-0.008101283,-0.03309536
