PacketCounter_femur,SampleTimeFine_femur,Euler_X_femur,Euler_Y_femur,Euler_Z_femur,FreeAcc_X_femur,FreeAcc_Y_femur,FreeAcc_Z_femur
1,1208023473,-112.5759201,-82.37860107,-74.09050751,-0.2929091,0.31640464,0.034710884
2,1208040140,-112.7350998,-82.31668854,-73.92288971,-0.25272802,0.19358684,0.17250252
3,1208056807,-112.816803,-82.25800323,-73.83943176,-0.2050431,0.034709956,0.30366707
4,1208073474,-112.8445587,-82.22724152,-73.80806732,-0.1074561,-0.151469,0.29998302
5,1208090141,-112.8729706,-82.22655487,-73.75994873,0.004123165,-0.2524493,0.22895527
6,1208106808,-112.9511032,-82.24450684,-73.63031006,0.057877157,-0.20312932,0.15208817
7,1208123475,-113.0688629,-82.26908875,-73.42734528,0.018411314,-0.037042014,0.17241001
8,1208140142,-113.1199646,-82.29658508,-73.28145599,-0.0877905,0.17563428,0.24558163
9,1208156809,-113.0218048,-82.32324982,-73.31063843,-0.18175453,0.325041,0.3093605
10,1208173476,-112.7770996,-82.34429932,-73.51713562,-0.20823367,0.32940602,0.32600403
11,1208190143,-112.4663925,-82.36465454,-73.81570435,-0.12756874,0.23799509,0.27218723
12,1208206810,-112.2109985,-82.38513947,-74.06241608,0.029097965,0.11249245,0.1836443
13,1208223477,-112.0387421,-82.39408875,-74.20581818,0.18833528,-0.027373845,0.14727783
14,1208240144,-111.8757401,-82.39751434,-74.29914093,0.2697564,-0.09556933,0.15968037
15,1208256811,-111.7059021,-82.40234375,-74.349823,0.29475704,-0.17407611,0.13154411
16,1208273478,-111.5621796,-82.40266418,-74.34191132,0.27310073,-0.28061816,0.1997652
17,1208290145,-111.4015884,-82.4070282,-74.35175323,0.2493484,-0.34526086,0.2326107
18,1208306812,-111.2471848,-82.42451477,-74.400177,0.21778962,-0.44572538,0.23951626
19,1208323479,-111.0418472,-82.4593277,-74.56191254,0.19512878,-0.5185049,0.2682476
20,1208340146,-110.7380219,-82.52153015,-74.87600708,0.20799579,-0.52119553,0.21543694
21,1208356813,-110.366127,-82.59710693,-75.30622101,0.16544628,-0.40375698,0.15923977
22,1208373480,-109.9914398,-82.66666412,-75.77207184,0.06327603,-0.27127892,0.124619484
23,1208390147,-109.665184,-82.73178101,-76.19522858,-0.053131368,-0.11307698,0.10321045
24,1208406814,-109.4625473,-82.79094696,-76.4824295,-0.11745072,0.024419283,0.06734276
25,1208423481,-109.3614883,-82.83004761,-76.65174103,-0.13771659,0.15837821,0.0479002
26,1208440148,-109.2577133,-82.84368896,-76.80584717,-0.12442887,0.29585782,0.03719139
27,1208456815,-109.1794586,-82.82987976,-76.9262085,-0.12746239,0.33195227,0.050865173
28,1208473482,-109.2125244,-82.80810547,-76.93145752,-0.11440112,0.28612274,0.08808899
29,1208490149,-109.3883667,-82.79072571,-76.78918457,-0.089708336,0.16316915,0.035629272
30,1208506816,-109.7308807,-82.75606537,-76.4833374,-0.040166024,-0.004521569,-0.04456997
31,1208523483,-110.18396,-82.68217468,-76.08193207,0.010072853,-0.1332111,-0.00863266
32,1208540150,-110.6772842,-82.58171844,-75.66204834,0.09018735,-0.2521364,0.04510498
33,1208556817,-111.2387314,-82.47605896,-75.19570923,0.15286873,-0.3807931,0.081264496
34,1208573484,-111.861702,-82.37404633,-74.6869278,0.19062193,-0.46926948,0.17351913
35,1208590151,-112.4858932,-82.28912354,-74.18999481,0.21642749,-0.50660235,0.224329
36,1208606818,-113.1360016,-82.22118378,-73.67899323,0.23473294,-0.49419227,0.25416183
37,1208623485,-113.7228088,-82.16667175,-73.24459839,0.23136759,-0.33032224,0.38066578
38,1208640152,-114.1334152,-82.13912964,-72.99184418,0.24117425,-0.081366815,0.464118
39,1208656819,-114.3728027,-82.14629364,-72.89888,0.28664586,0.14049633,0.45961475
40,1208673486,-114.4995728,-82.19430542,-72.87944794,0.27411237,0.3179223,0.3960333
41,1208690153,-114.4981689,-82.27558899,-72.92169952,0.17931959,0.44514203,0.27179718
42,1208706820,-114.3129578,-82.35401917,-73.07494354,0.004081228,0.6240197,0.16552448
43,1208723487,-114.0148468,-82.40319824,-73.27996826,-0.23178324,0.77203476,0.09845829
44,1208740154,-113.7957611,-82.41446686,-73.37241364,-0.45307252,0.76385003,0.067344666
45,1208756821,-113.6815872,-82.38467407,-73.34786224,-0.6239657,0.6355136,0.10971832
46,1208773488,-113.5876923,-82.3253479,-73.30382538,-0.63451743,0.41392812,0.14822483
47,1208790155,-113.4886475,-82.25782776,-73.2748642,-0.5200282,0.11059457,0.16244984
48,1208806822,-113.4504852,-82.20326233,-73.19774628,-0.3449437,-0.21357295,0.16154003
49,1208823489,-113.4637375,-82.174263,-73.09168243,-0.21137322,-0.4075773,0.18704414
50,1208840156,-113.4789581,-82.17015839,-73.01858521,-0.119814746,-0.40591735,0.18293571
51,1208856823,-113.5236282,-82.17825317,-72.96098328,-0.11034478,-0.30272886,0.15861797
52,1208873490,-113.6767197,-82.18739319,-72.84329224,-0.12154575,-0.16705647,0.14824867
53,1208890157,-113.8832703,-82.19397736,-72.71968842,-0.16853826,-0.029393839,0.2139883
54,1208906824,-113.9787216,-82.20900726,-72.74513245,-0.18124355,0.08033898,0.28650856
55,1208923491,-113.863266,-82.23888397,-72.99991608,-0.17119427,0.17237593,0.2839222
56,1208940158,-113.5246582,-82.2806015,-73.46894073,-0.075908326,0.25043362,0.2946415
57,1208956825,-112.9906845,-82.3252182,-74.11659241,-0.018578006,0.2521015,0.24854946
58,1208973492,-112.4186935,-82.36959076,-74.77837372,0.03965699,0.22960083,0.13402271
59,1208990159,-112.0433044,-82.39847565,-75.20066071,0.06247556,0.19730283,0.026583672
60,1209006826,-111.9429398,-82.40167999,-75.29923248,0.037379727,0.13542224,-0.001234055
61,1209023493,-112.0833588,-82.3736496,-75.12231445,0.0671201,0.071877226,0.09743023
62,1209040160,-112.1926727,-82.33794403,-74.97647095,0.22750472,-0.059402864,0.19991589
63,1209056827,-112.033165,-82.31356812,-75.11276245,0.3277261,-0.21492189,0.22004604
64,1209073494,-111.6402664,-82.30381775,-75.47582245,0.35055378,-0.29759473,0.15781021
65,1209090161,-111.4049149,-82.29393005,-75.67578125,0.29630905,-0.35964325,0.094080925
66,1209106828,-111.5550613,-82.2869339,-75.4909668,0.28494152,-0.41424367,0.12850666
67,1209123495,-111.8858871,-82.29449463,-75.11521149,0.2813977,-0.41861272,0.20831776
68,1209140162,-112.1409073,-82.30262756,-74.80049133,0.24283364,-0.24196708,0.21849251
69,1209156829,-112.1690445,-82.30915833,-74.72950745,0.21734014,-0.011896098,0.212224
70,1209173496,-112.1349792,-82.31497192,-74.7419281,0.17448826,0.13408822,0.18251419
71,1209190163,-112.238678,-82.31584167,-74.60974884,0.03203021,0.17058945,0.1656332
72,1209206830,-112.3314896,-82.31034851,-74.4712677,-0.06877349,0.18071786,0.22708797
73,1209223497,-112.2919464,-82.30274963,-74.44885254,-0.11614273,0.17414005,0.24403381
74,1209240164,-112.184433,-82.29943848,-74.46679688,-0.11840473,0.16212031,0.18696499
75,1209256831,-112.1084747,-82.29261017,-74.41680908,-0.08093281,0.16090734,0.11284351
76,1209273498,-112.13237,-82.27890015,-74.23192596,-0.06279999,0.18877335,0.11030388
77,1209290165,-112.2171783,-82.26020813,-73.96739197,-0.06867744,0.19040532,0.1441164
78,1209306832,-112.342392,-82.23919678,-73.66201019,-0.07546367,0.128595,0.14290524
79,1209323499,-112.4749374,-82.21177673,-73.36923981,-0.090016164,0.035901323,0.15687752
80,1209340166,-112.5941772,-82.18121338,-73.11930847,-0.11791846,-0.008527061,0.17456245
81,1209356833,-112.6845474,-82.15386963,-72.92813873,-0.12427168,-0.06759846,0.1639328
82,1209373500,-112.7583771,-82.132164,-72.77024841,-0.09497692,-0.100923285,0.20639896
83,1209390167,-112.7891998,-82.1239624,-72.66252136,-0.062681094,-0.07213022,0.25341034
84,1209406834,-112.7483826,-82.12937164,-72.62652588,-0.028487775,-0.050295673,0.2760725
85,1209423501,-112.6541824,-82.14992523,-72.64516449,-0.05355451,0.008987637,0.2673788
86,1209440168,-112.534584,-82.18212128,-72.69216156,-0.04143669,0.06693003,0.2494173
87,1209456835,-112.4061584,-82.22107697,-72.75266266,-0.07816033,0.12392243,0.20488167
88,1209473502,-112.3001633,-82.26450348,-72.79870605,-0.08784572,0.18176194,0.16893005
89,1209490169,-112.2103348,-82.30517578,-72.83430481,-0.095438376,0.20242412,0.15242767
90,1209506836,-112.0935364,-82.33538055,-72.88778687,-0.112844355,0.18902983,0.15809822
91,1209523503,-111.9192276,-82.34873199,-72.98760223,-0.08833075,0.16500942,0.15465832
92,1209540170,-111.7374191,-82.34996796,-73.09087372,-0.0898476,0.09205532,0.16584587
93,1209556837,-111.6494598,-82.35055542,-73.10068512,-0.046023138,-0.02147574,0.13254356
94,1209573504,-111.6812515,-82.35394287,-72.99269867,0.004767224,-0.14616495,0.10733795
95,1209590171,-111.7932968,-82.36120605,-72.81212616,0.05171124,-0.23995861,0.10529423
96,1209606838,-111.8787689,-82.36629486,-72.67027283,0.0777487,-0.2626942,0.1025877
97,1209623505,-111.933075,-82.36704254,-72.58782959,0.09103536,-0.2428811,0.12401104
98,1209640172,-112.0340881,-82.36439514,-72.49558258,0.074684635,-0.20598665,0.13203621
99,1209656839,-112.2007065,-82.36223602,-72.37996674,0.08410437,-0.1948676,0.1737051
100,1209673506,-112.3625565,-82.36238861,-72.30670929,0.067799725,-0.17954545,0.2794428
101,1209690173,-112.4773865,-82.37849426,-72.30072784,0.0511551,-0.13440938,0.28738213
102,1209706840,-112.5839462,-82.41433716,-72.3042984,0.075110726,-0.06751875,0.2222786
103,1209723507,-112.6798172,-82.45363617,-72.29943848,0.06415924,0.01116867,0.18742752
104,1209740174,-112.7061386,-82.48947906,-72.32822418,0.04682495,0.11159281,0.17198944
105,1209756841,-112.6593323,-82.51557159,-72.39387512,0.02367909,0.18802446,0.126441
106,1209773508,-112.6392212,-82.52577209,-72.40341949,-0.022323288,0.20979948,0.09710121
107,1209790175,-112.646347,-82.51982117,-72.36417389,-0.064108856,0.19162694,0.15290356
108,1209806842,-112.6185226,-82.51056671,-72.34265137,-0.1118479,0.15429932,0.19717312
109,1209823509,-112.5215225,-82.50315094,-72.37864685,-0.11732764,0.09939823,0.19858551
110,1209840176,-112.4145584,-82.4954071,-72.4238205,-0.08255766,0.010061136,0.1609745
111,1209856843,-112.3404083,-82.48579407,-72.4367218,-0.07042318,-0.121977165,0.12508774
112,1209873510,-112.3495407,-82.45678711,-72.36519623,-0.092856325,-0.28761527,0.12433338
113,1209890177,-112.2753906,-82.45420837,-72.39988708,-0.10797182,-0.13117054,0.17286015
114,1209906844,-112.6485291,-82.46154785,-72.08985138,0.13819654,-0.14122312,0.17648697
115,1209923511,-113.0593262,-82.4664917,-71.76870728,0.12552746,-0.08665923,0.28244114
116,1209940178,-113.131813,-82.48085785,-71.75553131,0.042961996,-0.04874703,0.26086712
117,1209956845,-112.9934692,-82.49321747,-71.94065094,0.014679783,-0.01751486,0.18747139
118,1209973512,-112.8444519,-82.50074768,-72.15528107,0.005226621,0.00148129,0.15280342
119,1209990179,-112.8408356,-82.51069641,-72.25205231,0.043883268,0.012378385,0.19000435
120,1210006846,-112.945137,-82.52748108,-72.24656677,0.02681617,0.013099319,0.16427708
121,1210023513,-113.0453186,-82.53675842,-72.23177338,0.043595623,-0.014749724,0.107910156
122,1210040180,-113.1242752,-82.52947998,-72.20947266,0.03603258,-0.014172775,0.12587452
123,1210056847,-113.1975327,-82.51982117,-72.17842102,-0.007921406,-0.004433491,0.20500755
124,1210073514,-113.256546,-82.52523041,-72.16619873,-0.043007705,-0.03566789,0.2619171
125,1210090181,-113.2292023,-82.54580688,-72.23892212,-0.06251021,-0.026555857,0.24973488
126,1210106848,-113.1096115,-82.57357788,-72.39160156,-0.10115321,8.77E-04,0.17774868
127,1210123515,-112.9325409,-82.5982132,-72.58460236,-0.07247576,0.022752305,0.12565517
128,1210140182,-112.7785263,-82.61682129,-72.75353241,-0.03364055,0.06475597,0.13287163
129,1210156849,-112.6819382,-82.63148499,-72.86846161,0.006685035,0.1733916,0.19027042
130,1210173516,-112.6235886,-82.64814758,-72.94096375,-0.035471436,0.20934252,0.19633865
131,1210190183,-112.5902252,-82.66139221,-72.97444916,-0.040251542,0.21382393,0.19351864
132,1210206850,-112.5225677,-82.67113495,-73.01702118,-0.03277613,0.16391161,0.20054913
133,1210223517,-112.3865814,-82.68112183,-73.1107254,0.003015596,0.0899324,0.21691513
134,1210240184,-112.1687546,-82.69379425,-73.28829193,0.042589244,0.024278438,0.19456959
135,1210256851,-111.9432144,-82.7028656,-73.48230743,0.025712905,-0.030521233,0.14473534
136,1210273518,-111.7736664,-82.70806122,-73.6214447,-0.024570705,-0.114925586,0.13192463
137,1210290185,-111.6814346,-82.7108078,-73.67880249,-0.07195182,-0.16861181,0.15180111
138,1210306852,-111.6830521,-82.71508789,-73.63607025,-0.105829634,-0.19700252,0.15750027
139,1210323519,-111.7117996,-82.7223053,-73.56529236,-0.069148645,-0.15966679,0.14470005
140,1210340186,-111.7495193,-82.72875214,-73.48934174,-0.012520995,-0.087531224,0.13789558
141,1210356853,-111.7848434,-82.73196411,-73.42834473,0.015146102,-0.008801808,0.13521194
142,1210373520,-111.7578049,-82.7336731,-73.45012665,0.05836542,0.040730905,0.16972256
143,1210390187,-111.6449585,-82.7332077,-73.5839386,0.0500793,0.07964602,0.17346573
144,1210406854,-111.5207977,-82.73034668,-73.74654388,0.059103575,0.04696962,0.16435242
145,1210423521,-111.5040665,-82.72244263,-73.80084229,0.03659661,0.019949049,0.16065693
146,1210440188,-111.6268692,-82.7114563,-73.70378113,-0.004782381,0.003216233,0.19859791
147,1210456855,-111.7691879,-82.70580292,-73.56726074,-0.01253345,-0.012516698,0.22539425
148,1210473522,-111.8512802,-82.70962524,-73.48283386,-0.009764337,-0.033367533,0.23488903
149,1210490189,-111.8106308,-82.71753693,-73.5223465,0.017914064,-0.007733904,0.19026661
150,1210506856,-111.7069778,-82.72589874,-73.63154602,0.045205124,0.002255253,0.14979076
151,1210523523,-111.6189957,-82.73096466,-73.72476196,0.07258802,0.008872018,0.16843224
152,1210540190,-111.5699463,-82.73625946,-73.77371979,0.045821264,0.007234751,0.18823624
153,1210556857,-111.5283966,-82.74585724,-73.80744171,0.042975605,0.008282454,0.17374325
154,1210573524,-111.5135269,-82.75380707,-73.81138611,0.002255886,0.020599185,0.17155075
155,1210590191,-111.5406036,-82.7589035,-73.77431488,-0.038191088,0.065071315,0.14565945
156,1210606858,-111.587059,-82.75904083,-73.72920227,-0.08019168,0.040476944,0.14725018
157,1210623525,-111.6262665,-82.75540924,-73.70455933,-0.099271774,-0.01378359,0.17239094
158,1210640192,-111.615036,-82.75481415,-73.74373627,-0.103126734,-0.025545761,0.20478153
159,1210656859,-111.5654221,-82.76229095,-73.82723236,-0.08795979,-0.051088087,0.20022011
160,1210673526,-111.5216522,-82.77379608,-73.90215302,-0.044716135,-0.00692163,0.18423176
161,1210690193,-111.5024414,-82.7798233,-73.95107269,0.001685743,0.037498273,0.15634537
162,1210706860,-111.5314636,-82.78275299,-73.94650269,0.035392787,0.057435594,0.14683056
163,1210723527,-111.5926132,-82.78406525,-73.90093994,0.0673391,0.03347735,0.17014694
164,1210740194,-111.6292648,-82.78430939,-73.86912537,0.0853906,-0.009564008,0.16915417
165,1210756861,-111.6077957,-82.78251648,-73.88951111,0.057246696,-0.027304143,0.17257214
166,1210773528,-111.5715408,-82.7793045,-73.92192841,0.038822062,-0.027342092,0.17153263
167,1210790195,-111.559639,-82.77710724,-73.9274826,0.022363232,-0.025858674,0.1934948
168,1210806862,-111.5502625,-82.77832794,-73.93530273,0.004251523,-0.025807139,0.218956
169,1210823529,-111.4888611,-82.7826004,-74.00001526,4.68E-04,-0.044468362,0.21260166
170,1210840196,-111.4279633,-82.78912354,-74.06747437,0.003372373,-0.060009036,0.19226837
171,1210856863,-111.405632,-82.79655457,-74.09488678,0.017712632,-0.05988098,0.16979313
172,1210873530,-111.3750076,-82.80775452,-74.12540436,-0.006613507,-0.04893441,0.17680359
173,1210890197,-111.3217697,-82.81944275,-74.17956543,-0.019666914,0.009048776,0.14974785
174,1210906864,-111.277977,-82.82657623,-74.22299957,-0.018824356,0.06433062,0.1436348
175,1210923531,-111.2696991,-82.82909393,-74.22663116,-0.017364139,0.07900223,0.15030861
176,1210940198,-111.2892761,-82.82597351,-74.20262909,-0.030134408,0.09813033,0.18542099
177,1210956865,-111.3072815,-82.82086182,-74.17736053,-0.023805931,0.064266376,0.1987524
178,1210973532,-111.2919312,-82.81768799,-74.18627167,-0.026060214,0.057439316,0.18730354
179,1210990199,-111.2544479,-82.81954956,-74.21826935,0.008020311,0.003907872,0.16719437
180,1211006866,-111.1855011,-82.81990051,-74.2800827,0.022553459,-0.033562344,0.13977242
181,1211023533,-111.1404266,-82.81394958,-74.31483459,-0.002791654,-0.062051352,0.187603
182,1211040200,-111.118248,-82.81012726,-74.32606506,-0.00404319,-0.06402005,0.19347572
183,1211056867,-111.1301727,-82.80953217,-74.30991364,3.87E-04,-0.055790093,0.16908741
184,1211073534,-111.1778488,-82.80873871,-74.26734924,0.005462624,-0.028554045,0.15054512
185,1211090201,-111.2241821,-82.80696869,-74.23859406,-0.001883851,-0.018102335,0.1502409
186,1211106868,-111.2737656,-82.79916382,-74.20448303,0.00905843,-0.02317232,0.16086292
187,1211123535,-111.3189545,-82.78999329,-74.17399597,0.018708402,-0.002892544,0.18746567
188,1211140202,-111.3610687,-82.78311157,-74.14175415,0.021299196,0.004202176,0.22812843
189,1211156869,-111.3951035,-82.78162384,-74.11646271,0.053290322,0.012619088,0.2106638
190,1211173536,-111.4216537,-82.78827667,-74.10309601,0.044130474,0.007131558,0.16729069
191,1211190203,-111.4364777,-82.79688263,-74.10729218,1.55E-04,0.020113064,0.14672852
192,1211206870,-111.4525299,-82.80091095,-74.11705017,0.004797982,-0.009921765,0.11963463
193,1211223537,-111.4619598,-82.7883606,-74.13554382,-0.04171663,-0.020920347,0.20437336
194,1211240204,-111.4642181,-82.78033447,-74.1607132,-0.05654025,-0.003967889,0.23513985
195,1211256871,-111.5036926,-82.78354645,-74.14849854,-0.007435024,-0.013250064,0.19522762
196,1211273538,-111.5690384,-82.79320526,-74.10003662,0.01394843,-0.003502074,0.20351982
197,1211290205,-111.5623703,-82.8082428,-74.10332489,0.037072957,0.020427212,0.16311455
198,1211306872,-111.4964447,-82.81963348,-74.1500473,0.033201255,0.05606563,0.149539
199,1211323539,-111.4668121,-82.82679749,-74.1493988,-0.039310627,0.10163359,0.15569592
200,1211340206,-111.5077286,-82.82840729,-74.07881165,-0.04857205,0.09405007,0.15564251
201,1211356873,-111.5797272,-82.82424927,-73.98252106,-0.04004744,0.1313523,0.1675291
202,1211373540,-111.5939255,-82.81320953,-73.9420929,0.023312273,0.08868737,0.15961933
203,1211390207,-111.6004791,-82.79761505,-73.89823151,0.09000637,0.04342759,0.15385342
204,1211406874,-111.630661,-82.78126526,-73.81043243,0.10531107,0.009171791,0.17455387
205,1211423541,-111.662796,-82.77001953,-73.71025848,0.08659687,-0.045342878,0.1999321
206,1211440208,-111.6683655,-82.7631073,-73.64404297,0.00330311,-0.10672099,0.19533348
207,1211456875,-111.6709518,-82.75782776,-73.60285187,-0.03521031,-0.17625009,0.17681122
208,1211473542,-111.6995468,-82.75405121,-73.56752014,-0.03712196,-0.17774792,0.16593361
209,1211490209,-111.7546158,-82.75332642,-73.53192902,-0.0197052,-0.18015526,0.17252445
210,1211506876,-111.8256149,-82.75527954,-73.49331665,0.007779803,-0.1417671,0.17899513
211,1211523543,-111.9016113,-82.75846863,-73.45368958,0.02092817,-0.08030071,0.2107439
212,1211540210,-111.9425812,-82.7649765,-73.44096375,-0.018036442,0.008542386,0.20742989
213,1211556877,-111.9380951,-82.78107452,-73.46700287,0.003345607,0.08470912,0.17661762
214,1211573544,-111.9472275,-82.79750824,-73.47956848,-0.004574469,0.13231531,0.13713837
215,1211590211,-112.0127335,-82.80565643,-73.43959808,-0.019209338,0.17334142,0.13322735
216,1211606878,-112.1002731,-82.79933167,-73.38400269,-0.045601547,0.17890938,0.14630318
217,1211623545,-112.1820602,-82.78148651,-73.33917999,-0.06757118,0.13227066,0.17314053
218,1211640212,-112.2432327,-82.76158905,-73.31695557,-0.06771369,0.05525665,0.18405247
219,1211656879,-112.3332138,-82.74393463,-73.25724792,-0.052589457,-0.059300598,0.16818619
220,1211673546,-112.4267731,-82.72994232,-73.17778015,-0.02827285,-0.12899093,0.20069408
221,1211690213,-112.4881592,-82.72446442,-73.10728455,0.003497683,-0.117900066,0.20097828
222,1211706880,-112.5193634,-82.72457123,-73.05828857,0.00332402,-0.087250166,0.19821739
223,1211723547,-112.565918,-82.7284317,-72.99478149,-0.008500859,-0.036102403,0.1966734
224,1211740214,-112.5981445,-82.7325058,-72.95782471,0.008351013,-0.007755683,0.19445801
225,1211756881,-112.6099396,-82.7365036,-72.95631409,0.04974321,0.001519923,0.18506622
226,1211773548,-112.6147308,-82.73818207,-72.9661026,0.07944918,-0.032682512,0.17094707
227,1211790215,-112.5939865,-82.73990631,-72.99009705,0.07594508,-0.032214224,0.15960121
228,1211806882,-112.5552216,-82.73990631,-73.021492,0.0809154,-0.037092607,0.13761425
229,1211823549,-112.5367813,-82.73453522,-73.03723907,0.021995155,-0.03564755,0.13171768
230,1211840216,-112.5417328,-82.72457123,-73.04045868,-0.042563085,-0.023599654,0.14596748
231,1211856883,-112.5764465,-82.71366119,-73.03401184,-0.083677985,-0.060293898,0.16935444
232,1211873550,-112.6279831,-82.70612335,-73.02819824,-0.088438146,-0.05004471,0.20090294
233,1211890217,-112.6877213,-82.70357513,-73.02243042,-0.057562295,-0.033319358,0.1995039
234,1211906884,-112.7797318,-82.70774078,-72.98077393,-0.041411035,0.016299134,0.17527294
235,1211923551,-112.9284668,-82.71311951,-72.86872864,-0.010793028,0.05989682,0.15924835
236,1211940218,-113.0626526,-82.71511841,-72.75579071,-0.003098151,0.114429235,0.18154526
237,1211956885,-113.1222687,-82.7145462,-72.70932007,0.022485083,0.174375,0.17157555
238,1211973552,-113.1171875,-82.70903015,-72.72249603,0.044298872,0.18043943,0.18883324
239,1211990219,-113.0650024,-82.70220184,-72.77350616,0.033910815,0.18209945,0.23080826
240,1212006886,-113.0056686,-82.70139313,-72.81598663,0.03628286,0.17487237,0.24207878
241,1212023553,-112.9453125,-82.70884705,-72.83590698,0.031746823,0.1469264,0.22894001
242,1212040220,-112.8693924,-82.72392273,-72.83890533,-7.71E-04,0.107657224,0.1863718
243,1212056887,-112.783577,-82.74058533,-72.82971954,-0.046450917,0.051087987,0.12493992
244,1212073554,-112.7088928,-82.74459076,-72.80010223,-0.09651346,-0.021929009,0.096652985
245,1212090221,-112.6635361,-82.73526764,-72.74919891,-0.16794944,-0.08925855,0.11994171
246,1212106888,-112.6422348,-82.71549225,-72.69402313,-0.18087189,-0.1260816,0.16273212
247,1212123555,-112.6633072,-82.69685364,-72.62580872,-0.14753848,-0.15824185,0.18543434
248,1212140222,-112.7250824,-82.68203735,-72.5491333,-0.044152815,-0.18554193,0.16742802
249,1212156889,-112.8178635,-82.67102814,-72.46570587,0.044075485,-0.19559705,0.16307068
250,1212173556,-112.9083786,-82.66014099,-72.40029144,0.13558008,-0.21139017,0.16102695
251,1212190223,-112.9829636,-82.64932251,-72.36537933,0.16649617,-0.18027793,0.1649437
252,1212206890,-113.0371552,-82.64157867,-72.36558533,0.19149193,-0.13559349,0.1817627
253,1212223557,-113.1003723,-82.64019775,-72.37071991,0.1533447,-0.08708889,0.20393848
254,1212240224,-113.2094116,-82.641716,-72.33419037,0.124778174,-0.029262861,0.24584103
255,1212256891,-113.2767715,-82.6495285,-72.33921051,0.058294598,0.013431613,0.252285
256,1212273558,-113.2698669,-82.66387939,-72.40716553,0.010189674,0.07448804,0.23740292
257,1212290225,-113.2376251,-82.68088531,-72.48046875,-0.011657759,0.12772729,0.17092133
258,1212306892,-113.2213135,-82.69577789,-72.5167923,-0.023431368,0.17577869,0.15518093
259,1212323559,-113.1996078,-82.70593262,-72.53864288,-0.047841743,0.2063344,0.14309406
260,1212340226,-113.1774673,-82.70768738,-72.5480423,-0.045055762,0.20589402,0.12736702
261,1212356893,-113.1985779,-82.69927216,-72.50254822,-0.041631613,0.1618984,0.14610195
262,1212373560,-113.2538452,-82.68549347,-72.41391754,-0.030281805,0.10727799,0.16619015
263,1212390227,-113.3317032,-82.67300415,-72.30049896,-0.020688966,0.031954695,0.1899271
264,1212406894,-113.38414,-82.66441345,-72.22006989,-0.005178959,-0.02573884,0.18321323
265,1212423561,-113.3962555,-82.66043091,-72.19104004,-0.013534382,-0.049539823,0.19053936
266,1212440228,-113.4002838,-82.65891266,-72.18015289,-0.017290358,-0.084902346,0.19927025
267,1212456895,-113.4091339,-82.66120148,-72.17175293,-0.029460428,-0.10956876,0.20263863
268,1212473562,-113.4224701,-82.66968536,-72.16723633,-0.06641277,-0.09777615,0.19386864
269,1212490229,-113.4604416,-82.67986298,-72.14200592,-0.0735763,-0.058774114,0.17617035
270,1212506896,-113.5143814,-82.68732452,-72.09848022,-0.045550026,-0.001167104,0.17738152
271,1212523563,-113.5469437,-82.69335938,-72.07211304,-0.05324058,0.065435976,0.17621708
272,1212540230,-113.5467224,-82.69719696,-72.08205414,-0.03447366,0.11624852,0.17940807
273,1212556897,-113.5198441,-82.69714355,-72.11603546,-0.016948033,0.094662674,0.17035961
274,1212573564,-113.5163651,-82.69483948,-72.11883545,-0.010610499,0.06941378,0.17709446
275,1212590231,-113.5283279,-82.69145203,-72.09709167,0.00438593,0.029990567,0.17615414
276,1212606898,-113.5530319,-82.68869019,-72.05604553,-0.008645942,0.008458841,0.16547108
277,1212623565,-113.5998459,-82.68453217,-71.99060822,-0.017977843,-0.018985512,0.17287064
278,1212640232,-113.6283112,-82.68254089,-71.94611359,-0.016878843,-0.055064317,0.16731071
279,1212656899,-113.6301346,-82.68200684,-71.93615723,-0.050120942,-0.068337776,0.18607426
280,1212673566,-113.6007614,-82.67962646,-71.97131348,-0.047354676,-0.06560398,0.19514847
281,1212690233,-113.5589905,-82.68136597,-72.03255463,-0.057193946,-0.07665374,0.20318985
282,1212706900,-113.5202103,-82.68782806,-72.09902191,-0.04846419,-0.08810364,0.19010258
283,1212723567,-113.5167923,-82.70179749,-72.1256485,-0.028170682,-0.047086686,0.16313648
284,1212740234,-113.5461349,-82.71600342,-72.11598206,1.46E-04,-0.001373857,0.14426422
285,1212756901,-113.5824509,-82.72013092,-72.08904266,0.013929698,0.05410764,0.15130997
286,1212773568,-113.5871964,-82.71614075,-72.087677,0.01632694,0.0850673,0.17343998
287,1212790235,-113.5608521,-82.70684814,-72.11938477,0.013621891,0.08556301,0.210639
288,1212806902,-113.4938126,-82.70144653,-72.18989563,0.02492183,0.061431907,0.20221233
289,1212823569,-113.4199982,-82.70149994,-72.26648712,0.030585034,0.001344602,0.18215275
290,1212840236,-113.3753815,-82.70693207,-72.30326843,0.035578646,-0.041602038,0.18611908
291,1212856903,-113.3644333,-82.71263885,-72.295578,0.022375414,-0.06923471,0.17422867
292,1212873570,-113.3565216,-82.71820831,-72.28082275,-0.005902733,-0.035222877,0.16776085
293,1212890237,-113.349617,-82.72184753,-72.27133179,-0.021622244,-0.003892259,0.1558094
294,1212906904,-113.3430405,-82.72106934,-72.277565,-0.057233665,0.003721463,0.16898441
295,1212923571,-113.3251343,-82.71767426,-72.31009674,-0.057406783,-0.005559099,0.18337345
296,1212940238,-113.2843704,-82.71589661,-72.37901306,-0.04305922,-0.017216092,0.16186905
297,1212956905,-113.2612762,-82.71616364,-72.43583679,-0.02388424,-0.0500912,0.17281914
298,1212973572,-113.2605591,-82.72020721,-72.46247101,-0.003821304,-0.042810895,0.18888855
299,1212990239,-113.2659988,-82.72651672,-72.47428131,0.010181911,-0.02895508,0.18000698
300,1213006906,-113.2643661,-82.73188019,-72.48604584,0.012707789,0.00886569,0.17109585
301,1213023573,-113.2659302,-82.73445129,-72.48783875,0.029258715,0.074904405,0.17012405
302,1213040240,-113.2755432,-82.73615265,-72.47454071,-0.004107382,0.087360024,0.18208313
303,1213056907,-113.2692871,-82.73558807,-72.47316742,-0.004692788,0.07402376,0.17829132
304,1213073574,-113.2310028,-82.73370361,-72.50131989,0.012922827,0.038529925,0.19252777
305,1213090241,-113.1710434,-82.73023987,-72.54950714,0.01708205,0.015241234,0.18590927
306,1213106908,-113.1051712,-82.72805023,-72.60429382,0.032738544,-0.027435314,0.19808865
307,1213123575,-113.0570068,-82.73191071,-72.64152527,0.026906595,-0.056341264,0.2080307
308,1213140242,-113.0254211,-82.74276733,-72.66615295,0.018057797,-0.07647185,0.18142986
309,1213156909,-112.9851074,-82.75671387,-72.70252228,-0.004643708,-0.051556885,0.17371845
310,1213173576,-112.9276886,-82.77191925,-72.75914764,-0.031100916,-0.02310933,0.18112278
311,1213190243,-112.8344498,-82.78523254,-72.85447693,-0.07292551,0.033853408,0.17713451
312,1213206910,-112.732605,-82.79857635,-72.96592712,-0.06670194,0.07845212,0.16626167
313,1213223577,-112.6461639,-82.80764771,-73.0699234,-0.07974702,0.09354004,0.17439365
314,1213240244,-112.5765533,-82.81649017,-73.15705109,-0.064887695,0.09722554,0.18059921
315,1213256911,-112.5463028,-82.82791901,-73.19604492,-0.05156132,0.07074855,0.14925575
316,1213273578,-112.545639,-82.83661652,-73.1884079,-0.016891401,0.055685848,0.16502857
317,1213290245,-112.4873734,-82.84319305,-73.22000122,0.010542164,0.06486544,0.16949177
318,1213306912,-112.3866653,-82.84379578,-73.28474426,0.021255208,0.060044575,0.17369938
319,1213323579,-112.2897491,-82.84185028,-73.34162903,-0.00715213,0.04556412,0.17549706
320,1213340246,-112.2071686,-82.84121704,-73.38817596,-0.005242359,-0.001592317,0.19423962
321,1213356913,-112.125473,-82.84310913,-73.44226074,-0.027405072,-0.049374998,0.20456886
322,1213373580,-112.0392609,-82.84835052,-73.50752258,-0.003243778,-0.087702975,0.20242214
323,1213390247,-111.957283,-82.85834503,-73.57254791,0.013125997,-0.09335202,0.20021725
324,1213406914,-111.8707657,-82.870224,-73.6421814,0.034522448,-0.090582445,0.17272472
325,1213423581,-111.7481766,-82.87913513,-73.75371552,0.018455356,-0.07250274,0.1712656
326,1213440248,-111.5926514,-82.88296509,-73.90909576,0.027383992,-0.08240238,0.15319252
327,1213456915,-111.4262314,-82.88420868,-74.08918762,0.05561614,-0.14834206,0.17560959
328,1213473582,-111.2477188,-82.88798523,-74.29512787,0.013154041,-0.17177473,0.19068813
329,1213490249,-111.0913467,-82.90583038,-74.48735046,0.012554952,-0.14454888,0.15548038
330,1213506916,-111.0188675,-82.9274826,-74.59327698,-0.019508172,-0.1246989,0.122107506
331,1213523583,-111.0237961,-82.94456482,-74.61586761,-0.058631107,-0.014068925,0.14238644
332,1213540250,-111.0445786,-82.95274353,-74.62068939,-0.07482111,0.04720609,0.14783192
333,1213556917,-111.0528564,-82.95129395,-74.64241791,-0.06277477,0.09865238,0.18944454
334,1213573584,-111.0118713,-82.94593048,-74.70970917,-0.034266405,0.13163644,0.2344265
335,1213590251,-110.9060822,-82.94600677,-74.83499908,0.04921264,0.13494489,0.22016525
336,1213606918,-110.7652512,-82.95330048,-74.98095703,0.10050695,0.09929246,0.16348934
337,1213623585,-110.6558533,-82.96034241,-75.07830048,0.100745134,0.06932709,0.12769604
338,1213640252,-110.5838776,-82.96338654,-75.12388611,0.07414233,0.053294815,0.098882675
339,1213656919,-110.5722122,-82.95427704,-75.10095215,5.12E-04,0.043224957,0.15631676
340,1213673586,-110.5680313,-82.943367,-75.06936646,-0.026700556,0.019561365,0.21555042
341,1213690253,-110.583519,-82.9425354,-75.02703094,-0.011785221,-0.02895181,0.21181774
342,1213706920,-110.5731125,-82.94273376,-75.01503754,0.027554732,-0.038308993,0.21296215
343,1213723587,-110.4640274,-82.94434357,-75.10128021,0.0558103,-0.032768503,0.20102882
344,1213740254,-110.290802,-82.95012665,-75.25867462,0.080562636,-0.06125938,0.18605232
345,1213756921,-110.1914597,-82.95809174,-75.34694672,0.07637205,-0.06815635,0.1828556
346,1213773588,-110.1189041,-82.96879578,-75.40882111,0.01651923,-0.04301627,0.19876671
347,1213790255,-110.0718231,-82.98043823,-75.45185852,-0.011709022,-0.006625441,0.1672945
348,1213806922,-110.0920105,-82.98809814,-75.4303894,-0.030493999,0.03349683,0.16816902
349,1213823589,-110.1017532,-82.99999237,-75.41589355,-0.028663421,0.06339697,0.1926403
350,1213840256,-110.0436783,-83.01273346,-75.46753693,0.001934573,0.06997671,0.16121101
351,1213856923,-109.9471893,-83.01570892,-75.56200409,-0.016289456,0.06505871,0.12427807
352,1213873590,-109.8490067,-83.008461,-75.66480255,-0.04040339,0.002906783,0.13901138
353,1213890257,-109.8172302,-82.99512482,-75.71180725,-0.046864014,-0.088355094,0.15807724
354,1213906924,-109.828804,-82.98339844,-75.72158051,-0.05284572,-0.12724729,0.18559551
355,1213923591,-109.8549576,-82.98029327,-75.71939087,-0.041481894,-0.1467068,0.16667938
356,1213940258,-109.9426041,-82.9796524,-75.65402985,-0.040776193,-0.14125803,0.12309265
357,1213956925,-110.0904922,-82.97052002,-75.52217102,-0.07193778,-0.09195728,0.1554575
358,1213973592,-110.1949539,-82.96588898,-75.43675232,-0.07386668,-0.06032994,0.22712803
359,1213990259,-110.1517181,-82.98267365,-75.50619507,-0.056831326,9.14E-04,0.23386192
360,1214006926,-109.9744492,-83.01618195,-75.7113266,-0.07110524,0.13248564,0.18208694
361,1214023593,-109.8011627,-83.04862213,-75.90438843,-0.0979846,0.27007365,0.043961525
362,1214040260,-109.8422165,-83.0463562,-75.87841797,-0.13208659,0.349688,-0.015808105
363,1214056927,-110.0705338,-82.99529266,-75.66529083,-0.16030732,0.29868302,0.1036129
364,1214073594,-110.3846359,-82.92033386,-75.37226105,-0.061966293,0.123188436,0.22456741
365,1214090261,-110.6625748,-82.84805298,-75.11548615,0.1255953,-0.14633444,0.30747795
366,1214106928,-110.8228226,-82.80175781,-74.97676086,0.301094,-0.33873495,0.2909088
367,1214123595,-110.8235703,-82.79140472,-74.99612427,0.40920138,-0.39022952,0.24707222
368,1214140262,-110.7275543,-82.81233978,-75.10553741,0.40902528,-0.328879,0.24479675
369,1214156929,-110.5656433,-82.85587311,-75.27275848,0.30810893,-0.2009033,0.27107716
370,1214173596,-110.4375992,-82.91008759,-75.41547394,0.13190542,-0.050654415,0.23641014
371,1214190263,-110.3992615,-82.95806122,-75.49298859,-0.08037985,0.031119239,0.21221352
372,1214206930,-110.3885345,-82.9957428,-75.56327057,-0.22883336,0.11554685,0.16348648
373,1214223597,-110.3559799,-83.020401,-75.66247559,-0.25752532,0.20291926,0.13090992
374,1214240264,-110.2860184,-83.02937317,-75.79077148,-0.21675032,0.2420091,0.122612
375,1214256931,-110.1836472,-83.03370667,-75.9315567,-0.17510198,0.26392353,0.15613174
376,1214273598,-110.0519333,-83.03533936,-76.07929993,-0.09895786,0.23338819,0.14947605
377,1214290265,-109.9915695,-83.03060913,-76.13418579,-0.02675919,0.1960773,0.11321926
378,1214306932,-110.0833511,-83.01405334,-76.02120972,0.037024524,0.15940899,0.09303284
379,1214323599,-110.3210144,-82.99249268,-75.75428772,0.040062394,0.09688498,0.13869667
380,1214340266,-110.5708084,-82.97627258,-75.47116089,0.040642425,0.07008364,0.191288
381,1214356933,-110.7228622,-82.96790314,-75.2886734,0.0477933,0.024674423,0.2281599
382,1214373600,-110.7338867,-82.96204376,-75.25349426,0.026190776,-0.046875,0.2252512
383,1214390267,-110.6652908,-82.95780945,-75.30460358,0.010665125,-0.12728247,0.2056961
384,1214406934,-110.607811,-82.95375061,-75.34884644,-0.010048704,-0.17603534,0.17633533
385,1214423601,-110.5939026,-82.95171356,-75.34671021,-0.030833106,-0.1578075,0.1625166
386,1214440268,-110.5967865,-82.95285034,-75.32167053,-0.021045407,-0.09689329,0.19009686
387,1214456935,-110.5768585,-82.96034241,-75.31284332,0.033197317,-0.010231187,0.18055153
388,1214473602,-110.5843582,-82.96681213,-75.27257538,0.07919391,0.022542063,0.15581226
389,1214490269,-110.6312637,-82.96787262,-75.18844604,0.0767934,0.017163053,0.145401
390,1214506936,-110.7212296,-82.96148682,-75.06676483,0.07640336,-0.023218043,0.1469841
391,1214523603,-110.7837143,-82.95004272,-74.9839859,0.03499777,-0.10389359,0.17883205
392,1214540270,-110.820816,-82.93917084,-74.94147491,-0.019713094,-0.14646989,0.18922329
393,1214556937,-110.8760834,-82.93256378,-74.89867401,-0.021126183,-0.1501727,0.17841148
394,1214573604,-110.9758453,-82.92837524,-74.82261658,-0.043881804,-0.1346612,0.21789074
395,1214590271,-111.0294495,-82.93028259,-74.80420685,-0.04090568,-0.09487909,0.23882389
396,1214606938,-111.0289307,-82.93750763,-74.84979248,0.00630615,-0.08207919,0.2059927
397,1214623605,-110.9845505,-82.9499054,-74.94128418,0.03082827,-0.037869457,0.20384312
398,1214640272,-110.9083557,-82.96636963,-75.06604767,0.019877857,0.037772857,0.18198776
399,1214656939,-110.8183441,-82.98088074,-75.20365143,-0.021928756,0.09348767,0.137743
400,1214673606,-110.7807388,-82.98596954,-75.28223419,-0.06153024,0.114792466,0.109342575
401,1214690273,-110.8175964,-82.9810791,-75.27291107,-0.07158808,0.100042045,0.15050888
402,1214706940,-110.8683853,-82.96974182,-75.23270416,-0.05896398,0.07837268,0.19208336
403,1214723607,-110.8642578,-82.96360779,-75.23405457,-0.010839212,0.04606159,0.20432186
404,1214740274,-110.8320541,-82.95934296,-75.25930023,0.03945442,0.037354127,0.18657589
405,1214756941,-110.8041534,-82.95362854,-75.28196716,0.049259704,0.021773517,0.18261242
406,1214773608,-110.7574081,-82.95204926,-75.32649994,0.035811644,-0.007782833,0.19530869
407,1214790275,-110.6656418,-82.95697784,-75.42914581,0.046121664,-0.034281634,0.17964363
408,1214806942,-110.594429,-82.96276855,-75.52352905,0.007123448,-0.086215995,0.16596508
409,1214823609,-110.5822906,-82.97177887,-75.54735565,-0.06055719,-0.10686292,0.20439434
410,1214840276,-110.605545,-82.98916626,-75.52707672,-0.08885981,-0.05893306,0.22512531
411,1214856943,-110.5608292,-83.01972961,-75.57845306,-0.10894775,0.037252087,0.20783138
412,1214873610,-110.3743973,-83.05330658,-75.77011871,-0.09152923,0.14562124,0.16353703
413,1214890277,-110.1831284,-83.07092285,-75.96289063,-0.043893676,0.25533104,0.12326431
414,1214906944,-110.1112595,-83.06961823,-76.02823639,-0.02762586,0.24900503,0.11408615
415,1214923611,-110.1578674,-83.06188965,-75.95493317,-0.031191768,0.20720142,0.14863491
416,1214940278,-110.176506,-83.05352783,-75.88333893,-0.024617061,0.13261147,0.20923996
417,1214956945,-110.0914383,-83.0488205,-75.89700317,0.021229062,0.08363403,0.2258997
418,1214973612,-109.9451981,-83.05200958,-75.96305847,0.049623523,0.03483906,0.17676067
419,1214990279,-109.8598862,-83.05567169,-75.96800232,0.037703086,-0.028815547,0.14886379
420,1215006946,-109.8208771,-83.05220795,-75.93346405,0.018010039,-0.10413474,0.17451572
421,1215023613,-109.7519073,-83.04286194,-75.93681335,0.023686778,-0.18160634,0.18680191
422,1215040280,-109.6470261,-83.037117,-75.98270416,0.05542853,-0.24375896,0.18567657
423,1215056947,-109.5684357,-83.03505707,-76.01248932,0.06388786,-0.26477936,0.19750595
424,1215073614,-109.5211029,-83.04243469,-76.03785706,0.076944396,-0.22640622,0.17445087
425,1215090281,-109.471756,-83.05802155,-76.09880829,0.06180634,-0.23080054,0.15637779
426,1215106948,-109.4060974,-83.07204437,-76.2095108,0.057650175,-0.20643714,0.16086197
427,1215123615,-109.3358002,-83.08409882,-76.3478241,0.040457048,-0.14358251,0.18044186
428,1215140282,-109.2933426,-83.09635925,-76.47180176,0.034294926,-0.092922665,0.1643734
429,1215156949,-109.2926865,-83.11049652,-76.55979919,0.014897341,-0.04033047,0.18662739
430,1215173616,-109.2367935,-83.13156128,-76.69043732,-0.030782718,0.047548402,0.23431206
431,1215190283,-109.1255798,-83.16362,-76.85969543,-0.055615146,0.14034015,0.25351143
432,1215206950,-108.971611,-83.20987701,-77.06313324,-0.08879962,0.2348794,0.21891212
433,1215223617,-108.7994156,-83.25776672,-77.28179169,-0.116752855,0.31769076,0.12071228
434,1215240284,-108.7232208,-83.28183746,-77.39317322,-0.1303862,0.3602449,0.05843067
435,1215256951,-108.7919617,-83.27285004,-77.34207916,-0.09710002,0.3411603,0.07188797
436,1215273618,-108.9067154,-83.24802399,-77.21623993,-0.03530826,0.26005346,0.123553276
437,1215290285,-108.9361191,-83.21958923,-77.14844513,0.002399899,0.12711252,0.13932133
438,1215306952,-108.9048157,-83.18928528,-77.12539673,0.0582723,0.008847279,0.16401196
439,1215323619,-108.8720169,-83.16278839,-77.09498596,0.03907314,-0.094067916,0.2208662
440,1215340286,-108.878746,-83.150177,-77.0321579,0.056035046,-0.18551248,0.23143387
441,1215356953,-108.926651,-83.14659882,-76.94508362,0.08025901,-0.23687394,0.2210617
442,1215373620,-108.9534302,-83.14685822,-76.897995,0.09250906,-0.2430134,0.18634415
443,1215390287,-108.9823303,-83.14794159,-76.86534882,0.11784483,-0.23547202,0.18191719
444,1215406954,-108.9845047,-83.15338898,-76.87319946,0.112465166,-0.22363986,0.21209717
445,1215423621,-108.9393005,-83.16622925,-76.94249725,0.066764474,-0.17967363,0.20725346
446,1215440288,-108.8664703,-83.18566132,-77.05143738,0.034172907,-0.10863767,0.20167446
447,1215456955,-108.8263245,-83.20762634,-77.13647461,-0.006502674,0.005581173,0.15876865
448,1215473622,-108.8458405,-83.22367096,-77.1703186,-0.011317106,0.09258079,0.13278484
449,1215490289,-108.8940735,-83.2263031,-77.17723846,-0.013684625,0.13930202,0.13200378
450,1215506956,-108.9307251,-83.21854401,-77.18403625,0.028560782,0.1363782,0.14771652
451,1215523623,-108.9515762,-83.2082901,-77.18056488,0.042178307,0.119857386,0.17862034
452,1215540290,-108.9715576,-83.20223236,-77.15153503,0.030167788,0.09838712,0.18833923
453,1215556957,-109.0118408,-83.1971283,-77.08275604,0.005448245,0.06799673,0.1962061
454,1215573624,-109.0823059,-83.19176483,-76.96999359,-0.012148399,0.04754149,0.18132782
455,1215590291,-109.1581039,-83.1861496,-76.84545898,0.014609909,0.020193899,0.19542408
456,1215606958,-109.1961365,-83.18105316,-76.75501251,0.023851158,-0.011401555,0.21146584
457,1215623625,-109.1861954,-83.1813736,-76.7182312,0.037089635,-0.028084716,0.18495274
458,1215640292,-109.1439133,-83.18243408,-76.72792816,-0.021730045,-0.042139243,0.17190933
459,1215656959,-109.1075668,-83.18370056,-76.75208282,-0.06891369,-0.05760176,0.18068123
460,1215673626,-109.0575333,-83.18560791,-76.81000519,-0.12273415,-0.084332325,0.1948204
461,1215690293,-109.0121307,-83.18778992,-76.87980652,-0.105112486,-0.07913077,0.17288113
462,1215706960,-109.0174713,-83.18724823,-76.91027832,-0.06683542,-0.08902868,0.13812351
463,1215723627,-109.0716095,-83.18647003,-76.89894867,-0.03169725,-0.07174635,0.16537476
464,1215740294,-109.1246719,-83.18822479,-76.88536072,0.030711787,-0.049619295,0.15056801
465,1215756961,-109.1623764,-83.19158936,-76.87846375,0.05832447,4.51E-04,0.1726284
466,1215773628,-109.1995697,-83.19429779,-76.86464691,0.049266372,0.053597216,0.18591976
467,1215790295,-109.2266083,-83.19599915,-76.85271454,0.06263404,0.07408023,0.19575882
468,1215806962,-109.212471,-83.1979599,-76.87557983,0.076071255,0.062468596,0.1982317
469,1215823629,-109.1682739,-83.19911957,-76.92537689,0.09814969,0.034981966,0.16876125
470,1215840296,-109.1504288,-83.19429779,-76.94374847,0.10440561,-0.022921752,0.15231419
471,1215856963,-109.1792374,-83.18264008,-76.90616608,0.1143225,-0.104777955,0.15946865
472,1215873630,-109.2289658,-83.1698761,-76.84403992,0.11185753,-0.15454929,0.20282269
473,1215890297,-109.2585754,-83.15737152,-76.80989075,0.11086951,-0.16374014,0.21055698
474,1215906964,-109.2752762,-83.14923859,-76.80282593,0.07896332,-0.20331046,0.27043343
475,1215923631,-109.205864,-83.16069794,-76.89571381,0.004938788,-0.1845202,0.31099415
476,1215940298,-109.0312347,-83.20451355,-77.11116791,-0.06634858,-0.04146182,0.21867085
477,1215956965,-108.8467789,-83.26166534,-77.35271454,-0.11487001,0.09825915,0.050505638
478,1215973632,-108.7799835,-83.29437256,-77.47550964,-0.17702729,0.18503775,-0.05904579
479,1215990299,-108.8991928,-83.28116608,-77.38793945,-0.26604065,0.2308683,0.012803078
480,1216006966,-109.1374512,-83.24117279,-77.15653992,-0.2877102,0.20802034,0.18597794
481,1216023633,-109.3554535,-83.21756744,-76.92603302,-0.22820115,0.13934797,0.26863956
482,1216040300,-109.4654922,-83.21170044,-76.79385376,-0.102374785,0.15661472,0.2598467
483,1216056967,-109.4328308,-83.21600342,-76.79673004,0.07210889,0.22348571,0.19680023
484,1216073634,-109.3684769,-83.21259308,-76.82958984,0.18936,0.21218973,0.13370895
485,1216090301,-109.314537,-83.19274139,-76.84429932,0.23515971,0.14934772,0.1761074
486,1216106968,-109.3059616,-83.16798401,-76.79051208,0.19273818,0.036135223,0.21930408
487,1216123635,-109.3484726,-83.14591217,-76.66082001,0.14041123,-0.120872885,0.256485
488,1216140302,-109.4176102,-83.13967896,-76.48342896,0.14048694,-0.21515474,0.2383194
489,1216156969,-109.4318161,-83.14957428,-76.36174774,0.10800441,-0.2575943,0.20821953
490,1216173636,-109.3887024,-83.16622925,-76.32128906,0.070794046,-0.23559245,0.16662598
491,1216190303,-109.32267,-83.18341064,-76.34748077,-0.014993096,-0.22158149,0.12844181
492,1216206970,-109.2428207,-83.19461823,-76.43728638,-0.07357625,-0.22011654,0.13081932
493,1216223637,-109.1526413,-83.19424438,-76.58063507,-0.08107902,-0.19892986,0.12663174
494,1216240304,-109.1047363,-83.18528748,-76.70624542,-0.09728761,-0.18930997,0.13348007
495,1216256971,-109.135582,-83.17720795,-76.75333405,-0.052605517,-0.11988654,0.18177128
496,1216273638,-109.2253571,-83.17896271,-76.7203064,-0.012031199,-0.030419623,0.225811
497,1216290305,-109.3258667,-83.1933136,-76.65504456,0.01434943,0.06589663,0.21803093
498,1216306972,-109.4057159,-83.21349335,-76.59591675,0.045682557,0.1165444,0.17195606
499,1216323639,-109.4549103,-83.2255249,-76.5594101,0.04422067,0.1580836,0.1401043
500,1216340306,-109.4827194,-83.22497559,-76.5382843,0.029373113,0.19963199,0.14437962
501,1216356973,-109.4760361,-83.21820831,-76.54682922,0.016403299,0.22127962,0.17582417
502,1216373640,-109.4344101,-83.20774078,-76.58229828,0.013122419,0.20952079,0.20814228
503,1216390307,-109.3668213,-83.19940186,-76.63090515,-0.003749275,0.14123558,0.21099472
504,1216406974,-109.3195953,-83.19087219,-76.647995,-0.002320381,0.020506656,0.16396236
505,1216423641,-109.316185,-83.18186188,-76.61658478,-0.050339483,-0.08625076,0.17287254
506,1216440308,-109.3663712,-83.17444611,-76.53325653,-0.053154387,-0.1735153,0.16152668
507,1216456975,-109.4112549,-83.17004395,-76.46595764,-0.0639902,-0.18043806,0.18626785
508,1216473642,-109.4403,-83.17456055,-76.43191528,-0.060774695,-0.13018489,0.16535568
509,1216490309,-109.4675751,-83.18209839,-76.41675568,-0.016073022,-0.045544412,0.17496109
510,1216506976,-109.4771194,-83.19026947,-76.43047333,0.0034065,0.038534906,0.19056511
511,1216523643,-109.439064,-83.19664001,-76.5049057,0.023633162,0.09558593,0.20091057
512,1216540310,-109.3802567,-83.19689941,-76.60268402,0.028751614,0.107130304,0.1659441
513,1216556977,-109.4006119,-83.19194031,-76.60813141,0.044751737,0.08270415,0.14974594
514,1216573644,-109.4957962,-83.18556976,-76.52320862,0.02619457,0.056657843,0.14623356
515,1216590311,-109.6194839,-83.18140411,-76.39632416,0.014662202,0.014057395,0.19983959
516,1216606978,-109.6367874,-83.18359375,-76.36715698,0.004031361,0.001277181,0.2399311
517,1216623645,-109.5320663,-83.19300079,-76.45252991,-0.025753792,-0.010943022,0.19873524
518,1216640312,-109.4197769,-83.20479584,-76.53897858,-0.009428703,-0.012112347,0.1442833
519,1216656979,-109.3765335,-83.20886993,-76.55615234,-0.015318627,-0.007028299,0.10960102
520,1216673646,-109.3854294,-83.20173645,-76.5252533,-0.013139294,-0.008396234,0.13723469
521,1216690313,-109.4143295,-83.19011688,-76.48444366,-0.018284997,-0.023637148,0.16871452
522,1216706980,-109.4523544,-83.18062592,-76.44580078,0.002051432,-0.063735425,0.1929102
523,1216723647,-109.4751511,-83.17634583,-76.43328094,0.03141616,-0.098673776,0.18063545
524,1216740314,-109.5335083,-83.17485046,-76.39357758,0.03170106,-0.093984604,0.16375732
525,1216756981,-109.5864792,-83.17732239,-76.36325836,0.035662323,-0.075660035,0.19483852
526,1216773648,-109.5993729,-83.18482971,-76.37890625,0.001899915,-0.054806408,0.20037746
527,1216790315,-109.5655899,-83.1932373,-76.44848633,0.005641205,-0.022231597,0.1951065
528,1216806982,-109.5102081,-83.20341492,-76.54594421,-0.017358879,0.001711968,0.1687479
529,1216823649,-109.4948883,-83.21037292,-76.60251617,-0.041162033,0.045161508,0.13864613
530,1216840316,-109.5379028,-83.21528625,-76.58823395,-0.04194442,0.072558746,0.16555214
531,1216856983,-109.5908508,-83.21878052,-76.5425415,-0.042128064,0.100644104,0.1715002
532,1216873650,-109.597435,-83.22077942,-76.51747131,-0.019153696,0.11116081,0.17022228
533,1216890317,-109.5618134,-83.21511078,-76.51983643,-0.009421543,0.12106708,0.16778564
534,1216906984,-109.4865112,-83.20303345,-76.55341339,-0.004050174,0.10936631,0.15372944
535,1216923651,-109.4259415,-83.18804932,-76.569664,-0.00309635,0.045473848,0.18304634
536,1216940318,-109.4024887,-83.17642212,-76.55269623,-6.86E-04,-0.041406814,0.18589401
537,1216956985,-109.4386063,-83.1693573,-76.48473358,-0.011363991,-0.12411141,0.15137196
538,1216973652,-109.5106735,-83.16143799,-76.39177704,0.022441393,-0.17565146,0.17810726
539,1216990319,-109.5544357,-83.1559906,-76.33785248,0.03112925,-0.15552755,0.18826675
540,1217006986,-109.5688019,-83.15180969,-76.326828,0.042619284,-0.1518884,0.18954849
541,1217023653,-109.5396652,-83.14937592,-76.37138367,0.044442944,-0.10066834,0.20779514
542,1217040320,-109.4684067,-83.15573883,-76.46998596,0.042883053,-0.053693324,0.18575191
543,1217056987,-109.4303741,-83.16689301,-76.5440979,0.050144564,-0.006711085,0.1694479
544,1217073654,-109.4546738,-83.17487335,-76.55861664,0.023220867,0.038538873,0.160779
545,1217090321,-109.4934387,-83.17906952,-76.5510788,0.013863809,0.09244203,0.16470337
546,1217106988,-109.5668106,-83.1776886,-76.49494934,0.012796849,0.11365553,0.17391396
547,1217123655,-109.646286,-83.17352295,-76.41637421,0.008715887,0.11971403,0.1720419
548,1217140322,-109.6641769,-83.16654968,-76.38365936,0.013305872,0.10758789,0.18043804
549,1217156989,-109.6153336,-83.16026306,-76.40501404,0.001793645,0.07257809,0.18052387
550,1217173656,-109.5301132,-83.15077972,-76.45581055,-0.015414093,0.038365033,0.16790581
551,1217190323,-109.4480286,-83.14056396,-76.50003815,-0.027821219,-0.028502617,0.17203903
552,1217206990,-109.3944778,-83.13050842,-76.51104736,-0.050349865,-0.053358186,0.20084381
553,1217223657,-109.3472214,-83.12508392,-76.51290131,-0.056379847,-0.11396252,0.19488144
554,1217240324,-109.3048096,-83.12525177,-76.51132202,-0.036440216,-0.11398109,0.17156792
555,1217256991,-109.2881851,-83.12661743,-76.48760223,-0.015497265,-0.1071791,0.16182613
556,1217273658,-109.2828979,-83.12496948,-76.46304321,-0.029754814,-0.07777158,0.16400814
557,1217290325,-109.2835159,-83.1192627,-76.44984436,-0.030552594,-0.03327665,0.17347527
558,1217306992,-109.2617569,-83.11233521,-76.48258972,0.007218692,-0.021854503,0.17891788
559,1217323659,-109.2120514,-83.10553741,-76.56217957,0.013083437,-0.00216531,0.21272373
560,1217340326,-109.1172791,-83.102211,-76.6974411,0.05130941,-0.013211641,0.21588135
561,1217356993,-109.0461044,-83.10357666,-76.81096649,0.0717869,-0.002717914,0.21336174
562,1217373660,-109.0245743,-83.11177063,-76.8680191,0.061646927,0.001013146,0.1844244
563,1217390327,-109.0343781,-83.12659454,-76.88063049,0.048903015,-4.35E-04,0.18725872
564,1217406994,-109.0165253,-83.14302063,-76.90671539,0.01292506,0.02676406,0.18845654
565,1217423661,-108.9392853,-83.15349579,-76.98297119,-0.011458622,0.07248778,0.16514969
566,1217440328,-108.8464966,-83.15318298,-77.0692749,-0.02851629,0.120098986,0.15664291
567,1217456995,-108.7745056,-83.14368439,-77.12750244,-0.032170523,0.12134244,0.16673851
568,1217473662,-108.7404785,-83.13835907,-77.13243103,-0.03636182,0.13405606,0.1655035
569,1217490329,-108.7378235,-83.139328,-77.08512878,-0.022883784,0.15402924,0.18684196
570,1217506996,-108.697998,-83.14633942,-77.05221558,-0.024598163,0.200081,0.18067074
571,1217523663,-108.6099319,-83.1524353,-77.05155945,-0.026584886,0.26230392,0.16892147
572,1217540330,-108.5505524,-83.14568329,-77.01361084,0.007061262,0.24268657,0.14329815
573,1217556997,-108.5463333,-83.12354279,-76.91947937,0.02479587,0.18164077,0.18550587
574,1217573664,-108.5482635,-83.09845734,-76.82299042,0.043556426,0.06614373,0.21392536
575,1217590331,-108.5257492,-83.07618713,-76.75378418,0.052269094,-0.061628558,0.21098804
576,1217606998,-108.5346832,-83.06178284,-76.65523529,0.105152436,-0.1975354,0.18615723
577,1217623665,-108.5809631,-83.05474854,-76.52708435,0.09207534,-0.33580855,0.17842007
578,1217640332,-108.5185623,-83.05654907,-76.51694489,0.08534639,-0.38428807,0.19669056
579,1217656999,-108.3153381,-83.06339264,-76.66659546,0.022705102,-0.33586118,0.19504356
580,1217673666,-108.1543808,-83.07213593,-76.81954956,-0.008685716,-0.22538938,0.16544533
581,1217690333,-108.1019135,-83.08596802,-76.90829468,-0.063289054,-0.22074114,0.18409634
582,1217707000,-108.1193695,-83.1057663,-76.9618454,-0.083748534,-0.20869735,0.18762302
583,1217723667,-108.0639572,-83.12682343,-77.11710358,-0.04826691,-0.17184244,0.19666862
584,1217740334,-107.9324036,-83.14888763,-77.36199951,-0.002615938,-0.11622183,0.15159798
585,1217757001,-107.8972397,-83.16873169,-77.50165558,-0.004412379,-0.039301895,0.07166386
586,1217773668,-107.9919891,-83.17734528,-77.50720978,-0.013445923,0.041971657,0.07624149
587,1217790335,-108.1331253,-83.17225647,-77.46343231,-0.0682201,0.10871618,0.17049122
588,1217807002,-108.2075653,-83.16542816,-77.47720337,-0.075820304,0.15117757,0.20089245
589,1217823669,-108.2447815,-83.16371155,-77.52112579,-0.025295751,0.13898762,0.21365356
590,1217840336,-108.2918472,-83.16904449,-77.54129791,0.019644774,0.13842203,0.23805237
591,1217857003,-108.3033218,-83.17504883,-77.58151245,0.061582547,0.1543687,0.21316147
592,1217873670,-108.2971115,-83.17597198,-77.62047577,0.100984834,0.15328658,0.15329742
593,1217890337,-108.3059998,-83.17010498,-77.61401367,0.10923207,0.05683736,0.15028381
594,1217907004,-108.3243942,-83.1603241,-77.58094025,0.08659709,0.017030567,0.17620659
595,1217923671,-108.2900085,-83.15097809,-77.60095978,0.0562521,-0.058497507,0.20358944
596,1217940338,-108.2424469,-83.14685822,-77.64654541,0.029241145,-0.110523954,0.18338203
597,1217957005,-108.225975,-83.15003204,-77.67332458,0.003059268,-0.099470496,0.17830563
598,1217973672,-108.2651138,-83.15625,-77.65595245,0.009814628,-0.08192487,0.17315292
599,1217990339,-108.3265533,-83.16075134,-77.623909,0.004699702,-0.063658245,0.1715231
600,1218007006,-108.3658447,-83.15957642,-77.62019348,-0.01076492,-0.05398895,0.16594887
601,1218023673,-108.390007,-83.1584549,-77.63788605,-0.004836502,-0.020896485,0.1728735
602,1218040340,-108.3789597,-83.15636444,-77.69839478,0.001252269,-0.002542938,0.18182945
603,1218057007,-108.3771744,-83.15444946,-77.75255585,0.016521474,0.056125414,0.19638824
604,1218073674,-108.388298,-83.15756989,-77.79445648,0.028194863,0.10678823,0.18517876
605,1218090341,-108.4232407,-83.1633606,-77.80297089,0.012778293,0.14178343,0.17688751
606,1218107008,-108.5121613,-83.16665649,-77.73511505,-0.014478487,0.15471493,0.15713787
607,1218123675,-108.6413422,-83.16012573,-77.60126495,-0.045342047,0.1435924,0.15885067
608,1218140342,-108.7406693,-83.14811707,-77.47463989,-0.076789625,0.14510763,0.18331814
609,1218157009,-108.7491455,-83.13907623,-77.41780853,-0.030631417,0.18627322,0.2095747
610,1218173676,-108.6478806,-83.12890625,-77.46077728,0.049111743,0.1657588,0.26356888
611,1218190343,-108.4427338,-83.12459564,-77.60731506,0.06709908,0.106973745,0.26676083
612,1218207010,-108.2232056,-83.13295746,-77.78196716,0.071871206,0.007990263,0.21243572
613,1218223677,-108.0688095,-83.15123749,-77.89923859,0.041188642,-0.10539371,0.122089386
614,1218240344,-107.9997253,-83.17303467,-77.91676331,-0.05877603,-0.18886882,0.075208664
615,1218257011,-108.028923,-83.18891144,-77.81634521,-0.19143328,-0.16451702,0.108823776
616,1218273678,-108.0720901,-83.19842529,-77.7071228,-0.25266278,-0.049601227,0.15409565
617,1218290345,-108.0167389,-83.2071991,-77.72212219,-0.23444687,0.08199785,0.18903828
618,1218307012,-107.8663788,-83.21551514,-77.83795166,-0.14271194,0.15802775,0.18015862
619,1218323679,-107.6527328,-83.22181702,-78.00423431,-0.10188264,0.21009819,0.1931696
620,1218340346,-107.4165344,-83.22723389,-78.17762756,-0.103996255,0.19965205,0.23024559
621,1218357013,-107.1267014,-83.24176025,-78.39193726,-0.108271845,0.20487662,0.2756071
622,1218373680,-106.8013611,-83.26477814,-78.6230545,-0.07209291,0.22094269,0.26250172
623,1218390347,-106.4624023,-83.2963028,-78.84627533,-0.047972187,0.25045863,0.2753315
624,1218407014,-105.9944305,-83.34041595,-79.18583679,-0.048058137,0.36603633,0.29783916
625,1218423681,-105.4297485,-83.39666748,-79.62219238,-0.0653805,0.4427063,0.23951721
626,1218440348,-104.8334808,-83.45796967,-80.08105469,-0.09340749,0.4535157,0.17720413
627,1218457015,-104.238884,-83.50777435,-80.50857544,-0.09943064,0.37929633,0.13205147
628,1218473682,-103.6920471,-83.53464508,-80.84616089,-0.07868512,0.2746237,0.11435509
629,1218490349,-103.2417526,-83.54162598,-81.05113983,-0.060129866,0.13814834,0.101242065
630,1218507016,-102.9544067,-83.54278564,-81.06816864,-0.013735301,-0.02416474,0.1073513
631,1218523683,-102.8191986,-83.54260254,-80.92481995,0.022296488,-0.19867966,0.11833191
632,1218540350,-102.7677002,-83.5402298,-80.70360565,0.036024734,-0.37758592,0.11208725
633,1218557017,-102.7464981,-83.5328598,-80.48207092,0.09777522,-0.50177515,0.077207565
634,1218573684,-102.7538605,-83.51599884,-80.2869873,0.16915712,-0.6004766,0.117640495
635,1218590351,-102.7510071,-83.49654388,-80.17840576,0.23246253,-0.6219035,0.26940727
636,1218607018,-102.6277847,-83.49723816,-80.2716217,0.23648,-0.5681096,0.37284946
637,1218623685,-102.3530579,-83.53298187,-80.60131073,0.2290838,-0.46057084,0.31776428
638,1218640352,-102.018486,-83.59283447,-81.0643692,0.21595237,-0.3215381,0.20308399
639,1218657019,-101.7397842,-83.65943909,-81.51135254,0.1500133,-0.20476815,0.099637985
640,1218673686,-101.6111755,-83.71837616,-81.82157898,0.08125742,-0.09858089,0.07901573
641,1218690353,-101.6002731,-83.76161957,-81.99797821,0.004690027,-0.029948976,0.10217571
642,1218707020,-101.5614853,-83.7883606,-82.17370605,-0.06378247,0.039524786,0.14020061
643,1218723687,-101.4964447,-83.80657196,-82.35521698,-0.054175247,0.105999954,0.084160805
644,1218740354,-101.5092545,-83.81572723,-82.43610382,-0.038288906,0.11768012,0.02408886
645,1218757021,-101.5787125,-83.81182098,-82.43191528,-0.068097904,0.13991928,0.1157217
646,1218773688,-101.5456848,-83.79961395,-82.52230072,-0.056961894,0.15701406,0.1972065
647,1218790355,-101.4582214,-83.78463745,-82.69129944,-0.060706913,0.08429653,0.19775867
648,1218807022,-101.4479446,-83.76797485,-82.80421448,-0.06981881,-0.021552892,0.15837193
649,1218823689,-101.5875931,-83.75336456,-82.77235413,-0.08019265,-0.076713376,0.15929699
650,1218840356,-101.775589,-83.74514771,-82.6947403,-0.035798155,-0.05687819,0.2376318
651,1218857023,-101.8844299,-83.74865723,-82.69564056,-0.006694264,-0.03668282,0.27364635
652,1218873690,-101.8671951,-83.7676239,-82.80386353,0.01916097,-0.008731897,0.26844215
653,1218890357,-101.8359909,-83.80277252,-82.89915466,0.053857174,0.075033374,0.20762157
654,1218907024,-101.8831024,-83.84202576,-82.90139771,0.09631081,0.17638928,0.13603783
655,1218923691,-101.9531174,-83.87135315,-82.87284088,0.09959423,0.24181671,0.12588978
656,1218940358,-101.9816055,-83.87769318,-82.88542938,0.119205855,0.23574062,0.11767578
657,1218957025,-101.9801025,-83.86732483,-82.92694855,0.12611343,0.2109401,0.16635704
658,1218973692,-102.010437,-83.85346985,-82.93172455,0.13854189,0.14066967,0.198699
659,1218990359,-102.0392303,-83.84722137,-82.93008423,0.11385294,0.029486116,0.2366209
660,1219007026,-102.0286942,-83.85452271,-82.95336914,0.08391957,-0.07783909,0.21831322
661,1219023693,-102.0606918,-83.86844635,-82.90830231,0.018214611,-0.16218404,0.17248154
662,1219040360,-102.2290726,-83.88237,-82.69663239,-0.06486242,-0.18043472,0.1709547
663,1219057027,-102.499176,-83.89533234,-82.36902618,-0.15865442,-0.17465135,0.14790821
664,1219073694,-102.8384171,-83.90644836,-81.98061371,-0.25596538,-0.11689437,0.12861061
665,1219090361,-103.1567001,-83.9095459,-81.6354599,-0.29282117,-0.094145365,0.17568398
666,1219107028,-103.3212814,-83.91031647,-81.4664917,-0.26347795,-0.064185046,0.22831059
667,1219123695,-103.2355118,-83.91392517,-81.58100128,-0.20020592,-0.044841714,0.25261497
668,1219140362,-103.0072708,-83.92469025,-81.86943054,-0.16472535,0.031547297,0.22974491
669,1219157029,-102.7799072,-83.94508362,-82.19507599,-0.3393634,0.13280907,0.18925571
670,1219173696,-102.6532822,-83.97855377,-82.4723053,-0.58811384,0.17047009,0.204669
671,1219190363,-102.5548859,-84.02459717,-82.77963257,-0.5854971,-0.046726514,0.33022022
672,1219207030,-102.4305115,-84.08467102,-83.13471985,-0.39585486,-0.31779844,0.4352064
673,1219223697,-102.3960953,-84.18556976,-83.43464661,-0.31440452,-0.2647268,0.6193619
674,1219240364,-102.4344101,-84.35910034,-83.77301025,-0.3082851,0.06551802,0.77818394
675,1219257031,-101.8549957,-84.60552216,-84.85414124,-0.18983638,0.2749637,0.8951149
676,1219273698,-99.83132935,-84.91446686,-87.42710876,-0.08979656,0.29874218,0.72567654
677,1219290365,-95.84783936,-85.27458191,-91.95308685,-0.06400929,0.25659218,0.46911144
678,1219307032,-89.10356903,-85.63700104,-99.26686096,-0.123242475,0.22376685,0.29897976
679,1219323699,-79.62851715,-85.92768097,-109.3475266,-0.2785263,0.16706336,0.081196785
680,1219340366,-68.91688538,-86.08773804,-120.6371231,-0.45369405,0.113035865,-0.36593342
681,1219357033,-58.96110916,-86.10831451,-131.0566406,-0.5777766,0.010602678,-0.594223
682,1219373700,-50.79565811,-86.01071167,-139.5865326,-0.613914,0.037406597,-0.39047718
683,1219390367,-44.12136459,-85.81975555,-146.6914215,-0.4586874,0.14369442,0.12461376
684,1219407034,-38.07791138,-85.54719543,-153.3482513,-0.10900473,0.011984904,0.41042042
685,1219423701,-32.22640991,-85.18257141,-159.9772797,0.16978605,-0.3701071,0.5726595
686,1219440368,-26.56341553,-84.71194458,-166.4693604,0.26779276,-0.6286122,0.63371277
687,1219457035,-21.38971519,-84.15615082,-172.4091187,0.1862926,-0.6128182,0.48451996
688,1219473702,-16.77729607,-83.54068756,-177.7104797,0.010028461,-0.36936042,0.22608376
689,1219490369,-12.77376461,-82.85658264,177.668396,0.051387485,-0.105657816,0.09709263
690,1219507036,-9.334300041,-82.09060669,173.6570435,0.3130158,0.17142884,0.21179485
691,1219523703,-6.388217926,-81.24227142,170.18396,0.59825295,0.48457867,0.28597546
692,1219540370,-3.97701335,-80.32460022,167.3195801,0.849141,0.6770677,0.3518505
693,1219557037,-2.098253727,-79.32941437,165.1812744,1.0258921,0.9435469,0.09948254
694,1219573704,-0.549930274,-78.26306915,163.6474762,0.9124188,1.1916399,0.11019993
695,1219590371,0.792948484,-77.12506866,162.5536957,0.9577064,1.4831645,0.32794094
696,1219607038,2.03073287,-75.90511322,161.7540894,0.8741814,1.5487429,0.55021286
697,1219623705,3.188545227,-74.62500763,161.0914154,0.5224678,1.1484816,0.3405285
698,1219640372,4.32091713,-73.26679993,160.4705353,0.12850839,0.4899813,-0.013471603
699,1219657039,5.604050636,-71.8279953,159.8252106,-0.16215312,-0.003787371,-0.35284233
700,1219673706,6.994459629,-70.36872864,159.2994537,-0.31054947,-0.08037493,-0.76155186
701,1219690373,8.310460091,-69.04721069,158.9375458,-0.3090225,0.075831465,-0.91534615
702,1219707040,9.400902748,-67.77876282,158.7285461,-0.30207002,0.35747516,-0.62672424
703,1219723707,10.23375893,-66.49191284,158.6295471,-0.29822767,0.2890616,-0.36202335
704,1219740374,10.86539078,-65.19735718,158.6095886,-0.30683547,-0.11070267,-0.049874306
705,1219757041,11.50609303,-63.93380737,158.598587,-0.17520255,-0.56345916,0.14568901
706,1219773708,12.16015816,-62.77320099,158.5141449,-0.30085778,-0.56537396,-0.29237556
707,1219790375,12.70506001,-61.54941177,158.4036255,-0.24181898,-0.13036008,-0.5477648
708,1219807042,13.18516159,-60.26011658,158.3662872,-0.033237346,-0.06531845,-0.44875813
709,1219823709,13.69525909,-59.01509476,158.3481445,-0.07961869,-0.13327272,-0.51610374
710,1219840376,14.17923832,-57.89622879,158.2825775,0.10655376,-0.30498472,-0.48285866
711,1219857043,14.58179855,-56.86413956,158.1991425,-0.035945084,-0.46156362,-0.43651676
712,1219873710,14.82873344,-55.75970459,158.1188202,-0.28120348,-0.27111134,-0.49109077
713,1219890377,15.08463192,-54.5327301,158.0563507,-0.48506764,-0.18478715,-0.53160954
714,1219907044,15.44487,-53.28381729,157.9520721,-0.21269189,-0.4259488,-0.5329027
715,1219923711,15.86173439,-52.07592773,157.7621613,0.091456115,-0.44158348,-0.37717915
716,1219940378,16.22510147,-50.88126755,157.5587158,-0.06556035,-0.7128141,-0.34502792
717,1219957045,16.46438408,-49.64536667,157.3818512,-0.37194133,-0.625517,-0.29561424
718,1219973712,16.60331917,-48.34873199,157.2143097,-0.54531044,-0.25046495,-0.30060482
719,1219990379,16.72363091,-46.97576141,157.0004883,-0.52598065,0.022831429,-0.42101002
720,1220007046,16.81776047,-45.61362076,156.7344666,-0.23567016,0.050960507,-0.22528648
721,1220023713,16.93219566,-44.2879715,156.4369049,-0.18397625,0.080831,0.0737381
722,1220040380,17.00598145,-43.00298309,156.1192322,0.01994844,0.24102867,0.037822723
723,1220057047,16.94684982,-41.78393936,155.8222961,0.10463586,0.561489,-0.25768757
724,1220073714,16.748703,-40.5639534,155.5975342,0.28336006,1.0078571,-0.3682022
725,1220090381,16.5839138,-39.3111763,155.4772034,0.2554349,1.2221742,-0.5259628
726,1220107048,16.54438782,-38.01948166,155.5147705,0.39254045,0.94425654,-0.40689945
727,1220123715,16.60193253,-36.70858383,155.6609039,0.12441983,0.55294913,-0.4365387
728,1220140382,16.69119644,-35.38496017,155.8091125,-0.2937114,0.20940323,-0.37582016
729,1220157049,16.69118881,-34.02459717,155.925354,-0.35729304,0.14238733,0.027861595
730,1220173716,16.62135887,-32.70363998,156.0332794,-0.40620548,0.19026476,-0.033872604
731,1220190383,16.47002983,-31.44345856,156.2106171,-0.4042076,0.15522604,-0.05872917
732,1220207050,16.32089424,-30.19819641,156.4665375,-0.66686934,-0.18788938,0.05014038
733,1220223717,16.12722397,-28.9824028,156.691803,-0.4469852,-0.4063769,0.2644949
734,1220240384,15.87654305,-27.74465942,156.8688812,-0.41698733,-0.5808205,0.1537857
735,1220257051,15.54539299,-26.50680733,157.0071106,-0.3397601,-0.24745722,-0.21269894
736,1220273718,15.22230434,-25.28219223,157.1392059,0.14766781,0.27008685,0.062339783
737,1220290385,14.97154236,-24.09559441,157.2558136,0.5496231,0.55870265,0.33125687
738,1220307052,14.89954758,-22.95637321,157.3726044,0.43892804,0.17998841,0.6773205
739,1220323719,14.87404823,-21.85713577,157.4858856,-0.38514847,-0.01956529,0.092998505
740,1220340386,14.81591702,-20.80992317,157.5529633,-0.6668155,-0.067162484,0.1933403
741,1220357053,14.76113987,-19.7871418,157.5609436,-0.71662706,-0.2405609,0.3607359
742,1220373720,14.63755322,-18.75536346,157.5433502,-0.17600022,-0.24718103,0.8579931
743,1220390387,14.51834774,-17.765028,157.5766144,-0.014478248,0.019797856,0.5531807
744,1220407054,14.3407917,-16.84353447,157.6441803,0.26645303,0.45040646,0.33387947
745,1220423721,14.22637939,-15.98695946,157.7359314,0.33141717,0.3028602,0.55788136
746,1220440388,14.10014439,-15.17941952,157.8665771,0.18281789,0.06827586,0.44783878
747,1220457055,13.94082355,-14.41275597,158.0391998,0.28022176,-0.055868,0.76013947
748,1220473722,13.83329391,-13.74115372,158.2036133,0.42792183,-0.14766291,1.0238762
749,1220490389,13.78285408,-13.15528297,158.3251038,0.26302892,-0.096672915,0.79146385
750,1220507056,13.74503422,-12.63745689,158.3865814,0.24227363,-0.14073588,0.9562292
751,1220523723,13.69625092,-12.22873306,158.3927917,0.3066258,-0.127534,1.1477137
752,1220540390,13.66130161,-11.93496513,158.3516235,0.27195907,-0.003777509,1.2048922
753,1220557057,13.64568615,-11.7246666,158.3000793,0.26218948,0.050330117,1.0931301
754,1220573724,13.61467838,-11.59533501,158.286026,0.4944677,0.29514888,1.2471638
755,1220590391,13.61665821,-11.60083008,158.3112335,0.5960109,0.25167197,1.3372831
756,1220607058,13.66119766,-11.72371674,158.3704987,0.37768978,0.20199767,1.1078968
757,1220623725,13.66478539,-11.92972469,158.4278259,0.20275939,0.1425511,1.1200237
758,1220640392,13.63992119,-12.23296738,158.4663391,0.12416386,-0.020829432,1.3055143
759,1220657059,13.57810974,-12.66319466,158.4695129,0.005914684,-0.20627017,1.230175
760,1220673726,13.47744465,-13.18475533,158.4313965,-0.074421644,-0.18467095,1.3383598
761,1220690393,13.34726143,-13.78147411,158.3583221,-0.09379827,0.009390702,1.1326246
762,1220707060,13.18977261,-14.46924496,158.2585602,-0.003954098,0.21667577,1.2633886
763,1220723727,13.07809162,-15.23931694,158.1549225,-0.12642196,0.17151281,1.5014334
764,1220740394,13.01577473,-16.10294342,158.0435791,-0.43399638,0.16733828,1.1149244
765,1220757061,12.97550869,-17.04412651,157.927002,-0.37255743,0.46179458,0.72484493
766,1220773728,12.96446228,-18.04667473,157.8173218,0.4357485,0.7071065,0.9579687
767,1220790395,13.01264954,-19.1039505,157.7261963,0.958989,0.81722134,0.6732645
768,1220807062,13.2251482,-20.26607323,157.6877899,1.2285664,0.7423204,0.51143074
769,1220823729,13.64003944,-21.51682854,157.7287903,1.0765628,0.78776896,0.2059393
770,1220840396,14.15485477,-22.84996033,157.8045197,0.8801983,0.85577697,0.33835697
771,1220857063,14.73867416,-24.27375221,157.8730316,0.4797147,0.6153832,0.5168009
772,1220873730,15.36787319,-25.8049221,157.9134216,-0.058977567,0.11475507,0.53921413
773,1220890397,15.9458828,-27.38494301,157.9292755,-0.55332285,-0.4879671,0.5878725
774,1220907064,16.41102409,-28.97997665,157.9103699,-0.8464906,-0.8987755,0.56925964
775,1220923731,16.76835632,-30.59874153,157.848175,-0.9644261,-0.9394844,0.2949772
776,1220940398,16.99686432,-32.25311661,157.7309265,-0.65526164,-0.8124993,0.3083582
777,1220957065,17.10273552,-33.95643234,157.5765686,-0.52253044,-0.6893243,0.08769894
778,1220973732,17.08844757,-35.72890472,157.4284668,-0.55884254,-0.32881454,-0.020015717
779,1220990399,17.05265236,-37.55623627,157.3375397,-0.60733443,0.09477243,-0.07067108
780,1221007066,17.03806114,-39.416996,157.3137207,-0.6381098,0.4231283,-0.19574738
781,1221023733,17.04183197,-41.30183411,157.3375244,-0.49389726,0.52436686,-0.20281792
782,1221040400,17.06226921,-43.18658829,157.3784485,-0.52534604,0.38936406,-0.35381985
783,1221057067,17.08417511,-45.04967499,157.4020538,-0.47411865,0.060982548,-0.38801956
784,1221073734,17.00337791,-46.89773941,157.4027557,-0.61641896,-0.16359779,-0.6498585
785,1221090401,16.82957268,-48.75669479,157.367981,-0.84089094,-0.41112036,-0.84102154
786,1221107068,16.5468502,-50.64230347,157.3679352,-1.3288729,-0.65833586,-0.8702898
787,1221123735,16.05842972,-52.5757103,157.4420166,-1.5397497,-0.6526505,-0.8397455
788,1221140402,15.28844166,-54.55165482,157.6074677,-0.8914265,-0.5562891,-0.65658474
789,1221157069,14.27685547,-56.52847672,157.876297,-0.74951255,-0.37897986,-0.82049847
790,1221173736,13.13087654,-58.43566513,158.2037048,-0.63845867,-0.078913875,-1.0028324
791,1221190403,11.90223694,-60.28259277,158.4942017,-0.3549534,0.14245518,-1.1706228
792,1221207070,10.64078808,-62.05545807,158.7344055,-0.359062,0.21438812,-1.1749783
793,1221223737,9.390969276,-63.76324463,158.9389191,-0.09813074,0.037732676,-1.1646051
794,1221240404,8.220511436,-65.43800354,159.0673218,0.2742019,-0.041763563,-1.1978168
795,1221257071,7.154798508,-67.03982544,159.1629639,0.6388409,0.057485912,-1.2830324
796,1221273738,6.209933758,-68.46611786,159.2476501,1.0886444,0.2718336,-1.1775408
797,1221290405,5.370016098,-69.77935791,159.3380585,1.4982563,0.28687385,-1.0182343
798,1221307072,4.624154568,-71.03795624,159.5211029,1.263752,0.098240875,-0.56110954
799,1221323739,3.889450073,-72.17110443,159.8618164,0.8832046,0.023042677,-0.1483078
800,1221340406,3.18999052,-73.17605591,160.2712402,0.9263076,0.16342887,0.20586681
801,1221357073,2.613150597,-74.1133728,160.6418762,1.025001,0.45929778,0.45023823
802,1221373740,2.092538834,-74.96849823,161.0209656,0.83700186,0.7982404,0.576437
803,1221390407,1.499304175,-75.72982788,161.5851593,0.7979056,0.90939903,0.5473623
804,1221407074,0.924634337,-76.39307404,162.3730011,0.8101754,0.9015785,0.4152937
805,1221423741,0.472295791,-76.97220612,163.283844,0.5848949,0.90401447,0.27679157
806,1221440408,0.17274864,-77.48896027,164.1430054,0.20591408,0.92446214,0.2357521
807,1221457075,5.28E-04,-77.95704651,164.7872467,-0.14812058,0.8641578,0.27463245
808,1221473742,-0.004946081,-78.38886261,165.1558838,-0.3583526,0.44819143,0.28405
809,1221490409,0.038063969,-78.83041382,165.4116669,-0.35954273,-0.06956489,0.16224194
810,1221507076,-0.007256886,-79.28735352,165.7192841,-0.44969025,-0.37229902,0.14955902
811,1221523743,-0.296648532,-79.67876434,166.2225494,-0.33852875,-0.508813,0.15234852
812,1221540410,-0.934041083,-79.98244476,166.9858398,-0.16338451,-0.54501826,0.24844074
813,1221557077,-1.703895092,-80.17011261,167.7783508,-0.09915542,-0.5279063,0.44755554
814,1221573744,-2.376566172,-80.24607849,168.4325562,-0.23047183,-0.36838993,0.6562977
815,1221590411,-2.876419306,-80.23592377,168.9521027,-0.5168132,-0.17784154,0.68215275
816,1221607078,-3.214550018,-80.17851257,169.2949829,-0.6111309,0.037370194,0.41478157
817,1221623745,-3.422071695,-80.15455627,169.4598846,-0.44834545,0.25660416,-0.012246132
818,1221640412,-3.538088083,-80.20100403,169.4506683,-0.57981384,0.40170446,-0.058794975
819,1221657079,-3.650558472,-80.24706268,169.3456726,-0.6587566,0.37564275,0.17217445
820,1221673746,-3.753935099,-80.25712585,169.2186432,-0.6484281,0.35461292,0.23760986
821,1221690413,-3.947559595,-80.17999268,169.2038879,-0.50371575,0.3926476,0.34024048
822,1221707080,-4.291894436,-80.02746582,169.3771667,-0.3329845,0.3928654,0.34424114
823,1221723747,-4.588573456,-79.859375,169.5807648,-0.43879884,0.48271176,0.43593884
824,1221740414,-4.59562397,-79.71187592,169.6242676,-0.4440997,0.65233374,0.25914097
825,1221757081,-4.407896042,-79.58544922,169.5615692,-0.33629918,0.80630326,0.036164284
826,1221773748,-4.013606548,-79.44355774,169.3003235,-0.26008576,0.72809446,0.1491127
827,1221790415,-3.468432188,-79.26182556,168.9057159,-0.25342008,0.4884133,0.3468666
828,1221807082,-2.743986607,-79.05034637,168.385849,-0.37904546,0.47183418,0.41859818
829,1221823749,-1.947010159,-78.80570984,167.8361511,-0.42765558,0.36712623,0.32446384
830,1221840416,-1.263277292,-78.5541153,167.427124,-0.637335,0.23918937,0.27900028
831,1221857083,-0.684942484,-78.31195831,167.1283112,-0.8566152,0.22651273,0.2012558
832,1221873750,-0.125610724,-78.08036804,166.8091125,-0.904584,0.33046848,0.004384041
833,1221890417,0.383950591,-77.81619263,166.4362488,-0.8631542,0.44417793,0.1599369
834,1221907084,0.864711225,-77.44496155,165.9653931,-0.76633024,0.41321054,0.34953785
835,1221923751,1.38428843,-76.98860931,165.4111633,-0.5610838,0.24528393,0.36853218
836,1221940418,2.014057636,-76.49904633,164.7432556,-0.30267718,0.022621524,0.33105373
837,1221957085,2.729436159,-75.97663116,163.9566193,-0.3503812,-0.027317641,0.449543
838,1221973752,3.402096033,-75.41501617,163.1506042,-0.64354473,0.24404016,0.2638502
839,1221990419,3.978506804,-74.85678864,162.4232635,-0.7799441,0.43619365,-0.13511944
840,1222007086,4.488948345,-74.34563446,161.7723999,-0.7299965,0.52828854,-0.19897842
841,1222023753,5.031695366,-73.83036041,161.1099091,-0.26851836,0.40292206,0.030653
842,1222040420,5.680256367,-73.2321167,160.3438721,0.12694782,0.13093461,0.38245964
843,1222057087,6.389576435,-72.48033142,159.5020447,0.26288655,0.162556,0.6498451
844,1222073754,7.064867496,-71.64225769,158.677002,0.40948996,0.17328362,0.47962666
845,1222090421,7.701370716,-70.76740265,157.9497986,0.53681237,0.055626005,0.25243187
846,1222107088,8.294898033,-69.84159851,157.3599701,0.9013732,-0.14386445,0.2345047
847,1222123755,8.929701805,-68.87282562,156.8101501,1.360971,-0.02901444,0.5581274
848,1222140422,9.542704582,-67.8772583,156.3858795,1.0722309,0.6659278,0.5526619
849,1222157089,9.978534698,-66.78770447,156.260788,0.5244606,1.1758687,0.2114315
850,1222173756,10.38894749,-65.69808197,156.254303,0.43392342,1.1202525,-0.47733212
851,1222190423,10.92970848,-64.66779327,156.2220764,0.080555305,0.5945573,-0.9469757
852,1222207090,11.56415653,-63.64640808,156.2075348,-0.27923113,0.40981117,-0.8210573
853,1222223757,12.28372955,-62.53609848,156.2251282,-0.35803154,0.17970061,-0.31070518
854,1222240424,13.15138626,-61.39278793,156.2129974,-0.15295269,-0.15685089,0.24750805
855,1222257091,13.95987892,-60.18099594,156.1881409,0.34369,-0.40438798,0.19357395
856,1222273758,14.65120125,-58.88349152,156.2133331,0.35391438,-0.46290746,-0.20887566
857,1222290425,15.30381107,-57.54894638,156.244751,0.6195725,-0.5339796,-0.7373018
858,1222307092,15.82544231,-56.23391724,156.3479309,0.10874187,-0.7496516,-1.0756378
859,1222323759,16.13283157,-54.85173416,156.5615234,0.27042758,-1.1272905,-0.9154873
860,1222340426,16.23935509,-53.41175842,156.8581085,-0.3461305,-1.6662112,-0.91250134
861,1222357093,16.25526619,-51.96249008,157.1125031,-0.26894838,-1.8126764,-0.7620144
862,1222373760,16.18894386,-50.47264099,157.2149811,0.1884685,-1.404264,-0.86408997
863,1222390427,16.03706169,-48.92264938,157.0965729,0.50141484,-0.62961197,-0.91024685
864,1222407094,15.94447041,-47.3514595,156.7865753,-0.023892082,-0.4268943,-0.9905958
865,1222423761,15.91365433,-45.80874634,156.4663544,-0.22125843,-0.8872411,-0.763237
866,1222440428,15.71212673,-44.26210785,156.2241821,0.14489727,-0.63559645,-0.40952492
867,1222457095,15.20132732,-42.74157333,156.0741882,0.51885676,0.035228994,-0.2056799
868,1222473762,14.55610657,-41.20761871,156.0183105,0.12193206,0.8325164,-1.0324707
869,1222490429,13.96429443,-39.61171722,156.0424652,0.54051757,0.89890563,-0.99627876
870,1222507096,13.63136482,-37.99124527,156.091507,0.4596687,0.96830326,-0.81566715
871,1222523763,13.56228256,-36.39806366,156.1610107,0.28521594,0.9719662,-0.6360817
872,1222540430,13.53424549,-34.86435699,156.2836914,0.09356766,1.1086787,-0.34935188
873,1222557097,13.65392208,-33.32397842,156.4930267,0.023959067,0.6401259,0.17512798
874,1222573764,14.01281071,-31.81306076,156.6857452,0.2185107,0.025074465,0.53920937
875,1222590431,14.47695637,-30.37866592,156.774353,0.15192528,-0.21342593,0.40243626
876,1222607098,15.00363636,-29.00569725,156.797699,-0.5057728,-0.27629474,-0.68116474
877,1222623765,15.45951843,-27.67186546,156.8146362,0.37077332,-0.32061937,0.5136328
878,1222640432,15.72669506,-26.36110878,156.8501587,0.35728395,-0.28955492,1.3165607
879,1222657099,15.88611507,-25.12704277,156.9376373,-0.48054105,-0.16025943,0.7965393
880,1222673766,15.94886398,-24.01252174,157.0711365,-1.007537,-0.14993486,0.21876717
881,1222690433,15.78996658,-23.00855064,157.2303162,-0.48148596,-0.54653406,0.9883394
882,1222707100,15.34075737,-22.09088135,157.391037,-0.32821542,-0.72932845,0.8876476
883,1222723767,14.76429939,-21.21784782,157.5360107,-0.3652519,-0.5949643,1.0476942
884,1222740434,14.18653965,-20.37820053,157.6638336,-0.26941368,-0.13426468,1.3159075
885,1222757101,13.63753414,-19.6288166,157.7783051,-0.37514257,0.27869213,0.7091961
886,1222773768,13.1770525,-18.9847393,157.8574524,0.12585287,0.6815378,0.8429651
887,1222790435,12.87476158,-18.452528,157.9094391,0.42136198,0.55301553,0.9280243
888,1222807102,12.79758644,-18.01812172,157.9671783,0.32185155,0.6739282,0.62902164
889,1222823769,12.79637909,-17.61224365,158.0059357,0.45107523,1.0751531,0.8192835
890,1222840436,12.94352722,-17.29867554,158.0283661,0.59472173,0.5436461,1.0685654
891,1222857103,13.18533802,-17.0935154,158.0702362,0.27101213,0.24295212,0.8885298
892,1222873770,13.41945457,-16.94459915,158.1307526,-0.05622463,0.25590795,1.1414576
893,1222890437,13.61295605,-16.88355827,158.1631775,-0.23708053,0.02118942,1.3202477
894,1222907104,13.79569721,-16.94474983,158.1627655,-0.3981611,-0.034109082,1.1237345
895,1222923771,13.90156269,-17.08379936,158.1566925,-0.3378353,0.36089534,1.143424
896,1222940438,13.91884708,-17.28551102,158.151535,-0.15016733,0.2714932,1.1665516
897,1222957105,13.90423107,-17.60495949,158.1755371,0.016577397,-0.14157699,1.1119041
898,1222973772,13.79433823,-18.03086662,158.2249603,0.12853214,-0.14419332,1.2923527
899,1222990439,13.650424,-18.57635307,158.2594757,-0.05515949,-0.27122334,1.1813364
900,1223007106,13.49416924,-19.23891449,158.255661,-0.26178798,-0.5684756,1.1513634
901,1223023773,13.23860359,-20.01219749,158.1681519,-0.15469688,-0.230478,1.0970163
902,1223040440,12.79646301,-20.84752274,158.0034027,0.18733029,-0.050246578,1.602274
903,1223057107,12.32512951,-21.77563095,157.8376465,0.36711034,-0.33439058,1.4236622
904,1223073774,11.95923519,-22.82731056,157.681427,0.35505217,0.09207357,0.84763336
905,1223090441,11.73046207,-23.9869976,157.4849243,0.41750628,0.5638667,0.5405054
906,1223107108,11.68432999,-25.22228241,157.2752075,0.7587373,0.50718987,0.6342821
907,1223123775,11.80565739,-26.50312042,157.0967255,0.768375,0.378238,0.4825058
908,1223140442,12.08861446,-27.86948967,156.9512329,0.67777574,0.5487302,0.3367548
909,1223157109,12.55662632,-29.3411808,156.8331451,0.65847814,0.8025769,0.3938589
910,1223173776,13.18780708,-30.89045334,156.7466888,0.46704054,0.94163257,0.12286377
911,1223190443,13.92316532,-32.50693512,156.6914368,0.29216906,0.8643594,0.1089077
912,1223207110,14.69636154,-34.19522858,156.7061768,-0.10044968,0.5049038,0.21371174
913,1223223777,15.44513893,-35.94469833,156.8217773,-0.62546575,0.06514492,0.050691605
914,1223240444,16.06138039,-37.76014328,157.0144196,-0.78395444,-0.2488549,0.14383316
915,1223257111,16.49919701,-39.5975914,157.2784424,-1.018161,-0.60650617,0.07999325
916,1223273778,16.74462128,-41.43858719,157.5968933,-0.9119364,-0.69557935,0.1067791
917,1223290445,16.77996063,-43.28678131,157.9380951,-0.71296173,-0.7054955,-0.004197121
918,1223307112,16.60729027,-45.17427826,158.2611847,-0.73461324,-0.8229403,-0.31419182
919,1223323779,16.30992889,-47.11009598,158.5334625,-0.8692948,-0.9962862,-0.5387783
920,1223340446,15.87837696,-49.10605621,158.7423248,-1.0256917,-1.0301205,-0.7611313
921,1223357113,15.33656979,-51.13346481,158.9056244,-0.923273,-0.7630071,-0.8424616
922,1223373780,14.76541138,-53.16587448,159.0230408,-0.9095713,-0.5566264,-0.9930916
923,1223390447,14.16880226,-55.19381714,159.1053619,-0.7609285,-0.57448655,-0.87350273
924,1223407114,13.54028797,-57.23412323,159.1513824,-0.71449214,-0.5368242,-0.8358145
925,1223423781,12.79620647,-59.27590561,159.2185211,-0.56551296,-0.5013199,-0.8418875
926,1223440448,11.83937168,-61.29129791,159.3683929,-0.66510004,-0.5790019,-1.0812178
927,1223457115,10.61317253,-63.24443817,159.6070709,-0.54693264,-0.39955804,-1.1743145
928,1223473782,9.216649055,-65.23854828,159.8641663,0.001756622,-0.4202075,-1.1968412
929,1223490449,7.737462044,-67.19842529,160.1873169,0.15301982,-0.28983048,-1.2890139
930,1223507116,6.208762646,-69.02755737,160.6194153,-0.028884549,-0.02207386,-1.334404
931,1223523783,4.621995449,-70.72992706,161.1070404,-0.049723014,0.32180873,-1.0789309
932,1223540450,2.979480982,-72.39833069,161.6584015,0.44003,0.6653721,-0.95684433
933,1223557117,1.414814234,-74.1153717,162.3012085,0.93627733,0.8316751,-0.88736343
934,1223573784,-0.158553168,-75.77496338,163.1784363,1.2919812,1.18942,-0.60872936
935,1223590451,-1.877999425,-77.16788483,164.4054413,1.4473817,1.8201816,0.024108887
936,1223607118,-3.583378077,-78.34857178,165.943634,1.686035,2.0114646,0.38374233
937,1223623785,-5.159572601,-79.4031601,167.6764832,1.920939,1.9104828,0.6373453
938,1223640452,-6.63497448,-80.31783295,169.6092987,2.012845,1.5000426,0.6564083
939,1223657119,-8.020590782,-81.0621109,171.7301178,1.9024916,1.0492163,0.8336086
940,1223673786,-9.502923012,-81.70545197,174.1996765,1.2870793,1.0189298,0.9985838
941,1223690453,-10.99961948,-82.2359314,176.8269958,0.6187186,0.8989708,1.1381159
942,1223707120,-11.94478989,-82.60944366,178.9540863,-0.24148074,0.49616525,1.099638
943,1223723787,-11.74445152,-82.8217926,179.8989258,-1.0103483,0.21867093,0.7620821
944,1223740454,-10.69684219,-82.93470001,179.9495239,-1.3664571,0.08806841,0.24388123
945,1223757121,-9.963848114,-83.08599091,-179.771637,-1.4863131,-0.24917202,-0.1785183
946,1223773788,-10.25277328,-83.32952881,-178.6801147,-1.6063377,-0.796611,-0.2520914
947,1223790455,-11.36613369,-83.55445862,-177.0699463,-1.590029,-1.1744332,-0.11289692
948,1223807122,-13.05511761,-83.72761536,-175.2017517,-1.2404447,-1.1887858,-0.28919125
949,1223823789,-15.30925274,-83.88265991,-173.1247101,-0.88428414,-0.96440285,-0.33595276
950,1223840456,-17.12097931,-83.92197418,-171.7849731,-0.92669016,-0.57633215,0.1561451
951,1223857123,-18.52745628,-83.81990814,-170.9339294,-0.65106356,-0.340632,0.74011517
952,1223873790,-21.29776955,-83.73196411,-168.6999359,0.003476353,-0.25044224,1.5882454
953,1223890457,-22.8866806,-83.45012665,-167.4856567,-0.7229255,0.6487154,1.6191082
954,1223907124,-20.13792038,-83.22115326,-170.7290344,0.40082154,2.1209757,-1.0988874
955,1223923791,-17.69747162,-83.5799942,-173.9175262,1.5661907,1.4271295,-2.1558814
956,1223940458,-18.42297745,-84.14951324,-173.631958,0.56501704,0.09330579,-0.333642
957,1223957125,-21.13350105,-84.27820587,-171.0964813,-1.3368284,-0.2754914,1.8443432
958,1223973792,-22.48700142,-83.94838715,-169.8281708,-1.7026134,0.0192638,1.8903446
959,1223990459,-21.85626411,-83.51448059,-170.4386139,-1.2131914,0.33512077,0.7692652
960,1224007126,-20.04292107,-83.14450836,-172.1362305,-0.5856193,0.60197055,-0.218606
961,1224023793,-17.95580101,-82.95519257,-174.0492096,0.10531334,0.9574116,-0.5803194
962,1224040460,-16.08975792,-82.99520874,-175.6719208,0.33051565,1.2434071,-0.16308498
963,1224057127,-14.51931953,-83.10516357,-176.9837494,0.11529808,1.1933093,0.3618269
964,1224073794,-13.43530369,-83.12719727,-177.8247681,-0.3442589,0.8733544,0.49006557
965,1224090461,-12.50401783,-82.98429108,-178.519928,-0.7338478,0.28899816,0.37036228
966,1224107128,-11.25794601,-82.72648621,-179.5827637,-1.0849626,-0.2438077,0.22203255
967,1224123795,-9.585745811,-82.41946411,178.8010406,-1.1806705,-0.53271383,0.37337112
968,1224140462,-7.670366764,-82.04364777,176.7485657,-1.0844488,-0.5323276,0.4337921
969,1224157129,-5.83039856,-81.57489777,174.553009,-0.6925243,-0.5086427,0.30380917
970,1224173796,-4.26051569,-81.03445435,172.4470062,-0.2767739,-0.46908417,0.307477
971,1224190463,-3.029211998,-80.46211243,170.5554199,-0.033906873,-0.34730357,0.3349638
972,1224207130,-2.084470272,-79.86742401,168.8987579,-0.18220297,-0.27329996,0.30044365
973,1224223797,-1.131877899,-79.17036438,167.2576447,-0.4916821,-0.088702455,0.23458576
974,1224240464,-0.030045852,-78.3799057,165.5198212,-0.45513132,0.26727527,0.052122116
975,1224257131,0.970376492,-77.52088165,163.9106293,0.26961163,0.5745794,0.05322647
976,1224273798,1.797998905,-76.56614685,162.4955292,0.8632423,0.8741565,0.5654602
977,1224290465,2.591044903,-75.47984314,161.2151489,0.8313123,1.1184359,0.9193373
978,1224307132,3.413007259,-74.33047485,160.1557617,0.40941256,1.3955448,0.85857296
979,1224323799,4.134800911,-73.08455658,159.4647064,0.15269732,1.6333361,0.46938038
980,1224340466,4.609358788,-71.67355347,159.2498474,0.7509199,1.8600315,0.07303333
981,1224357133,4.907711506,-70.12051392,159.4026184,1.6813527,1.9192644,0.20729733
982,1224373800,5.148147106,-68.50701904,159.7573547,1.9975268,1.7290611,0.3014946
983,1224390467,5.546061993,-66.91121674,160.3036194,1.0704076,0.6904358,0.0996294
984,1224407134,6.668830395,-65.48970032,160.725235,-0.13525756,-0.6659437,-0.7659807
985,1224423801,8.641713142,-64.28534698,160.7118835,-0.91244376,-1.1173737,-1.3018999
986,1224440468,11.1280365,-63.1883812,160.2230072,-0.58444846,-1.3222412,-1.5093966
987,1224457135,13.43459702,-62.14770889,159.4733276,0.2730015,-1.2436919,-1.0305128
988,1224473802,15.14319706,-61.05750656,158.7129364,0.51528573,-1.2153544,-0.28436184
989,1224490469,16.47379112,-59.81015778,158.0670471,-0.4240309,-1.9876859,0.24630642
990,1224507136,17.48074341,-58.45519638,157.4759521,-0.50376624,-2.29271,-0.13674927
991,1224523803,17.74313164,-56.94078064,157.0810852,0.4178002,-1.6867095,-0.5426903
992,1224540470,17.15912247,-55.35086823,157.0586548,1.5797257,-0.65023303,-0.7898779
993,1224557137,16.16053391,-53.6481781,157.4043274,0.71215653,0.20595104,-1.6805315
994,1224573804,15.17628098,-51.85655212,157.9317017,0.78439564,-0.31053978,-1.7239027
995,1224590471,14.61961365,-50.10742188,158.4844971,0.42805538,-1.289297,-1.5292377
996,1224607138,14.42199039,-48.52508545,158.8831329,-0.006247096,-1.5328351,-1.1020927
997,1224623805,14.19939613,-47.12524414,158.961319,-0.122851804,-0.7119155,-1.0281181
998,1224640472,13.88460636,-45.80553055,158.6728516,0.23587137,0.5781916,-0.91988754
999,1224657139,13.64714813,-44.34486008,158.2175598,0.6114951,1.4452024,-0.38017368
1000,1224673806,13.4406147,-42.74994278,157.7998657,0.60490984,1.5684742,0.31232738
1001,1224690473,13.55389309,-41.12665939,157.5353241,-0.7401371,0.24676266,0.6307697
1002,1224707140,13.86601734,-39.65865707,157.4162598,-1.2102288,-0.61412555,0.36160183
1003,1224723807,13.93885803,-38.32775879,157.4154053,-1.0655432,0.108897716,-0.6999092
1004,1224740474,13.84986115,-37.03216553,157.4938354,0.034947712,0.57644045,-0.5531626
1005,1224757141,13.97099495,-35.73397064,157.5799713,0.66981685,0.7149737,0.11554241
1006,1224773808,14.52070618,-34.41856766,157.6800537,0.19989926,1.005959,0.2896309
1007,1224790475,15.23074627,-33.07654572,157.7284698,-0.5702333,0.61857617,0.014063835
1008,1224807142,15.83690071,-31.809021,157.6407928,-0.9555095,-0.20112582,-0.11185551
1009,1224823809,16.09990692,-30.60961914,157.4091492,-0.1235473,-0.8007345,0.9409418
1010,1224840476,16.20252037,-29.4821701,157.1210938,0.25367555,-1.163542,1.2232981
1011,1224857143,16.1986618,-28.41744041,156.9198151,0.056737423,-0.53110754,0.7242212
1012,1224873810,16.09895325,-27.37667656,156.8370514,-0.3035088,0.53927404,-0.37077236
1013,1224890477,15.85196781,-26.38039589,156.8291473,0.18384092,1.08147,0.07545757
1014,1224907144,15.4098053,-25.3886261,156.8540039,0.12791829,1.1828898,0.58944607
1015,1224923811,14.97314072,-24.46312332,156.9552307,-0.0860047,1.0317817,1.2784147
1016,1224940478,14.60261631,-23.67548752,157.1391296,-0.69549763,1.0474122,0.9447088
1017,1224957145,14.15336514,-22.97387886,157.3659668,-1.0732015,0.87590814,0.42686558
1018,1224973812,13.67281723,-22.30143547,157.6446838,-0.62555516,0.4699152,0.6995878
1019,1224990479,13.25261116,-21.620224,157.962265,-0.1188638,0.34983963,0.6330261
1020,1225007146,12.97457409,-20.97000504,158.2404327,0.29205656,0.36541727,0.44167995
1021,1225023813,12.94466305,-20.41235924,158.4259186,0.76567346,0.4594967,0.77268887
1022,1225040480,13.1808176,-19.96020317,158.5355072,0.86080176,0.39893287,0.7615566
1023,1225057147,13.56193829,-19.56443787,158.5923004,0.43224767,0.16176692,0.23939991
1024,1225073814,13.90729332,-19.22693443,158.5916595,0.10874238,-0.2732747,0.54661274
1025,1225090481,14.10928917,-18.93926811,158.5561676,-0.07280967,-0.66490704,0.8927765
1026,1225107148,14.20940399,-18.7120266,158.5371094,-0.089111194,-0.79887265,1.0544853
1027,1225123815,14.29870796,-18.56745529,158.5875549,0.2512132,-0.5716726,1.451747
1028,1225140482,14.33566189,-18.55058479,158.668869,0.20133127,-0.38071334,0.94637966
1029,1225157149,14.30194759,-18.62890625,158.7105713,0.2546429,-0.14232132,1.0290537
1030,1225173816,14.22007561,-18.7790451,158.6918335,0.44078156,0.003533125,1.0132465
1031,1225190483,14.15752983,-19.04785347,158.6261139,0.6760491,0.14837047,1.239788
1032,1225207150,14.13011837,-19.45434952,158.5623169,0.52005875,0.22244757,1.151022
1033,1225223817,14.13258076,-19.97081566,158.5526428,0.25634852,0.34315774,1.3810282
1034,1225240484,14.19248486,-20.59342003,158.5952911,-0.03459422,0.15574056,1.3144789
1035,1225257151,14.25902367,-21.33588982,158.6609497,-0.06739103,-0.3668144,1.5464725
1036,1225273818,14.25953865,-22.21827698,158.6893158,-0.08285375,-0.6540694,1.3785563
1037,1225290485,14.12196255,-23.21617126,158.6628113,-0.039232697,-0.24521475,1.1683369
1038,1225307152,13.80351067,-24.25633049,158.5701141,0.19219117,0.44375014,0.92962265
1039,1225323819,13.45701122,-25.33801079,158.4278412,0.24120139,0.6103444,0.3537073
1040,1225340486,13.14670277,-26.49359322,158.2901611,0.5601882,0.32769853,0.40691853
1041,1225357153,12.8539362,-27.73879623,158.2106781,0.6572434,0.19840667,0.42737293
1042,1225373820,12.66928959,-29.05192947,158.2032318,0.6381858,0.2678146,0.44484138
1043,1225390487,12.75180435,-30.43681145,158.2337036,0.6187845,0.5353284,0.33541393
1044,1225407154,13.15346146,-31.9099884,158.2372894,0.70314044,0.87161595,0.32322788
1045,1225423821,13.90573311,-33.47373199,158.1271362,0.70748156,1.0813167,0.3578329
1046,1225440488,15.0675478,-35.11621094,157.8753662,0.45634085,0.8980882,0.42789555
1047,1225457155,16.49819565,-36.81307983,157.521637,-0.091819,0.42417732,0.11244106
1048,1225473822,17.95304298,-38.57263184,157.1519775,-0.34556073,-0.23249382,0.032409668
1049,1225490489,19.26059723,-40.39359665,156.8688354,-0.5576164,-0.9152346,0.0634222
1050,1225507156,20.31355286,-42.32488632,156.7429199,-0.92210305,-1.5317986,0.09994507
1051,1225523823,20.96560478,-44.35773468,156.7594452,-1.4983093,-1.6955143,0.119184494
1052,1225540490,21.11211967,-46.45834351,156.8744049,-1.790493,-1.6637895,0.33209896
1053,1225557157,20.71566772,-48.56901932,157.043808,-1.7071416,-1.4570262,0.3445816
1054,1225573824,19.87528801,-50.64260864,157.1982727,-1.4129226,-1.2313876,-0.029726028
1055,1225590491,18.72070313,-52.67269516,157.2739258,-1.2068069,-0.9686259,-0.6970749
1056,1225607158,17.45620537,-54.67487335,157.2685242,-1.2008592,-0.7520387,-1.217248
1057,1225623825,16.13005447,-56.666008,157.2468109,-1.0145414,-0.59801805,-1.3417654
1058,1225640492,14.71286297,-58.65759659,157.2829437,-1.2374845,-0.46043092,-1.4813757
1059,1225657159,13.20767879,-60.64538193,157.3954315,-1.0226709,-0.18838018,-1.5549326
1060,1225673826,11.72336102,-62.67710114,157.4350891,-0.26213184,0.12748782,-1.3861256
1061,1225690493,10.52234936,-64.69612122,157.3487244,0.08430055,0.051067512,-0.891634
1062,1225707160,9.708709717,-66.66172028,157.0627441,-0.005445942,-0.020077555,-0.6142664
1063,1225723827,9.21542263,-68.59520721,156.5523834,-0.03574034,0.21308647,-0.7622118
1064,1225740494,8.845092773,-70.52521515,155.9751587,0.029674683,0.4785524,-1.2804489
1065,1225757161,8.401813507,-72.42470551,155.5093079,0.52515775,0.6432696,-1.620863
1066,1225773828,7.769737244,-74.35778046,155.3231812,0.80162275,0.7722939,-1.4881907
1067,1225790495,6.829060078,-76.31348419,155.6367798,0.65032023,0.7788139,-1.1014566
1068,1225807162,5.400577068,-78.18418884,156.6357269,0.9016496,1.1878526,-0.77671146
1069,1225823829,3.441803455,-79.94934082,158.3476105,1.1786948,1.7367791,-0.58863735
1070,1225840496,0.961634278,-81.63747406,160.8841095,1.3121758,1.7844,-0.2761202
1071,1225857163,-2.243451834,-83.22995758,164.4658813,1.5244517,1.630278,0.032276154
1072,1225873830,-6.85160923,-84.67366028,169.6663666,0.98889655,1.5521036,0.48469353
1073,1225890497,-13.63842583,-85.87526703,177.21521,0.514745,1.3787206,1.006854
1074,1225907164,-24.51368332,-86.83331299,-171.0205688,0.10661815,1.0441823,1.0968552
1075,1225923831,-43.16577911,-87.51052856,-151.4323578,-0.1388393,0.610665,0.7455683
1076,1225940498,-69.9446106,-87.72763824,-123.6681595,-0.18521759,0.40592337,0.44014263
1077,1225957165,-93.26379395,-87.43639374,-99.26573944,-0.3239183,0.29689276,0.18579388
1078,1225973832,-107.2469101,-86.93273926,-84.0994873,-0.73290515,0.06517378,0.06060314
1079,1225990499,-116.2858734,-86.37690735,-73.87095642,-1.1438513,-0.2982615,0.23738289
1080,1226007166,-123.7717819,-85.76862335,-65.36392212,-1.1288426,-0.9723104,0.42856216
1081,1226023833,-130.0397644,-85.13051605,-58.34446716,-0.75264263,-1.5285988,0.6212692
1082,1226040500,-134.5210266,-84.5995636,-53.36696625,-0.17974484,-1.6295819,0.8620205
1083,1226057167,-137.0166473,-84.27094269,-50.5842514,0.38963535,-1.3962718,1.0658665
1084,1226073834,-137.7626038,-84.13826752,-49.74820328,0.72095746,-1.0440207,0.9742594
1085,1226090501,-137.302063,-84.12904358,-50.32630539,0.7417586,-0.6449011,0.59556484
1086,1226107168,-136.347229,-84.184021,-51.56913757,0.47431988,-0.2388077,0.3853073
1087,1226123835,-135.4385376,-84.27231598,-52.86308289,0.13559945,0.09918963,0.26881695
1088,1226140502,-134.9333191,-84.35007477,-53.77488327,-0.003873879,0.18256412,-0.1365118
1089,1226157169,-135.0028229,-84.35385132,-54.07562637,-0.06257963,0.2582434,-0.055067062
1090,1226173836,-135.2476044,-84.35478973,-54.12620544,-0.32735935,0.712408,0.6078367
1091,1226190503,-135.2232513,-84.43965912,-54.28616333,-0.5087842,1.179316,0.5149555
1092,1226207170,-135.6237335,-84.4760437,-53.89188004,-0.24705535,1.2013632,-0.15263176
1093,1226223837,-136.7005005,-84.38371277,-52.80767822,0.21793343,0.8081857,-0.24909401
1094,1226240504,-137.6570587,-84.24855042,-51.83656693,0.32319427,0.35554564,0.12426472
1095,1226257171,-137.9058075,-84.12804413,-51.49013138,-0.03210725,0.023633087,0.26887035
1096,1226273838,-137.5226135,-84.01244354,-51.7218895,-0.53030556,-0.15987892,0.3799858
1097,1226290505,-136.6173096,-83.96678162,-52.45812225,-0.8538688,-0.1898609,0.69022083
1098,1226307172,-135.4440765,-84.04346466,-53.46808243,-0.6665839,-0.24174502,0.55596733
1099,1226323839,-134.44104,-84.17193604,-54.34656143,-0.2611148,-0.43174008,0.26750088
1100,1226340506,-133.7430725,-84.28662872,-54.97777939,0.09472034,-0.4832382,0.2776804
1101,1226357173,-133.0588226,-84.4109726,-55.65155029,0.13900757,-0.33429182,0.34369564
1102,1226373840,-131.8510742,-84.60403442,-56.82620621,-0.24022035,-0.012546774,0.41008377
1103,1226390507,-129.9520569,-84.87058258,-58.61953735,-0.7885787,0.35228863,0.48886204
1104,1226407174,-127.5112305,-85.18766022,-60.95949936,-1.1641574,0.55066353,0.4901247
1105,1226423841,-124.8383713,-85.53186798,-63.62070465,-1.2838182,0.6515659,0.2756939
1106,1226440508,-122.4979172,-85.8462677,-66.01799774,-1.211174,0.6946427,-0.1422472
1107,1226457175,-120.7787857,-86.08558655,-67.75428772,-0.9710403,0.7763199,-0.52954483
1108,1226473842,-119.7632446,-86.22867584,-68.67251587,-0.73812425,0.78320503,-0.7162943
1109,1226490509,-119.356369,-86.27311707,-68.91163635,-0.55691403,0.55993897,-0.48734856
1110,1226507176,-118.3570328,-86.27112579,-69.77349854,-0.3322083,0.095766194,0.17593956
1111,1226523843,-115.2107849,-86.33901215,-72.94824982,-0.031699095,-0.4692884,0.8800106
1112,1226540510,-108.4726715,-86.55281067,-79.94028473,0.23245259,-0.8278923,1.2890396
1113,1226557177,-96.52283478,-86.86431122,-92.28849792,0.53685904,-1.0602288,1.2316608
1114,1226573844,-78.19309998,-87.10517883,-111.0557251,0.58676255,-1.0767194,1.022254
1115,1226590511,-55.99662781,-87.04388428,-133.7132568,0.31472188,-0.8166548,0.80882263
1116,1226607178,-36.62101364,-86.58299255,-153.6276093,0.004123255,-0.40179533,0.48755932
1117,1226623845,-23.32559013,-85.83642578,-167.520752,-0.22613613,-0.019531457,0.05783081
1118,1226640512,-14.91305923,-84.95523071,-176.5318909,-0.31837714,0.18779062,-0.42951488
1119,1226657179,-9.49512291,-84.03234863,177.4802094,-0.23290071,0.12060952,-0.39380836
1120,1226673846,-5.554064751,-83.10450745,172.9966125,-0.42579108,-0.009426603,0.25465775
1121,1226690513,-2.183158636,-82.10064697,169.0894318,-0.5822827,0.103140555,0.39992142
1122,1226707180,0.728792787,-81.04064178,165.6588898,-0.21556762,0.30313265,-0.15130615
1123,1226723847,3.022249222,-79.98782349,162.8549194,0.15756004,0.6064833,-0.27455425
1124,1226740514,4.554763317,-78.87335968,160.8499603,0.5197742,0.8293457,0.008187294
1125,1226757181,5.432697296,-77.60960388,159.6384277,1.31055,0.7914197,0.5817566
1126,1226773848,5.985928535,-76.10277557,158.942215,1.7273581,1.3060303,1.4863491
1127,1226790515,6.273928642,-74.34922028,158.5805817,1.7705725,2.534179,1.4689455
1128,1226807182,6.482057571,-72.53986359,158.5890808,1.9402409,2.354642,0.19959259
1129,1226823849,6.987892151,-70.94352722,158.8654175,1.8168108,1.0003092,-1.0587368
1130,1226840516,8.001392365,-69.46815491,159.0848083,1.3466072,0.7378311,-1.0931673
1131,1226857183,9.34277153,-67.86827087,159.1079102,0.66203296,1.0678641,-0.7262268
1132,1226873850,10.92263889,-66.02115631,158.9537506,-0.026968107,0.9832274,-1.0186472
1133,1226890517,12.83033752,-64.11112213,158.799469,-0.6657455,0.15554227,-1.4936447
1134,1226907184,14.87068939,-62.26317215,158.7369537,-0.0974747,-1.1237923,-1.4660864
1135,1226923851,16.75340843,-60.39803696,158.7234497,0.6615118,-1.3979436,-1.0971766
1136,1226940518,18.32731056,-58.4688797,158.7543793,0.11542291,-1.5547391,-2.0090218
1137,1226957185,19.38013268,-56.59871674,158.91922,-0.09935664,-1.7168949,-2.3287816
1138,1226973852,20.04230881,-54.93574905,159.2212524,-0.64937407,-2.2588608,-1.2220612
1139,1226990519,20.41054726,-53.31035614,159.614502,-1.1240703,-2.5628304,-0.048397064
1140,1227007186,20.30020905,-51.70375824,159.8890533,-0.24238315,-2.2202108,0.14505577
1141,1227023853,19.52698517,-50.02060318,160.0032959,-0.5386465,-0.030856801,-1.1629353
1142,1227040520,18.52827835,-48.28336716,160.061203,0.5999024,1.0669822,-0.8795767
1143,1227057187,17.97047424,-46.54809952,160.1707916,0.06239081,0.6679343,-0.19264221
1144,1227073854,17.54424286,-44.72256851,160.3347626,-0.17698057,0.662039,-0.32495975
1145,1227090521,16.98710823,-42.95416641,160.5516815,-0.6944408,0.37176684,-1.0780125
1146,1227107188,16.41690445,-41.2563324,160.7891235,-0.33098352,0.04042835,-1.0615349
1147,1227123855,16.12658882,-39.5643425,161.0219727,0.25949734,0.064143635,-0.007880211
1148,1227140522,16.21857452,-37.89126587,161.2505493,-0.28780755,0.30869263,0.5332794
1149,1227157189,16.57559967,-36.26990509,161.4451752,-1.6847188,0.38452482,-0.2617874
1150,1227173856,16.94679642,-34.76246262,161.588028,-0.8809198,0.13407136,0.30644703
1151,1227190523,17.19381332,-33.325634,161.7223663,-0.39426422,-0.38790444,0.7457104
1152,1227207190,17.47790146,-31.88994789,161.8356171,-0.95384645,-1.0138311,0.7942076
1153,1227223857,17.88766098,-30.5480423,161.8465271,-1.6333746,-0.89022493,1.0206766
1154,1227240524,18.24217224,-29.2663765,161.7425995,-1.5480838,-0.054991703,1.054245
1155,1227257191,18.45483398,-28.03952408,161.5658722,-0.897507,-0.062578596,0.93000793
1156,1227273858,18.58278275,-26.85712433,161.3561554,-0.41613144,-0.6534199,0.8219099
1157,1227290525,18.65728188,-25.71395874,161.1461029,-0.21619721,-0.4706528,0.536293
1158,1227307192,18.53763199,-24.60959244,161.0002747,0.09980929,0.21235019,0.3085003
1159,1227323859,18.13291359,-23.53136826,160.9608307,0.23635235,0.4292854,0.31781864
1160,1227340526,17.52342796,-22.51761818,161.0563049,0.21646982,0.15016364,0.509717
1161,1227357193,16.77132225,-21.57487106,161.2643433,0.14288044,0.37636614,0.5665159
1162,1227373860,15.97563362,-20.69206429,161.5184174,0.14096792,0.73305357,0.68964005
1163,1227390527,15.32005119,-19.87072754,161.751358,0.21435486,1.1752393,0.91924953
1164,1227407194,14.87155056,-19.11210442,161.9019928,0.15761556,1.3505174,0.7367735
1165,1227423861,14.67426586,-18.45989799,161.9660187,0.15412188,1.2477407,0.36377525
1166,1227440528,14.69130516,-17.83943558,161.9976044,0.28103617,1.2319328,0.27480412
1167,1227457195,14.95261478,-17.24582481,162.0567932,0.8280844,0.8955513,0.65320015
1168,1227473862,15.44859886,-16.7489357,162.1442108,1.3653268,0.27369684,1.3241491
1169,1227490529,16.05789757,-16.40007019,162.2565613,0.96294653,-0.35235807,0.75467396
1170,1227507196,16.59785843,-16.14488792,162.3787537,0.7857293,-0.2537847,0.78207016
1171,1227523863,16.93097115,-15.98604965,162.460556,0.77195174,-0.5619452,0.8789549
1172,1227540530,17.09763718,-15.95520592,162.5075226,0.795265,-1.0914421,0.9897032
1173,1227557197,17.01974297,-16.0118618,162.5537567,0.9139622,-0.97961515,1.2156639
1174,1227573864,16.74947548,-16.16900063,162.61203,1.0418994,-0.8414947,1.3782845
1175,1227590531,16.38300514,-16.45923042,162.693161,0.90494883,-0.78886783,0.92287064
1176,1227607198,15.94925213,-16.87089157,162.7841949,0.6701635,-0.744518,0.7779722
1177,1227623865,15.48272038,-17.36322594,162.8582001,0.58140284,-0.6199045,1.0483742
1178,1227640532,15.03958321,-17.99151039,162.8876648,0.60991794,-0.15592854,1.0106745
1179,1227657199,14.71008778,-18.74229622,162.867981,0.6877393,0.5475775,1.0813036
1180,1227673866,14.63404465,-19.61156464,162.8079071,0.5108253,0.83952177,0.9487028
1181,1227690533,14.80428696,-20.56468201,162.7148132,0.30592045,0.78680885,0.88836
1182,1227707200,15.14745045,-21.61362267,162.6038513,0.5049298,0.33224043,1.1649294
1183,1227723867,15.5753088,-22.77210426,162.4769287,0.4729181,-0.16576087,0.855196
1184,1227740534,15.96869183,-24.02471352,162.3347778,0.55838597,-0.24555306,0.766901
1185,1227757201,16.29164696,-25.351511,162.1980133,0.731097,-0.29226273,0.8327303
1186,1227773868,16.59484673,-26.77451515,162.0743713,0.67144346,-0.6237389,0.70831966
1187,1227790535,16.86558151,-28.29551506,161.9354095,0.6478307,-0.80475646,0.8316097
1188,1227807202,17.08300972,-29.89827538,161.7535553,0.27084243,-1.0561703,0.64038086
1189,1227823869,17.29281998,-31.59004784,161.511795,-0.03626988,-1.1805546,0.36816406
1190,1227840536,17.38677025,-33.35612488,161.1878204,-0.07078992,-1.0001644,0.17551136
1191,1227857203,17.38555336,-35.18693542,160.8085022,-0.19336878,-0.9285671,0.02677536
1192,1227873870,17.39030457,-37.1159935,160.3835754,-0.24848843,-0.68079585,0.20587158
1193,1227890537,17.39876556,-39.12073898,159.9706879,-0.6257916,-0.19101381,0.15513706
1194,1227907204,17.38183403,-41.17511749,159.5804291,-1.2656329,0.45220363,-0.1590271
1195,1227923871,17.34107208,-43.27536011,159.1906891,-1.1247009,0.7320399,0.06787968
1196,1227940538,17.2659626,-45.38694382,158.8439178,-0.7889039,0.77109087,0.18438911
1197,1227957205,17.06235504,-47.51642609,158.5978394,-0.6888249,0.881188,-0.05472374
1198,1227973872,16.64329529,-49.65197372,158.4510956,-0.41876227,0.9878441,-0.24393654
1199,1227990539,16.11722183,-51.78855896,158.3760529,-0.7437544,0.8725733,-0.767272
1200,1228007206,15.50557995,-53.93522644,158.3652802,-0.9473478,0.5164686,-0.95282364
1201,1228023873,14.77001476,-56.13897705,158.4364777,-1.0591711,0.14693086,-1.0321817
1202,1228040540,13.87619591,-58.39225006,158.5939941,-0.8239698,-0.08551866,-1.0576382
1203,1228057207,12.92977142,-60.62417984,158.8196869,-1.0584306,-0.042498138,-1.0918093
1204,1228073874,11.95913506,-62.80025101,158.9956207,-1.2375238,0.11851855,-1.0287476
1205,1228090541,11.1082449,-64.91153717,159.0058594,-1.0591267,0.3808607,-0.7769661
1206,1228107208,10.36038589,-67.02713776,158.890213,-1.1286906,0.35317394,-0.6151352
1207,1228123875,9.59160614,-69.10311127,158.7802277,-0.99201196,-0.005303739,-0.7021799
1208,1228140542,8.734560966,-71.15955353,158.7209167,-0.84651285,-0.1183728,-1.2899427
1209,1228157209,7.81107378,-73.23124695,158.7283173,-0.1626858,0.18069315,-1.8393264
1210,1228173876,6.753294468,-75.22029877,158.9470367,0.19542225,0.62056106,-1.8575311
1211,1228190543,5.316483974,-77.07058716,159.6526489,0.74479073,0.873423,-1.646903
1212,1228207210,3.167378426,-78.77578735,161.2257233,1.048527,0.84680223,-1.0702257
1213,1228223877,0.181011125,-80.33167267,163.8398743,0.9873926,0.90049803,-0.61207485
1214,1228240544,-3.844595194,-81.81467438,167.7245636,0.9552255,0.79952526,-0.034811974
1215,1228257211,-8.762119293,-83.20941925,172.8724823,0.87764406,0.7544751,0.4219904
1216,1228273878,-14.35053539,-84.50802612,179.0917206,0.96730137,0.96167475,0.55619335
1217,1228290545,-21.46084404,-85.71266937,-172.8841858,0.9434635,1.448632,0.77447605
1218,1228307212,-31.50728416,-86.75526428,-161.736496,0.80300176,1.6626015,0.8461094
1219,1228323879,-47.56792068,-87.5495224,-144.4275513,0.33066878,1.6465858,0.6987524
1220,1228340546,-71.38261414,-87.89782715,-119.2667313,-0.14814758,1.2711906,0.3790655
1221,1228357213,-94.08059692,-87.68751526,-95.18692017,-0.5682371,0.55595315,0.08368969
1222,1228373880,-108.4225845,-87.11798859,-79.48279572,-0.7822559,-0.13895044,-0.01746273
1223,1228390547,-116.7504578,-86.3881073,-69.85095978,-0.7315382,-0.76413286,-0.14155102
1224,1228407214,-122.6076202,-85.5914917,-62.84156418,-0.71649176,-1.2139704,-0.10406399
1225,1228423881,-127.4351883,-84.80163574,-57.09996033,-0.8693023,-1.4647222,0.3088236
1226,1228440548,-131.4567413,-84.09004211,-52.50422668,-0.8926372,-1.6845349,0.73566914
1227,1228457215,-134.4504242,-83.51850128,-49.35211563,-0.71435475,-1.9200943,1.0090084
1228,1228473882,-136.2719116,-83.14282227,-47.76791382,-0.16763559,-2.0639277,1.2129517
1229,1228490549,-137.2215271,-82.99246216,-47.28602219,0.57632416,-1.9092696,1.0270052
1230,1228507216,-137.6952667,-83.03044128,-47.33841705,0.99497074,-1.4171792,0.5727663
1231,1228523883,-138.1503143,-83.09479523,-47.38385391,1.3185306,-0.93045247,0.15280724
1232,1228540550,-138.3391724,-83.0803833,-47.61839676,1.1243817,-0.17534351,0.49575806
1233,1228557217,-137.3616791,-83.2072525,-48.77340317,0.4844611,0.88533014,0.64169216
1234,1228573884,-136.8373718,-83.38328552,-49.35174561,0.3634233,1.3653,-0.04445362
1235,1228590551,-137.8656921,-83.39208984,-48.37651443,0.29640603,1.150672,-0.4792137
1236,1228607218,-139.5489349,-83.18655396,-46.70516968,-0.026029827,0.9547957,-0.26108265
1237,1228623885,-140.4122925,-82.92274475,-45.7572403,-0.35010466,0.7717214,0.20301819
1238,1228640552,-140.2531891,-82.68930054,-45.6562767,-0.56513536,0.4930679,0.38968182
1239,1228657219,-139.4751892,-82.50927734,-46.06123734,-0.67114127,0.24229975,0.44698524
1240,1228673886,-138.7534637,-82.40896606,-46.47197342,-0.5285483,-0.0647958,0.5702896
1241,1228690553,-138.2518921,-82.40074921,-46.77914429,-0.3278386,-0.4316718,0.47427654
1242,1228707220,-137.8162384,-82.43439484,-47.09199142,-0.30777407,-0.6782303,0.2527399
1243,1228723887,-137.407608,-82.4724884,-47.46497726,-0.3597659,-0.7024509,0.21790123
1244,1228740554,-137.033783,-82.51541138,-47.92229462,-0.31530046,-0.4834897,0.06847572
1245,1228757221,-136.829834,-82.53860474,-48.32692719,-0.31755942,-0.20539708,-0.14235115
1246,1228773888,-136.869812,-82.53659821,-48.57225418,-0.25697434,0.019500963,0.024211884
1247,1228790555,-136.8829956,-82.54593658,-48.84871674,-0.004192575,0.19816522,0.3207264
1248,1228807222,-136.6277924,-82.61220551,-49.32183838,0.1383198,0.3025738,0.5359621
1249,1228823889,-136.0599213,-82.76187897,-50.04453278,-0.042764865,0.41747192,0.81073856
1250,1228840556,-135.2147522,-83.02275848,-51.01477814,-0.10315219,0.49014783,0.9177151
1251,1228857223,-134.0959167,-83.35940552,-52.2758522,0.038856853,0.49135926,0.7654762
1252,1228873890,-132.4819641,-83.7878952,-54.09065247,0.17737359,0.5300317,0.7861042
1253,1228890557,-129.8634491,-84.35430908,-56.98402786,0.06186918,0.2759339,0.74333096
1254,1228907224,-125.5966873,-85.0405426,-61.56590652,-0.37319866,-0.22011524,0.4794426
1255,1228923891,-119.6194687,-85.74435425,-67.82805634,-0.68718225,-0.59244466,0.18800735
1256,1228940558,-111.5525131,-86.38231659,-76.14634705,-0.8380291,-0.6222461,0.097745895
1257,1228957225,-99.78151703,-86.91555023,-88.16416168,-0.9255957,-0.3132904,0.11872578
1258,1228973892,-83.00222015,-87.25997925,-105.2845917,-1.0977739,0.1226662,0.08618164
1259,1228990559,-62.46440125,-87.29767609,-126.3358688,-1.1659975,0.46978143,-0.0735445
1260,1229007226,-43.51342773,-86.99124146,-145.9390259,-1.0511208,0.48050827,-0.21438885
1261,1229023893,-29.42791748,-86.47840881,-160.7404175,-0.9487747,0.43177125,-0.191082
1262,1229040560,-19.41833878,-85.86621094,-171.5427094,-0.6674702,0.35577142,-0.2187767
1263,1229057227,-11.88066292,-85.16216278,-179.9695435,-0.14082688,0.10157792,-0.056794167
1264,1229073894,-5.457563877,-84.25608063,172.6995544,0.2139383,-0.049442463,0.7375784
1265,1229090561,-0.158748031,-82.88801575,166.6059113,0.6077072,0.093546376,1.483388
1266,1229107228,3.247561455,-81.05519104,162.5662384,0.7571388,0.6518238,1.0972862
1267,1229123895,4.892116547,-79.0541153,160.5454712,0.84151524,1.3270434,0.20969486
1268,1229140562,5.50393486,-77.16326904,159.864975,0.97739,1.6507698,-0.49766064
1269,1229157229,5.902831078,-75.50862885,159.6463165,1.0552664,1.8411691,-0.8072252
1270,1229173896,6.513906002,-74.04920197,159.4844971,1.1235694,1.9776657,-0.50617695
1271,1229190563,7.389151573,-72.61869812,159.4311676,0.4854354,1.7705227,-0.14269161
1272,1229207230,8.502977371,-71.18112183,159.4820099,0.16974106,0.6337322,-0.28041363
1273,1229223897,9.889439583,-69.93946075,159.4375153,-0.18142787,-0.21611325,-0.61006355
1274,1229240564,11.40612984,-68.80200195,159.2794952,-0.5644456,-0.24754825,-0.5864544
1275,1229257231,12.83992577,-67.59409332,159.0825043,-0.8441689,0.1454334,-0.55399513
1276,1229273898,14.03136063,-66.298172,158.9975586,0.24777135,0.22329344,0.033010483
1277,1229290565,15.04631138,-64.98159027,159.0468597,0.36431393,0.023773983,0.1849184
1278,1229307232,15.96192551,-63.55184937,159.0785522,-0.41410673,-0.20129158,-0.14795208
1279,1229323899,16.92376328,-62.00873947,158.944931,-0.5839049,-1.2384348,-0.84560966
1280,1229340566,17.72274208,-60.3495636,158.7633667,0.25360954,-2.2642095,-0.7515898
1281,1229357233,18.2920208,-58.55336761,158.5967407,0.35953185,-2.1056852,-0.9719944
1282,1229373900,18.46455002,-56.77477264,158.4077759,0.33802772,-1.73413,-1.4644241
1283,1229390567,18.31853676,-55.12646484,158.2407532,0.8320149,-1.6757834,-1.286212
1284,1229407234,17.92827606,-53.58808899,158.2512054,0.6929119,-1.7386116,-0.85370445
1285,1229423901,17.39518738,-51.95927429,158.5506134,0.03312184,-1.6374345,-0.5271492
1286,1229440568,16.90629005,-50.22651291,158.922699,-0.70414805,-1.4684947,-0.7691488
1287,1229457235,16.62041473,-48.60006714,159.0845337,-0.077561736,-0.82901144,-0.84735775
1288,1229473902,16.394804,-47.07663727,158.9614258,-0.6772063,0.72814757,-1.3284826
1289,1229490569,16.07184219,-45.41626358,158.7362518,-0.29225826,2.035355,-0.49347115
1290,1229507236,15.92615223,-43.70773697,158.5070648,-0.4649179,2.0994947,0.33943653
1291,1229523903,16.03097916,-42.02982712,158.2493439,-0.4399073,2.062451,0.56106377
1292,1229540570,16.32120514,-40.55028915,157.9691162,0.10151024,1.8526325,0.4545536
1293,1229557237,16.73574257,-39.17719269,157.8367004,0.27610475,1.4203622,0.36421108
1294,1229573904,17.15807152,-37.74964142,157.9093628,-0.10098947,0.8052575,-0.05581665
1295,1229590571,17.50146484,-36.28509521,158.1617126,-0.08169569,-0.11474655,-0.3263836
1296,1229607238,17.70294762,-34.81049728,158.5143738,-0.029248277,-0.85239583,-0.67248154
1297,1229623905,17.70376968,-33.38142395,158.8545227,0.5006487,-1.4134399,-0.2809353
1298,1229640572,17.5526638,-31.99985313,159.0868378,0.06806299,-1.3534797,-0.2771721
1299,1229657239,17.28171158,-30.63214111,159.1405182,-0.23992904,-0.8734387,0.20482922
1300,1229673906,16.92850494,-29.22220039,159.0730438,-0.69861215,-0.6179221,0.51751995
1301,1229690573,16.52384186,-27.79563522,159.0032196,-0.52210104,-0.5486936,0.835536
1302,1229707240,16.14927673,-26.4751873,158.9645081,-0.2444702,-0.33768502,0.6812439
1303,1229723907,15.860219,-25.32880592,158.9570618,0.31395826,0.24059865,0.8557911
1304,1229740574,15.69788837,-24.27043533,159.0085144,0.44765234,0.75213665,0.85766506
1305,1229757241,15.6799593,-23.28284073,159.1160278,0.40697703,0.8389568,0.37404156
1306,1229773908,15.82525349,-22.42744827,159.2265015,0.5787029,0.37113574,0.4798813
1307,1229790575,16.05574608,-21.67752838,159.3174133,0.49496764,-0.2658674,0.78750134
1308,1229807242,16.13510132,-20.98527527,159.3712769,0.22877392,-0.5119603,0.7618313
1309,1229823909,15.9740591,-20.30652237,159.3769073,0.20450707,-0.6716022,1.1939859
1310,1229840576,15.61463928,-19.7076683,159.3175049,-0.14394826,-0.8426111,0.7605972
1311,1229857243,15.05762482,-19.19406891,159.2598419,-0.14375964,-0.5821561,0.91620064
1312,1229873910,14.42457581,-18.75486374,159.2839355,0.31806082,-0.07048375,1.4741983
1313,1229890577,13.90599346,-18.47052956,159.3882294,0.51650673,0.556286,0.9764404
1314,1229907244,13.61946392,-18.28926277,159.5569305,0.6548461,1.2443343,0.8008919
1315,1229923911,13.56489372,-18.21526146,159.7832336,1.225034,1.3433133,1.3655624
1316,1229940578,13.76066399,-18.30934715,160.0340118,1.2554995,1.067919,1.4760485
1317,1229957245,14.17383957,-18.52883148,160.2788696,0.29849955,0.4914557,1.0999498
1318,1229973912,14.65549278,-18.83336639,160.4998474,-0.6089304,-0.1495283,1.1854248
1319,1229990579,14.95600891,-19.26532364,160.6577606,-0.3816747,-0.7750429,1.7188482
1320,1230007246,15.04722118,-19.85103035,160.7767334,0.058144633,-1.5071737,1.7645473
1321,1230023913,14.93072891,-20.54561615,160.8628387,0.3750421,-1.6667244,1.5649185
1322,1230040580,14.67448902,-21.36445618,160.894577,0.52241135,-1.084653,0.97422314
1323,1230057247,14.32867527,-22.28919411,160.8839264,0.6435445,-0.20703636,0.58768463
1324,1230073914,13.99845791,-23.31629181,160.8471375,1.070172,0.4744844,0.86714554
1325,1230090581,13.80710316,-24.44459343,160.8497925,1.0584304,0.89399517,0.8567934
1326,1230107248,13.78521252,-25.69589615,160.9123535,0.8554593,1.2180465,0.8423805
1327,1230123915,13.93258476,-27.07641602,161.006897,0.5752693,1.1868157,0.66110706
1328,1230140582,14.23898411,-28.54442024,161.1136169,0.31036833,0.76749676,0.61037827
1329,1230157249,14.60731602,-30.07928658,161.2045746,0.20449947,0.19146693,0.5089264
1330,1230173916,14.97917175,-31.65859985,161.2621002,0.32012427,-0.3021182,0.5310087
1331,1230190583,15.32048702,-33.28192139,161.2924042,0.31408185,-0.5512901,0.31096935
1332,1230207250,15.63994312,-34.95432281,161.3242035,0.22188422,-0.6480929,0.16386032
1333,1230223917,15.92853069,-36.71236801,161.3450623,-0.10007053,-0.5186134,-0.09853554
1334,1230240584,16.18938065,-38.56633759,161.3454285,-0.56488365,-0.39513734,-0.16599274
1335,1230257251,16.37368202,-40.49188232,161.3236542,-0.8729466,-0.42967224,0.05412674
1336,1230273918,16.46898079,-42.45904922,161.3105011,-1.3399479,-0.4996383,0.12264347
1337,1230290585,16.41312408,-44.45487595,161.3199158,-1.2772732,-0.49374303,0.2892151
1338,1230307252,16.16340828,-46.43126297,161.3532104,-1.2214732,-0.3784869,-0.02246952
1339,1230323919,15.76330471,-48.39322281,161.3760681,-1.2112248,-0.33074573,-0.4777546
1340,1230340586,15.27488518,-50.36072922,161.3508759,-1.0503837,-0.2191449,-0.8502264
1341,1230357253,14.7444458,-52.28689957,161.2816162,-0.4381782,-0.03720091,-0.9633179
1342,1230373920,14.27026176,-54.20772171,161.2092133,0.046502594,0.13058314,-1.143405
1343,1230390587,13.70389938,-56.16957474,161.1767578,0.18150678,0.3193554,-1.5114088
1344,1230407254,12.84125423,-58.16238022,161.2954865,0.09181243,0.2105341,-1.4203882
1345,1230423921,11.70777225,-60.09583664,161.6960449,-0.8178075,-0.03604909,-1.1893864
1346,1230440588,10.3555336,-61.93896484,162.2883148,-0.64409125,-0.24466366,-0.6352577
1347,1230457255,8.967769623,-63.80184174,162.8737183,-0.7847701,-0.17883497,-0.37057018
1348,1230473922,7.620357513,-65.65552521,163.326416,-0.85828364,-0.10188025,-0.24745178
1349,1230490589,6.353909969,-67.47315979,163.6500702,-0.51733553,-0.015559547,-0.53178024
1350,1230507256,5.263537407,-69.32640076,163.8365326,-0.09767254,0.032892026,-1.1961441
1351,1230523923,4.217315197,-71.19941711,163.9708557,0.34807545,0.45481265,-1.5864782
1352,1230540590,3.037937164,-73.03144836,164.2680969,0.58703524,0.7625006,-1.4328556
1353,1230557257,1.446581841,-74.77211761,165.1429749,0.19328244,0.69466084,-1.0020189
1354,1230573924,-0.936343372,-76.43702698,167.0529938,0.15555555,0.5688503,-0.69461346
1355,1230590591,-4.186141491,-78.05422211,170.1053619,0.41272858,0.949129,-0.4381647
1356,1230607258,-8.184948921,-79.59697723,174.1656189,0.9139243,1.4406441,-0.19675255
1357,1230623925,-12.82345009,-81.05225372,179.1649323,1.3034031,1.5300651,0.1307106
1358,1230640592,-18.1496315,-82.38130188,-174.7810822,1.3502316,1.4156519,0.46662807
1359,1230657259,-24.55231094,-83.56986237,-167.2599792,1.2622674,1.2151237,0.5604639
1360,1230673926,-32.50898361,-84.58250427,-157.8734589,0.98616886,0.8457935,0.51387405
1361,1230690593,-42.19001007,-85.41430664,-146.6711273,0.35468838,0.49371916,0.33553982
1362,1230707260,-53.5234108,-86.02679443,-133.8488922,-0.15565431,0.21360593,0.43042183
1363,1230723927,-66.36332703,-86.3456955,-119.5795364,-0.6284909,0.068128176,0.6419258
1364,1230740594,-78.23284912,-86.30053711,-106.3514404,-0.91261625,-0.07935022,0.520216
1365,1230757261,-87.47509003,-85.96652985,-95.8482666,-1.1014472,-0.3005505,0.007440567
1366,1230773928,-95.12529755,-85.45701599,-87.10797882,-1.2758031,-0.49430114,-0.43653202
1367,1230790595,-101.9660492,-84.84000397,-79.41410828,-1.211531,-0.80277896,-0.25212002
1368,1230807262,-107.6382523,-84.19403839,-73.18611145,-1.1890488,-1.1840643,0.6712227
1369,1230823929,-111.4347305,-83.66664886,-69.23773193,-0.78161234,-1.6027129,1.4895716
1370,1230840596,-113.3078461,-83.39601135,-67.68489075,0.03841556,-1.7677935,1.8499184
1371,1230857263,-113.4793854,-83.45462036,-68.15187073,0.75177217,-1.5136539,1.9447002
1372,1230873930,-112.3569717,-83.77420807,-69.94218445,1.2652221,-1.0333122,1.1201754
1373,1230890597,-111.0794525,-84.16104889,-71.77742004,1.2187699,-0.34883413,-0.022871971
1374,1230907264,-110.557724,-84.44042969,-72.74935913,0.8571583,0.3838519,-0.68918896
1375,1230923931,-110.6281281,-84.54245758,-73.03662109,0.30486736,0.9342012,-0.6748791
1376,1230940598,-110.7685547,-84.4704361,-73.08587646,0.027051808,1.2525815,-0.3537464
1377,1230957265,-111.1221466,-84.26554108,-72.65969086,-0.010461601,1.2762271,-0.3584795
1378,1230973932,-112.0355759,-84.0109024,-71.46894836,0.07027589,1.0718876,-0.12585354
1379,1230990599,-113.3477478,-83.78290558,-69.7766037,0.21569236,0.5583982,0.5392494
1380,1231007266,-114.5350189,-83.60720825,-68.1374054,0.28626585,0.1506032,1.0209112
