sep=,
DeviceTag:,femurLeft,,,,,,,,,,,,,,,,,
FirmwareVersion:,1.6.0,,,,,,,,,,,,,,,,,
AppVersion:,1.1,,,,,,,,,,,,,,,,,
SyncStatus:,Synced,,,,,,,,,,,,,,,,,
OutputRate:,60Hz,,,,,,,,,,,,,,,,,
FilterProfile:,General,,,,,,,,,,,,,,,,,
Measurement Mode:,Sensor fusion Mode - Complete (Euler),,,,,,,,,,,,,,,,,
StartTime:,2021-03-10 17:34:59.858 +0800,,,,,,,,,,,,,,,,,
© Xsens Technologies B. V. 2005-2021,,,,,,,,,,,,,,,,,,,

PacketCounter,SampleTimeFine,Euler_X,Euler_Y,Euler_Z,FreeAcc_X,FreeAcc_Y,FreeAcc_Z
1, 1208023473, -112.57592010498047, -82.37860107421875, -74.09050750732422, -0.2929091, 0.31640464, 0.034710884
2, 1208040140, -112.73509979248047, -82.31668853759766, -73.92288970947266, -0.25272802, 0.19358684, 0.17250252
3, 1208056807, -112.81680297851562, -82.25800323486328, -73.83943176269531, -0.2050431, 0.034709956, 0.30366707
4, 1208073474, -112.84455871582031, -82.22724151611328, -73.80806732177734, -0.1074561, -0.151469, 0.29998302
5, 1208090141, -112.87297058105469, -82.22655487060547, -73.75994873046875, 0.0041231653, -0.2524493, 0.22895527
6, 1208106808, -112.95110321044922, -82.2445068359375, -73.63031005859375, 0.057877157, -0.20312932, 0.15208817
7, 1208123475, -113.06886291503906, -82.26908874511719, -73.4273452758789, 0.018411314, -0.037042014, 0.17241001
8, 1208140142, -113.11996459960938, -82.29658508300781, -73.28145599365234, -0.0877905, 0.17563428, 0.24558163
9, 1208156809, -113.02180480957031, -82.32324981689453, -73.31063842773438, -0.18175453, 0.325041, 0.3093605
10, 1208173476, -112.777099609375, -82.34429931640625, -73.51713562011719, -0.20823367, 0.32940602, 0.32600403
11, 1208190143, -112.46639251708984, -82.36465454101562, -73.81570434570312, -0.12756874, 0.23799509, 0.27218723
12, 1208206810, -112.21099853515625, -82.38513946533203, -74.06241607666016, 0.029097965, 0.11249245, 0.1836443
13, 1208223477, -112.03874206542969, -82.39408874511719, -74.20581817626953, 0.18833528, -0.027373845, 0.14727783
14, 1208240144, -111.87574005126953, -82.39751434326172, -74.29914093017578, 0.2697564, -0.09556933, 0.15968037
15, 1208256811, -111.70590209960938, -82.40234375, -74.34982299804688, 0.29475704, -0.17407611, 0.13154411
16, 1208273478, -111.56217956542969, -82.40266418457031, -74.34191131591797, 0.27310073, -0.28061816, 0.1997652
17, 1208290145, -111.4015884399414, -82.40702819824219, -74.35175323486328, 0.2493484, -0.34526086, 0.2326107
18, 1208306812, -111.24718475341797, -82.42451477050781, -74.40017700195312, 0.21778962, -0.44572538, 0.23951626
19, 1208323479, -111.0418472290039, -82.4593276977539, -74.5619125366211, 0.19512878, -0.5185049, 0.2682476
20, 1208340146, -110.73802185058594, -82.52153015136719, -74.87600708007812, 0.20799579, -0.52119553, 0.21543694
21, 1208356813, -110.36612701416016, -82.59710693359375, -75.30622100830078, 0.16544628, -0.40375698, 0.15923977
22, 1208373480, -109.99143981933594, -82.66666412353516, -75.7720718383789, 0.06327603, -0.27127892, 0.124619484
23, 1208390147, -109.6651840209961, -82.73178100585938, -76.19522857666016, -0.053131368, -0.11307698, 0.10321045
24, 1208406814, -109.4625473022461, -82.79094696044922, -76.48242950439453, -0.11745072, 0.024419283, 0.06734276
25, 1208423481, -109.36148834228516, -82.83004760742188, -76.65174102783203, -0.13771659, 0.15837821, 0.0479002
26, 1208440148, -109.2577133178711, -82.84368896484375, -76.80584716796875, -0.12442887, 0.29585782, 0.03719139
27, 1208456815, -109.17945861816406, -82.82987976074219, -76.92620849609375, -0.12746239, 0.33195227, 0.050865173
28, 1208473482, -109.2125244140625, -82.80810546875, -76.93145751953125, -0.11440112, 0.28612274, 0.08808899
29, 1208490149, -109.38836669921875, -82.79072570800781, -76.7891845703125, -0.089708336, 0.16316915, 0.035629272
30, 1208506816, -109.73088073730469, -82.75606536865234, -76.48333740234375, -0.040166024, -0.0045215692, -0.04456997
31, 1208523483, -110.1839599609375, -82.68217468261719, -76.0819320678711, 0.0100728525, -0.1332111, -0.00863266
32, 1208540150, -110.67728424072266, -82.58171844482422, -75.66204833984375, 0.09018735, -0.2521364, 0.04510498
33, 1208556817, -111.23873138427734, -82.47605895996094, -75.19570922851562, 0.15286873, -0.3807931, 0.081264496
34, 1208573484, -111.86170196533203, -82.3740463256836, -74.68692779541016, 0.19062193, -0.46926948, 0.17351913
35, 1208590151, -112.48589324951172, -82.28912353515625, -74.18999481201172, 0.21642749, -0.50660235, 0.224329
36, 1208606818, -113.13600158691406, -82.22118377685547, -73.67899322509766, 0.23473294, -0.49419227, 0.25416183
37, 1208623485, -113.72280883789062, -82.16667175292969, -73.24459838867188, 0.23136759, -0.33032224, 0.38066578
38, 1208640152, -114.13341522216797, -82.13912963867188, -72.9918441772461, 0.24117425, -0.081366815, 0.464118
39, 1208656819, -114.372802734375, -82.14629364013672, -72.89888000488281, 0.28664586, 0.14049633, 0.45961475
40, 1208673486, -114.49957275390625, -82.19430541992188, -72.87944793701172, 0.27411237, 0.3179223, 0.3960333
41, 1208690153, -114.4981689453125, -82.27558898925781, -72.92169952392578, 0.17931959, 0.44514203, 0.27179718
42, 1208706820, -114.31295776367188, -82.35401916503906, -73.07494354248047, 0.004081228, 0.6240197, 0.16552448
43, 1208723487, -114.01484680175781, -82.4031982421875, -73.27996826171875, -0.23178324, 0.77203476, 0.09845829
44, 1208740154, -113.79576110839844, -82.41446685791016, -73.3724136352539, -0.45307252, 0.76385003, 0.067344666
45, 1208756821, -113.68158721923828, -82.38467407226562, -73.34786224365234, -0.6239657, 0.6355136, 0.10971832
46, 1208773488, -113.58769226074219, -82.32534790039062, -73.30382537841797, -0.63451743, 0.41392812, 0.14822483
47, 1208790155, -113.4886474609375, -82.25782775878906, -73.27486419677734, -0.5200282, 0.11059457, 0.16244984
48, 1208806822, -113.45048522949219, -82.20326232910156, -73.19774627685547, -0.3449437, -0.21357295, 0.16154003
49, 1208823489, -113.46373748779297, -82.17426300048828, -73.09168243408203, -0.21137322, -0.4075773, 0.18704414
50, 1208840156, -113.47895812988281, -82.17015838623047, -73.01858520507812, -0.119814746, -0.40591735, 0.18293571
51, 1208856823, -113.52362823486328, -82.17825317382812, -72.96098327636719, -0.11034478, -0.30272886, 0.15861797
52, 1208873490, -113.67671966552734, -82.18739318847656, -72.84329223632812, -0.12154575, -0.16705647, 0.14824867
53, 1208890157, -113.88327026367188, -82.19397735595703, -72.71968841552734, -0.16853826, -0.029393839, 0.2139883
54, 1208906824, -113.97872161865234, -82.2090072631836, -72.74513244628906, -0.18124355, 0.08033898, 0.28650856
55, 1208923491, -113.86326599121094, -82.23888397216797, -72.99991607666016, -0.17119427, 0.17237593, 0.2839222
56, 1208940158, -113.524658203125, -82.28060150146484, -73.46894073486328, -0.075908326, 0.25043362, 0.2946415
57, 1208956825, -112.99068450927734, -82.3252182006836, -74.11659240722656, -0.018578006, 0.2521015, 0.24854946
58, 1208973492, -112.41869354248047, -82.36959075927734, -74.77837371826172, 0.03965699, 0.22960083, 0.13402271
59, 1208990159, -112.04330444335938, -82.39847564697266, -75.2006607055664, 0.06247556, 0.19730283, 0.026583672
60, 1209006826, -111.94293975830078, -82.40167999267578, -75.29923248291016, 0.037379727, 0.13542224, -0.0012340546
61, 1209023493, -112.08335876464844, -82.37364959716797, -75.122314453125, 0.0671201, 0.071877226, 0.09743023
62, 1209040160, -112.19267272949219, -82.33794403076172, -74.97647094726562, 0.22750472, -0.059402864, 0.19991589
63, 1209056827, -112.03316497802734, -82.31356811523438, -75.11276245117188, 0.3277261, -0.21492189, 0.22004604
64, 1209073494, -111.64026641845703, -82.30381774902344, -75.47582244873047, 0.35055378, -0.29759473, 0.15781021
65, 1209090161, -111.40491485595703, -82.29393005371094, -75.67578125, 0.29630905, -0.35964325, 0.094080925
66, 1209106828, -111.55506134033203, -82.28693389892578, -75.490966796875, 0.28494152, -0.41424367, 0.12850666
67, 1209123495, -111.8858871459961, -82.29449462890625, -75.1152114868164, 0.2813977, -0.41861272, 0.20831776
68, 1209140162, -112.14090728759766, -82.30262756347656, -74.80049133300781, 0.24283364, -0.24196708, 0.21849251
69, 1209156829, -112.1690444946289, -82.30915832519531, -74.72950744628906, 0.21734014, -0.011896098, 0.212224
70, 1209173496, -112.13497924804688, -82.31497192382812, -74.74192810058594, 0.17448826, 0.13408822, 0.18251419
71, 1209190163, -112.23867797851562, -82.31584167480469, -74.60974884033203, 0.03203021, 0.17058945, 0.1656332
72, 1209206830, -112.33148956298828, -82.31034851074219, -74.47126770019531, -0.06877349, 0.18071786, 0.22708797
73, 1209223497, -112.29194641113281, -82.30274963378906, -74.4488525390625, -0.11614273, 0.17414005, 0.24403381
74, 1209240164, -112.18443298339844, -82.2994384765625, -74.466796875, -0.11840473, 0.16212031, 0.18696499
75, 1209256831, -112.10847473144531, -82.29261016845703, -74.41680908203125, -0.08093281, 0.16090734, 0.11284351
76, 1209273498, -112.13236999511719, -82.27890014648438, -74.23192596435547, -0.06279999, 0.18877335, 0.11030388
77, 1209290165, -112.21717834472656, -82.26020812988281, -73.96739196777344, -0.06867744, 0.19040532, 0.1441164
78, 1209306832, -112.34239196777344, -82.23919677734375, -73.6620101928711, -0.07546367, 0.128595, 0.14290524
79, 1209323499, -112.47493743896484, -82.21177673339844, -73.3692398071289, -0.090016164, 0.035901323, 0.15687752
80, 1209340166, -112.59417724609375, -82.18121337890625, -73.11930847167969, -0.11791846, -0.008527061, 0.17456245
81, 1209356833, -112.6845474243164, -82.15386962890625, -72.92813873291016, -0.12427168, -0.06759846, 0.1639328
82, 1209373500, -112.75837707519531, -82.13216400146484, -72.77024841308594, -0.09497692, -0.100923285, 0.20639896
83, 1209390167, -112.78919982910156, -82.12396240234375, -72.66252136230469, -0.062681094, -0.07213022, 0.25341034
84, 1209406834, -112.74838256835938, -82.1293716430664, -72.62652587890625, -0.028487775, -0.050295673, 0.2760725
85, 1209423501, -112.65418243408203, -82.1499252319336, -72.6451644897461, -0.05355451, 0.008987637, 0.2673788
86, 1209440168, -112.53458404541016, -82.18212127685547, -72.6921615600586, -0.04143669, 0.06693003, 0.2494173
87, 1209456835, -112.40615844726562, -82.22107696533203, -72.7526626586914, -0.07816033, 0.12392243, 0.20488167
88, 1209473502, -112.30016326904297, -82.2645034790039, -72.7987060546875, -0.08784572, 0.18176194, 0.16893005
89, 1209490169, -112.21033477783203, -82.30517578125, -72.83430480957031, -0.095438376, 0.20242412, 0.15242767
90, 1209506836, -112.09353637695312, -82.33538055419922, -72.88778686523438, -0.112844355, 0.18902983, 0.15809822
91, 1209523503, -111.91922760009766, -82.3487319946289, -72.98760223388672, -0.08833075, 0.16500942, 0.15465832
92, 1209540170, -111.73741912841797, -82.34996795654297, -73.09087371826172, -0.0898476, 0.09205532, 0.16584587
93, 1209556837, -111.64945983886719, -82.35055541992188, -73.1006851196289, -0.046023138, -0.02147574, 0.13254356
94, 1209573504, -111.6812515258789, -82.35394287109375, -72.9926986694336, 0.004767224, -0.14616495, 0.10733795
95, 1209590171, -111.79329681396484, -82.3612060546875, -72.81212615966797, 0.05171124, -0.23995861, 0.10529423
96, 1209606838, -111.87876892089844, -82.36629486083984, -72.67027282714844, 0.0777487, -0.2626942, 0.1025877
97, 1209623505, -111.93307495117188, -82.3670425415039, -72.58782958984375, 0.09103536, -0.2428811, 0.12401104
98, 1209640172, -112.03408813476562, -82.36439514160156, -72.4955825805664, 0.074684635, -0.20598665, 0.13203621
99, 1209656839, -112.2007064819336, -82.36223602294922, -72.37996673583984, 0.08410437, -0.1948676, 0.1737051
100, 1209673506, -112.36255645751953, -82.36238861083984, -72.30670928955078, 0.067799725, -0.17954545, 0.2794428
101, 1209690173, -112.47738647460938, -82.37849426269531, -72.30072784423828, 0.0511551, -0.13440938, 0.28738213
102, 1209706840, -112.58394622802734, -82.41433715820312, -72.3042984008789, 0.075110726, -0.06751875, 0.2222786
103, 1209723507, -112.67981719970703, -82.4536361694336, -72.2994384765625, 0.06415924, 0.01116867, 0.18742752
104, 1209740174, -112.70613861083984, -82.4894790649414, -72.3282241821289, 0.04682495, 0.11159281, 0.17198944
105, 1209756841, -112.65933227539062, -82.51557159423828, -72.39387512207031, 0.02367909, 0.18802446, 0.126441
106, 1209773508, -112.63922119140625, -82.52577209472656, -72.4034194946289, -0.022323288, 0.20979948, 0.09710121
107, 1209790175, -112.64634704589844, -82.51982116699219, -72.36417388916016, -0.064108856, 0.19162694, 0.15290356
108, 1209806842, -112.61852264404297, -82.51056671142578, -72.3426513671875, -0.1118479, 0.15429932, 0.19717312
109, 1209823509, -112.52152252197266, -82.5031509399414, -72.37864685058594, -0.11732764, 0.09939823, 0.19858551
110, 1209840176, -112.41455841064453, -82.49540710449219, -72.42382049560547, -0.08255766, 0.0100611355, 0.1609745
111, 1209856843, -112.34040832519531, -82.48579406738281, -72.43672180175781, -0.07042318, -0.121977165, 0.12508774
112, 1209873510, -112.34954071044922, -82.456787109375, -72.36519622802734, -0.092856325, -0.28761527, 0.12433338
113, 1209890177, -112.275390625, -82.45420837402344, -72.39988708496094, -0.10797182, -0.13117054, 0.17286015
114, 1209906844, -112.64852905273438, -82.4615478515625, -72.08985137939453, 0.13819654, -0.14122312, 0.17648697
115, 1209923511, -113.059326171875, -82.46649169921875, -71.76870727539062, 0.12552746, -0.08665923, 0.28244114
116, 1209940178, -113.1318130493164, -82.4808578491211, -71.75553131103516, 0.042961996, -0.04874703, 0.26086712
117, 1209956845, -112.99346923828125, -82.49321746826172, -71.9406509399414, 0.014679783, -0.01751486, 0.18747139
118, 1209973512, -112.84445190429688, -82.50074768066406, -72.15528106689453, 0.005226621, 0.0014812902, 0.15280342
119, 1209990179, -112.84083557128906, -82.51069641113281, -72.2520523071289, 0.043883268, 0.012378385, 0.19000435
120, 1210006846, -112.94513702392578, -82.52748107910156, -72.24656677246094, 0.02681617, 0.013099319, 0.16427708
121, 1210023513, -113.04531860351562, -82.53675842285156, -72.23177337646484, 0.043595623, -0.014749724, 0.107910156
122, 1210040180, -113.12427520751953, -82.52947998046875, -72.20947265625, 0.03603258, -0.014172775, 0.12587452
123, 1210056847, -113.1975326538086, -82.51982116699219, -72.17842102050781, -0.007921406, -0.0044334913, 0.20500755
124, 1210073514, -113.25654602050781, -82.52523040771484, -72.16619873046875, -0.043007705, -0.03566789, 0.2619171
125, 1210090181, -113.22920227050781, -82.54580688476562, -72.23892211914062, -0.06251021, -0.026555857, 0.24973488
126, 1210106848, -113.10961151123047, -82.57357788085938, -72.3916015625, -0.10115321, 8.767016E-4, 0.17774868
127, 1210123515, -112.93254089355469, -82.59821319580078, -72.58460235595703, -0.07247576, 0.022752305, 0.12565517
128, 1210140182, -112.77852630615234, -82.6168212890625, -72.75353240966797, -0.03364055, 0.06475597, 0.13287163
129, 1210156849, -112.68193817138672, -82.63148498535156, -72.86846160888672, 0.006685035, 0.1733916, 0.19027042
130, 1210173516, -112.62358856201172, -82.64814758300781, -72.94096374511719, -0.035471436, 0.20934252, 0.19633865
131, 1210190183, -112.59022521972656, -82.66139221191406, -72.97444915771484, -0.040251542, 0.21382393, 0.19351864
132, 1210206850, -112.52256774902344, -82.67113494873047, -73.01702117919922, -0.03277613, 0.16391161, 0.20054913
133, 1210223517, -112.38658142089844, -82.68112182617188, -73.11072540283203, 0.0030155957, 0.0899324, 0.21691513
134, 1210240184, -112.16875457763672, -82.69379425048828, -73.28829193115234, 0.042589244, 0.024278438, 0.19456959
135, 1210256851, -111.9432144165039, -82.70286560058594, -73.48230743408203, 0.025712905, -0.030521233, 0.14473534
136, 1210273518, -111.77366638183594, -82.70806121826172, -73.62144470214844, -0.024570705, -0.114925586, 0.13192463
137, 1210290185, -111.68143463134766, -82.71080780029297, -73.67880249023438, -0.07195182, -0.16861181, 0.15180111
138, 1210306852, -111.68305206298828, -82.715087890625, -73.63607025146484, -0.105829634, -0.19700252, 0.15750027
139, 1210323519, -111.71179962158203, -82.72230529785156, -73.56529235839844, -0.069148645, -0.15966679, 0.14470005
140, 1210340186, -111.74951934814453, -82.72875213623047, -73.48934173583984, -0.012520995, -0.087531224, 0.13789558
141, 1210356853, -111.78484344482422, -82.73196411132812, -73.4283447265625, 0.015146102, -0.008801808, 0.13521194
142, 1210373520, -111.75780487060547, -82.73367309570312, -73.45012664794922, 0.05836542, 0.040730905, 0.16972256
143, 1210390187, -111.64495849609375, -82.73320770263672, -73.58393859863281, 0.0500793, 0.07964602, 0.17346573
144, 1210406854, -111.52079772949219, -82.7303466796875, -73.74654388427734, 0.059103575, 0.04696962, 0.16435242
145, 1210423521, -111.50406646728516, -82.72244262695312, -73.80084228515625, 0.03659661, 0.019949049, 0.16065693
146, 1210440188, -111.62686920166016, -82.71145629882812, -73.70378112792969, -0.004782381, 0.0032162326, 0.19859791
147, 1210456855, -111.7691879272461, -82.70580291748047, -73.5672607421875, -0.01253345, -0.012516698, 0.22539425
148, 1210473522, -111.85128021240234, -82.70962524414062, -73.48283386230469, -0.009764337, -0.033367533, 0.23488903
149, 1210490189, -111.81063079833984, -82.71753692626953, -73.52234649658203, 0.017914064, -0.0077339043, 0.19026661
150, 1210506856, -111.70697784423828, -82.72589874267578, -73.63154602050781, 0.045205124, 0.0022552528, 0.14979076
151, 1210523523, -111.6189956665039, -82.73096466064453, -73.72476196289062, 0.07258802, 0.008872018, 0.16843224
152, 1210540190, -111.5699462890625, -82.73625946044922, -73.77371978759766, 0.045821264, 0.0072347512, 0.18823624
153, 1210556857, -111.52839660644531, -82.74585723876953, -73.80744171142578, 0.042975605, 0.008282454, 0.17374325
154, 1210573524, -111.5135269165039, -82.7538070678711, -73.81138610839844, 0.0022558856, 0.020599185, 0.17155075
155, 1210590191, -111.54060363769531, -82.75890350341797, -73.7743148803711, -0.038191088, 0.065071315, 0.14565945
156, 1210606858, -111.5870590209961, -82.75904083251953, -73.72920227050781, -0.08019168, 0.040476944, 0.14725018
157, 1210623525, -111.62626647949219, -82.75540924072266, -73.70455932617188, -0.099271774, -0.01378359, 0.17239094
158, 1210640192, -111.61503601074219, -82.75481414794922, -73.74373626708984, -0.103126734, -0.025545761, 0.20478153
159, 1210656859, -111.56542205810547, -82.76229095458984, -73.82723236083984, -0.08795979, -0.051088087, 0.20022011
160, 1210673526, -111.52165222167969, -82.77379608154297, -73.90215301513672, -0.044716135, -0.0069216304, 0.18423176
161, 1210690193, -111.50244140625, -82.77982330322266, -73.9510726928711, 0.0016857425, 0.037498273, 0.15634537
162, 1210706860, -111.53146362304688, -82.78275299072266, -73.94650268554688, 0.035392787, 0.057435594, 0.14683056
163, 1210723527, -111.59261322021484, -82.78406524658203, -73.90093994140625, 0.0673391, 0.03347735, 0.17014694
164, 1210740194, -111.62926483154297, -82.78430938720703, -73.86912536621094, 0.0853906, -0.009564008, 0.16915417
165, 1210756861, -111.60779571533203, -82.78251647949219, -73.88951110839844, 0.057246696, -0.027304143, 0.17257214
166, 1210773528, -111.57154083251953, -82.77930450439453, -73.92192840576172, 0.038822062, -0.027342092, 0.17153263
167, 1210790195, -111.55963897705078, -82.77710723876953, -73.92748260498047, 0.022363232, -0.025858674, 0.1934948
168, 1210806862, -111.55026245117188, -82.77832794189453, -73.935302734375, 0.0042515234, -0.025807139, 0.218956
169, 1210823529, -111.48886108398438, -82.78260040283203, -74.00001525878906, 4.6828933E-4, -0.044468362, 0.21260166
170, 1210840196, -111.42796325683594, -82.78912353515625, -74.06747436523438, 0.0033723726, -0.060009036, 0.19226837
171, 1210856863, -111.40563201904297, -82.79655456542969, -74.09488677978516, 0.017712632, -0.05988098, 0.16979313
172, 1210873530, -111.37500762939453, -82.80775451660156, -74.12540435791016, -0.0066135065, -0.04893441, 0.17680359
173, 1210890197, -111.32176971435547, -82.81944274902344, -74.1795654296875, -0.019666914, 0.009048776, 0.14974785
174, 1210906864, -111.2779769897461, -82.82657623291016, -74.2229995727539, -0.018824356, 0.06433062, 0.1436348
175, 1210923531, -111.26969909667969, -82.82909393310547, -74.22663116455078, -0.017364139, 0.07900223, 0.15030861
176, 1210940198, -111.28927612304688, -82.82597351074219, -74.20262908935547, -0.030134408, 0.09813033, 0.18542099
177, 1210956865, -111.30728149414062, -82.82086181640625, -74.17736053466797, -0.023805931, 0.064266376, 0.1987524
178, 1210973532, -111.29193115234375, -82.81768798828125, -74.18627166748047, -0.026060214, 0.057439316, 0.18730354
179, 1210990199, -111.25444793701172, -82.81954956054688, -74.21826934814453, 0.008020311, 0.0039078724, 0.16719437
180, 1211006866, -111.18550109863281, -82.81990051269531, -74.28008270263672, 0.022553459, -0.033562344, 0.13977242
181, 1211023533, -111.14042663574219, -82.81394958496094, -74.31483459472656, -0.0027916539, -0.062051352, 0.187603
182, 1211040200, -111.11824798583984, -82.81012725830078, -74.32606506347656, -0.0040431903, -0.06402005, 0.19347572
183, 1211056867, -111.13017272949219, -82.80953216552734, -74.3099136352539, 3.8704587E-4, -0.055790093, 0.16908741
184, 1211073534, -111.17784881591797, -82.8087387084961, -74.26734924316406, 0.0054626237, -0.028554045, 0.15054512
185, 1211090201, -111.22418212890625, -82.80696868896484, -74.23859405517578, -0.0018838505, -0.018102335, 0.1502409
186, 1211106868, -111.27376556396484, -82.79916381835938, -74.20448303222656, 0.00905843, -0.02317232, 0.16086292
187, 1211123535, -111.31895446777344, -82.78999328613281, -74.17399597167969, 0.018708402, -0.002892544, 0.18746567
188, 1211140202, -111.36106872558594, -82.78311157226562, -74.14175415039062, 0.021299196, 0.0042021764, 0.22812843
189, 1211156869, -111.39510345458984, -82.78162384033203, -74.11646270751953, 0.053290322, 0.0126190875, 0.2106638
190, 1211173536, -111.4216537475586, -82.78827667236328, -74.10309600830078, 0.044130474, 0.007131558, 0.16729069
191, 1211190203, -111.43647766113281, -82.79688262939453, -74.10729217529297, 1.546845E-4, 0.020113064, 0.14672852
192, 1211206870, -111.45252990722656, -82.80091094970703, -74.11705017089844, 0.0047979816, -0.009921765, 0.11963463
193, 1211223537, -111.46195983886719, -82.78836059570312, -74.13554382324219, -0.04171663, -0.020920347, 0.20437336
194, 1211240204, -111.46421813964844, -82.78033447265625, -74.16071319580078, -0.05654025, -0.003967889, 0.23513985
195, 1211256871, -111.50369262695312, -82.7835464477539, -74.14849853515625, -0.007435024, -0.013250064, 0.19522762
196, 1211273538, -111.56903839111328, -82.79320526123047, -74.10003662109375, 0.01394843, -0.0035020744, 0.20351982
197, 1211290205, -111.56237030029297, -82.80824279785156, -74.10332489013672, 0.037072957, 0.020427212, 0.16311455
198, 1211306872, -111.49644470214844, -82.81963348388672, -74.1500473022461, 0.033201255, 0.05606563, 0.149539
199, 1211323539, -111.46681213378906, -82.82679748535156, -74.14939880371094, -0.039310627, 0.10163359, 0.15569592
200, 1211340206, -111.50772857666016, -82.82840728759766, -74.07881164550781, -0.04857205, 0.09405007, 0.15564251
201, 1211356873, -111.57972717285156, -82.82424926757812, -73.9825210571289, -0.04004744, 0.1313523, 0.1675291
202, 1211373540, -111.59392547607422, -82.8132095336914, -73.94209289550781, 0.023312273, 0.08868737, 0.15961933
203, 1211390207, -111.60047912597656, -82.79761505126953, -73.89823150634766, 0.09000637, 0.04342759, 0.15385342
204, 1211406874, -111.63066101074219, -82.78126525878906, -73.81043243408203, 0.10531107, 0.009171791, 0.17455387
205, 1211423541, -111.66279602050781, -82.77001953125, -73.71025848388672, 0.08659687, -0.045342878, 0.1999321
206, 1211440208, -111.66836547851562, -82.76310729980469, -73.64404296875, 0.0033031104, -0.10672099, 0.19533348
207, 1211456875, -111.67095184326172, -82.75782775878906, -73.60285186767578, -0.03521031, -0.17625009, 0.17681122
208, 1211473542, -111.69954681396484, -82.7540512084961, -73.56752014160156, -0.03712196, -0.17774792, 0.16593361
209, 1211490209, -111.7546157836914, -82.75332641601562, -73.53192901611328, -0.0197052, -0.18015526, 0.17252445
210, 1211506876, -111.82561492919922, -82.75527954101562, -73.49331665039062, 0.007779803, -0.1417671, 0.17899513
211, 1211523543, -111.901611328125, -82.75846862792969, -73.45368957519531, 0.02092817, -0.08030071, 0.2107439
212, 1211540210, -111.94258117675781, -82.76497650146484, -73.44096374511719, -0.018036442, 0.008542386, 0.20742989
213, 1211556877, -111.93809509277344, -82.78107452392578, -73.46700286865234, 0.0033456066, 0.08470912, 0.17661762
214, 1211573544, -111.94722747802734, -82.7975082397461, -73.47956848144531, -0.0045744693, 0.13231531, 0.13713837
215, 1211590211, -112.01273345947266, -82.80565643310547, -73.4395980834961, -0.019209338, 0.17334142, 0.13322735
216, 1211606878, -112.10027313232422, -82.79933166503906, -73.38400268554688, -0.045601547, 0.17890938, 0.14630318
217, 1211623545, -112.18206024169922, -82.78148651123047, -73.33917999267578, -0.06757118, 0.13227066, 0.17314053
218, 1211640212, -112.24323272705078, -82.76158905029297, -73.31695556640625, -0.06771369, 0.05525665, 0.18405247
219, 1211656879, -112.33321380615234, -82.74393463134766, -73.25724792480469, -0.052589457, -0.059300598, 0.16818619
220, 1211673546, -112.42677307128906, -82.72994232177734, -73.17778015136719, -0.02827285, -0.12899093, 0.20069408
221, 1211690213, -112.4881591796875, -82.7244644165039, -73.10728454589844, 0.0034976827, -0.117900066, 0.20097828
222, 1211706880, -112.51936340332031, -82.72457122802734, -73.05828857421875, 0.0033240197, -0.087250166, 0.19821739
223, 1211723547, -112.56591796875, -82.72843170166016, -72.99478149414062, -0.008500859, -0.036102403, 0.1966734
224, 1211740214, -112.59814453125, -82.73250579833984, -72.95782470703125, 0.008351013, -0.007755683, 0.19445801
225, 1211756881, -112.60993957519531, -82.73650360107422, -72.95631408691406, 0.04974321, 0.001519923, 0.18506622
226, 1211773548, -112.61473083496094, -82.7381820678711, -72.96610260009766, 0.07944918, -0.032682512, 0.17094707
227, 1211790215, -112.59398651123047, -82.73990631103516, -72.99009704589844, 0.07594508, -0.032214224, 0.15960121
228, 1211806882, -112.55522155761719, -82.73990631103516, -73.02149200439453, 0.0809154, -0.037092607, 0.13761425
229, 1211823549, -112.53678131103516, -82.73453521728516, -73.03723907470703, 0.021995155, -0.03564755, 0.13171768
230, 1211840216, -112.54173278808594, -82.72457122802734, -73.04045867919922, -0.042563085, -0.023599654, 0.14596748
231, 1211856883, -112.57644653320312, -82.71366119384766, -73.03401184082031, -0.083677985, -0.060293898, 0.16935444
232, 1211873550, -112.62798309326172, -82.70612335205078, -73.0281982421875, -0.088438146, -0.05004471, 0.20090294
233, 1211890217, -112.6877212524414, -82.70357513427734, -73.02243041992188, -0.057562295, -0.033319358, 0.1995039
234, 1211906884, -112.77973175048828, -82.7077407836914, -72.98077392578125, -0.041411035, 0.016299134, 0.17527294
235, 1211923551, -112.928466796875, -82.71311950683594, -72.86872863769531, -0.0107930275, 0.05989682, 0.15924835
236, 1211940218, -113.06265258789062, -82.71511840820312, -72.75579071044922, -0.0030981514, 0.114429235, 0.18154526
237, 1211956885, -113.12226867675781, -82.71454620361328, -72.70932006835938, 0.022485083, 0.174375, 0.17157555
238, 1211973552, -113.1171875, -82.70903015136719, -72.72249603271484, 0.044298872, 0.18043943, 0.18883324
239, 1211990219, -113.06500244140625, -82.70220184326172, -72.77350616455078, 0.033910815, 0.18209945, 0.23080826
240, 1212006886, -113.00566864013672, -82.7013931274414, -72.81598663330078, 0.03628286, 0.17487237, 0.24207878
241, 1212023553, -112.9453125, -82.70884704589844, -72.83590698242188, 0.031746823, 0.1469264, 0.22894001
242, 1212040220, -112.86939239501953, -82.72392272949219, -72.83890533447266, -7.7060895E-4, 0.107657224, 0.1863718
243, 1212056887, -112.78357696533203, -82.74058532714844, -72.82971954345703, -0.046450917, 0.051087987, 0.12493992
244, 1212073554, -112.70889282226562, -82.74459075927734, -72.80010223388672, -0.09651346, -0.021929009, 0.096652985
245, 1212090221, -112.66353607177734, -82.73526763916016, -72.74919891357422, -0.16794944, -0.08925855, 0.11994171
246, 1212106888, -112.6422348022461, -82.71549224853516, -72.69402313232422, -0.18087189, -0.1260816, 0.16273212
247, 1212123555, -112.6633071899414, -82.69685363769531, -72.62580871582031, -0.14753848, -0.15824185, 0.18543434
248, 1212140222, -112.72508239746094, -82.68203735351562, -72.54913330078125, -0.044152815, -0.18554193, 0.16742802
249, 1212156889, -112.81786346435547, -82.67102813720703, -72.46570587158203, 0.044075485, -0.19559705, 0.16307068
250, 1212173556, -112.90837860107422, -82.66014099121094, -72.4002914428711, 0.13558008, -0.21139017, 0.16102695
251, 1212190223, -112.98296356201172, -82.64932250976562, -72.3653793334961, 0.16649617, -0.18027793, 0.1649437
252, 1212206890, -113.03715515136719, -82.6415786743164, -72.36558532714844, 0.19149193, -0.13559349, 0.1817627
253, 1212223557, -113.10037231445312, -82.64019775390625, -72.37071990966797, 0.1533447, -0.08708889, 0.20393848
254, 1212240224, -113.20941162109375, -82.64171600341797, -72.33419036865234, 0.124778174, -0.029262861, 0.24584103
255, 1212256891, -113.27677154541016, -82.64952850341797, -72.3392105102539, 0.058294598, 0.013431613, 0.252285
256, 1212273558, -113.26986694335938, -82.66387939453125, -72.40716552734375, 0.010189674, 0.07448804, 0.23740292
257, 1212290225, -113.23762512207031, -82.6808853149414, -72.48046875, -0.011657759, 0.12772729, 0.17092133
258, 1212306892, -113.2213134765625, -82.6957778930664, -72.51679229736328, -0.023431368, 0.17577869, 0.15518093
259, 1212323559, -113.1996078491211, -82.7059326171875, -72.53864288330078, -0.047841743, 0.2063344, 0.14309406
260, 1212340226, -113.1774673461914, -82.70768737792969, -72.54804229736328, -0.045055762, 0.20589402, 0.12736702
261, 1212356893, -113.19857788085938, -82.69927215576172, -72.50254821777344, -0.041631613, 0.1618984, 0.14610195
262, 1212373560, -113.25384521484375, -82.68549346923828, -72.4139175415039, -0.030281805, 0.10727799, 0.16619015
263, 1212390227, -113.33170318603516, -82.67300415039062, -72.30049896240234, -0.020688966, 0.031954695, 0.1899271
264, 1212406894, -113.38414001464844, -82.66441345214844, -72.2200698852539, -0.005178959, -0.02573884, 0.18321323
265, 1212423561, -113.39625549316406, -82.66043090820312, -72.1910400390625, -0.013534382, -0.049539823, 0.19053936
266, 1212440228, -113.40028381347656, -82.6589126586914, -72.1801528930664, -0.017290358, -0.084902346, 0.19927025
267, 1212456895, -113.40913391113281, -82.66120147705078, -72.1717529296875, -0.029460428, -0.10956876, 0.20263863
268, 1212473562, -113.42247009277344, -82.66968536376953, -72.167236328125, -0.06641277, -0.09777615, 0.19386864
269, 1212490229, -113.46044158935547, -82.67986297607422, -72.14200592041016, -0.0735763, -0.058774114, 0.17617035
270, 1212506896, -113.5143814086914, -82.68732452392578, -72.09848022460938, -0.045550026, -0.0011671043, 0.17738152
271, 1212523563, -113.54694366455078, -82.693359375, -72.07211303710938, -0.05324058, 0.065435976, 0.17621708
272, 1212540230, -113.54672241210938, -82.69719696044922, -72.0820541381836, -0.03447366, 0.11624852, 0.17940807
273, 1212556897, -113.51984405517578, -82.6971435546875, -72.11603546142578, -0.016948033, 0.094662674, 0.17035961
274, 1212573564, -113.51636505126953, -82.69483947753906, -72.11883544921875, -0.010610499, 0.06941378, 0.17709446
275, 1212590231, -113.52832794189453, -82.69145202636719, -72.09709167480469, 0.00438593, 0.029990567, 0.17615414
276, 1212606898, -113.55303192138672, -82.68869018554688, -72.05604553222656, -0.008645942, 0.008458841, 0.16547108
277, 1212623565, -113.59984588623047, -82.68453216552734, -71.99060821533203, -0.017977843, -0.018985512, 0.17287064
278, 1212640232, -113.62831115722656, -82.68254089355469, -71.94611358642578, -0.016878843, -0.055064317, 0.16731071
279, 1212656899, -113.63013458251953, -82.6820068359375, -71.9361572265625, -0.050120942, -0.068337776, 0.18607426
280, 1212673566, -113.60076141357422, -82.67962646484375, -71.9713134765625, -0.047354676, -0.06560398, 0.19514847
281, 1212690233, -113.55899047851562, -82.68136596679688, -72.03255462646484, -0.057193946, -0.07665374, 0.20318985
282, 1212706900, -113.52021026611328, -82.68782806396484, -72.0990219116211, -0.04846419, -0.08810364, 0.19010258
283, 1212723567, -113.51679229736328, -82.70179748535156, -72.12564849853516, -0.028170682, -0.047086686, 0.16313648
284, 1212740234, -113.54613494873047, -82.71600341796875, -72.11598205566406, 1.4607751E-4, -0.0013738573, 0.14426422
285, 1212756901, -113.58245086669922, -82.72013092041016, -72.08904266357422, 0.013929698, 0.05410764, 0.15130997
286, 1212773568, -113.58719635009766, -82.71614074707031, -72.08767700195312, 0.01632694, 0.0850673, 0.17343998
287, 1212790235, -113.56085205078125, -82.70684814453125, -72.119384765625, 0.013621891, 0.08556301, 0.210639
288, 1212806902, -113.49381256103516, -82.70144653320312, -72.18989562988281, 0.02492183, 0.061431907, 0.20221233
289, 1212823569, -113.41999816894531, -82.70149993896484, -72.26648712158203, 0.030585034, 0.0013446015, 0.18215275
290, 1212840236, -113.37538146972656, -82.7069320678711, -72.30326843261719, 0.035578646, -0.041602038, 0.18611908
291, 1212856903, -113.36443328857422, -82.71263885498047, -72.29557800292969, 0.022375414, -0.06923471, 0.17422867
292, 1212873570, -113.35652160644531, -82.71820831298828, -72.28082275390625, -0.0059027327, -0.035222877, 0.16776085
293, 1212890237, -113.34961700439453, -82.72184753417969, -72.27133178710938, -0.021622244, -0.0038922585, 0.1558094
294, 1212906904, -113.3430404663086, -82.7210693359375, -72.2775650024414, -0.057233665, 0.0037214628, 0.16898441
295, 1212923571, -113.32513427734375, -82.7176742553711, -72.31009674072266, -0.057406783, -0.005559099, 0.18337345
296, 1212940238, -113.28437042236328, -82.71589660644531, -72.37901306152344, -0.04305922, -0.017216092, 0.16186905
297, 1212956905, -113.26127624511719, -82.7161636352539, -72.43583679199219, -0.02388424, -0.0500912, 0.17281914
298, 1212973572, -113.26055908203125, -82.72020721435547, -72.46247100830078, -0.003821304, -0.042810895, 0.18888855
299, 1212990239, -113.26599884033203, -82.72651672363281, -72.47428131103516, 0.010181911, -0.02895508, 0.18000698
300, 1213006906, -113.26436614990234, -82.73188018798828, -72.48604583740234, 0.0127077885, 0.00886569, 0.17109585
301, 1213023573, -113.26593017578125, -82.73445129394531, -72.48783874511719, 0.029258715, 0.074904405, 0.17012405
302, 1213040240, -113.27554321289062, -82.73615264892578, -72.47454071044922, -0.0041073817, 0.087360024, 0.18208313
303, 1213056907, -113.269287109375, -82.73558807373047, -72.4731674194336, -0.0046927882, 0.07402376, 0.17829132
304, 1213073574, -113.23100280761719, -82.73370361328125, -72.5013198852539, 0.012922827, 0.038529925, 0.19252777
305, 1213090241, -113.1710433959961, -82.73023986816406, -72.54950714111328, 0.01708205, 0.015241234, 0.18590927
306, 1213106908, -113.10517120361328, -82.7280502319336, -72.60429382324219, 0.032738544, -0.027435314, 0.19808865
307, 1213123575, -113.0570068359375, -82.7319107055664, -72.64152526855469, 0.026906595, -0.056341264, 0.2080307
308, 1213140242, -113.02542114257812, -82.74276733398438, -72.66615295410156, 0.018057797, -0.07647185, 0.18142986
309, 1213156909, -112.985107421875, -82.7567138671875, -72.70252227783203, -0.004643708, -0.051556885, 0.17371845
310, 1213173576, -112.92768859863281, -82.77191925048828, -72.75914764404297, -0.031100916, -0.02310933, 0.18112278
311, 1213190243, -112.8344497680664, -82.78523254394531, -72.85447692871094, -0.07292551, 0.033853408, 0.17713451
312, 1213206910, -112.73260498046875, -82.79857635498047, -72.96592712402344, -0.06670194, 0.07845212, 0.16626167
313, 1213223577, -112.64616394042969, -82.80764770507812, -73.0699234008789, -0.07974702, 0.09354004, 0.17439365
314, 1213240244, -112.57655334472656, -82.81649017333984, -73.15705108642578, -0.064887695, 0.09722554, 0.18059921
315, 1213256911, -112.54630279541016, -82.82791900634766, -73.196044921875, -0.05156132, 0.07074855, 0.14925575
316, 1213273578, -112.54563903808594, -82.83661651611328, -73.18840789794922, -0.016891401, 0.055685848, 0.16502857
317, 1213290245, -112.48737335205078, -82.84319305419922, -73.22000122070312, 0.010542164, 0.06486544, 0.16949177
318, 1213306912, -112.38666534423828, -82.84379577636719, -73.28474426269531, 0.021255208, 0.060044575, 0.17369938
319, 1213323579, -112.28974914550781, -82.84185028076172, -73.34162902832031, -0.00715213, 0.04556412, 0.17549706
320, 1213340246, -112.20716857910156, -82.84121704101562, -73.38817596435547, -0.005242359, -0.0015923168, 0.19423962
321, 1213356913, -112.12547302246094, -82.84310913085938, -73.4422607421875, -0.027405072, -0.049374998, 0.20456886
322, 1213373580, -112.03926086425781, -82.84835052490234, -73.50752258300781, -0.0032437784, -0.087702975, 0.20242214
323, 1213390247, -111.95728302001953, -82.85834503173828, -73.57254791259766, 0.013125997, -0.09335202, 0.20021725
324, 1213406914, -111.87076568603516, -82.87022399902344, -73.64218139648438, 0.034522448, -0.090582445, 0.17272472
325, 1213423581, -111.74817657470703, -82.87913513183594, -73.75371551513672, 0.018455356, -0.07250274, 0.1712656
326, 1213440248, -111.5926513671875, -82.88296508789062, -73.90909576416016, 0.027383992, -0.08240238, 0.15319252
327, 1213456915, -111.42623138427734, -82.88420867919922, -74.08918762207031, 0.05561614, -0.14834206, 0.17560959
328, 1213473582, -111.24771881103516, -82.88798522949219, -74.29512786865234, 0.013154041, -0.17177473, 0.19068813
329, 1213490249, -111.09134674072266, -82.90583038330078, -74.48735046386719, 0.012554952, -0.14454888, 0.15548038
330, 1213506916, -111.01886749267578, -82.92748260498047, -74.59327697753906, -0.019508172, -0.1246989, 0.122107506
331, 1213523583, -111.02379608154297, -82.94456481933594, -74.6158676147461, -0.058631107, -0.014068925, 0.14238644
332, 1213540250, -111.0445785522461, -82.95274353027344, -74.62068939208984, -0.07482111, 0.04720609, 0.14783192
333, 1213556917, -111.0528564453125, -82.9512939453125, -74.64241790771484, -0.06277477, 0.09865238, 0.18944454
334, 1213573584, -111.01187133789062, -82.94593048095703, -74.70970916748047, -0.034266405, 0.13163644, 0.2344265
335, 1213590251, -110.90608215332031, -82.94600677490234, -74.83499908447266, 0.04921264, 0.13494489, 0.22016525
336, 1213606918, -110.76525115966797, -82.95330047607422, -74.98095703125, 0.10050695, 0.09929246, 0.16348934
337, 1213623585, -110.65585327148438, -82.96034240722656, -75.07830047607422, 0.100745134, 0.06932709, 0.12769604
338, 1213640252, -110.58387756347656, -82.96338653564453, -75.12388610839844, 0.07414233, 0.053294815, 0.098882675
339, 1213656919, -110.57221221923828, -82.95427703857422, -75.1009521484375, 5.1192543E-4, 0.043224957, 0.15631676
340, 1213673586, -110.56803131103516, -82.94336700439453, -75.06936645507812, -0.026700556, 0.019561365, 0.21555042
341, 1213690253, -110.5835189819336, -82.94253540039062, -75.02703094482422, -0.011785221, -0.02895181, 0.21181774
342, 1213706920, -110.57311248779297, -82.94273376464844, -75.0150375366211, 0.027554732, -0.038308993, 0.21296215
343, 1213723587, -110.46402740478516, -82.94434356689453, -75.10128021240234, 0.0558103, -0.032768503, 0.20102882
344, 1213740254, -110.29080200195312, -82.95012664794922, -75.25867462158203, 0.080562636, -0.06125938, 0.18605232
345, 1213756921, -110.19145965576172, -82.95809173583984, -75.3469467163086, 0.07637205, -0.06815635, 0.1828556
346, 1213773588, -110.11890411376953, -82.96879577636719, -75.40882110595703, 0.01651923, -0.04301627, 0.19876671
347, 1213790255, -110.07182312011719, -82.98043823242188, -75.45185852050781, -0.011709022, -0.006625441, 0.1672945
348, 1213806922, -110.09201049804688, -82.98809814453125, -75.43038940429688, -0.030493999, 0.03349683, 0.16816902
349, 1213823589, -110.10175323486328, -82.99999237060547, -75.4158935546875, -0.028663421, 0.06339697, 0.1926403
350, 1213840256, -110.0436782836914, -83.01273345947266, -75.46753692626953, 0.0019345727, 0.06997671, 0.16121101
351, 1213856923, -109.94718933105469, -83.01570892333984, -75.56200408935547, -0.016289456, 0.06505871, 0.12427807
352, 1213873590, -109.84900665283203, -83.00846099853516, -75.66480255126953, -0.04040339, 0.0029067826, 0.13901138
353, 1213890257, -109.81723022460938, -82.99512481689453, -75.71180725097656, -0.046864014, -0.088355094, 0.15807724
354, 1213906924, -109.82880401611328, -82.9833984375, -75.7215805053711, -0.05284572, -0.12724729, 0.18559551
355, 1213923591, -109.8549575805664, -82.98029327392578, -75.71939086914062, -0.041481894, -0.1467068, 0.16667938
356, 1213940258, -109.9426040649414, -82.97965240478516, -75.6540298461914, -0.040776193, -0.14125803, 0.12309265
357, 1213956925, -110.09049224853516, -82.97052001953125, -75.52217102050781, -0.07193778, -0.09195728, 0.1554575
358, 1213973592, -110.19495391845703, -82.96588897705078, -75.43675231933594, -0.07386668, -0.06032994, 0.22712803
359, 1213990259, -110.15171813964844, -82.98267364501953, -75.50619506835938, -0.056831326, 9.142867E-4, 0.23386192
360, 1214006926, -109.97444915771484, -83.01618194580078, -75.7113265991211, -0.07110524, 0.13248564, 0.18208694
361, 1214023593, -109.80116271972656, -83.04862213134766, -75.90438842773438, -0.0979846, 0.27007365, 0.043961525
362, 1214040260, -109.84221649169922, -83.04635620117188, -75.87841796875, -0.13208659, 0.349688, -0.015808105
363, 1214056927, -110.0705337524414, -82.99529266357422, -75.66529083251953, -0.16030732, 0.29868302, 0.1036129
364, 1214073594, -110.38463592529297, -82.92033386230469, -75.37226104736328, -0.061966293, 0.123188436, 0.22456741
365, 1214090261, -110.6625747680664, -82.84805297851562, -75.11548614501953, 0.1255953, -0.14633444, 0.30747795
366, 1214106928, -110.82282257080078, -82.8017578125, -74.97676086425781, 0.301094, -0.33873495, 0.2909088
367, 1214123595, -110.82357025146484, -82.7914047241211, -74.99612426757812, 0.40920138, -0.39022952, 0.24707222
368, 1214140262, -110.72755432128906, -82.81233978271484, -75.10553741455078, 0.40902528, -0.328879, 0.24479675
369, 1214156929, -110.56564331054688, -82.85587310791016, -75.27275848388672, 0.30810893, -0.2009033, 0.27107716
370, 1214173596, -110.4375991821289, -82.91008758544922, -75.41547393798828, 0.13190542, -0.050654415, 0.23641014
371, 1214190263, -110.39926147460938, -82.95806121826172, -75.49298858642578, -0.08037985, 0.031119239, 0.21221352
372, 1214206930, -110.38853454589844, -82.99574279785156, -75.56327056884766, -0.22883336, 0.11554685, 0.16348648
373, 1214223597, -110.3559799194336, -83.02040100097656, -75.6624755859375, -0.25752532, 0.20291926, 0.13090992
374, 1214240264, -110.28601837158203, -83.02937316894531, -75.790771484375, -0.21675032, 0.2420091, 0.122612
375, 1214256931, -110.18364715576172, -83.03370666503906, -75.93155670166016, -0.17510198, 0.26392353, 0.15613174
376, 1214273598, -110.05193328857422, -83.03533935546875, -76.07929992675781, -0.09895786, 0.23338819, 0.14947605
377, 1214290265, -109.99156951904297, -83.03060913085938, -76.13418579101562, -0.02675919, 0.1960773, 0.11321926
378, 1214306932, -110.0833511352539, -83.01405334472656, -76.02120971679688, 0.037024524, 0.15940899, 0.09303284
379, 1214323599, -110.32101440429688, -82.99249267578125, -75.75428771972656, 0.040062394, 0.09688498, 0.13869667
380, 1214340266, -110.57080841064453, -82.97627258300781, -75.47116088867188, 0.040642425, 0.07008364, 0.191288
381, 1214356933, -110.72286224365234, -82.96790313720703, -75.2886734008789, 0.0477933, 0.024674423, 0.2281599
382, 1214373600, -110.73388671875, -82.96204376220703, -75.25349426269531, 0.026190776, -0.046875, 0.2252512
383, 1214390267, -110.66529083251953, -82.95780944824219, -75.30460357666016, 0.010665125, -0.12728247, 0.2056961
384, 1214406934, -110.6078109741211, -82.95375061035156, -75.34884643554688, -0.010048704, -0.17603534, 0.17633533
385, 1214423601, -110.59390258789062, -82.95171356201172, -75.34671020507812, -0.030833106, -0.1578075, 0.1625166
386, 1214440268, -110.59678649902344, -82.95285034179688, -75.32167053222656, -0.021045407, -0.09689329, 0.19009686
387, 1214456935, -110.57685852050781, -82.96034240722656, -75.3128433227539, 0.033197317, -0.010231187, 0.18055153
388, 1214473602, -110.58435821533203, -82.96681213378906, -75.27257537841797, 0.07919391, 0.022542063, 0.15581226
389, 1214490269, -110.63126373291016, -82.9678726196289, -75.18844604492188, 0.0767934, 0.017163053, 0.145401
390, 1214506936, -110.72122955322266, -82.96148681640625, -75.06676483154297, 0.07640336, -0.023218043, 0.1469841
391, 1214523603, -110.7837142944336, -82.95004272460938, -74.9839859008789, 0.03499777, -0.10389359, 0.17883205
392, 1214540270, -110.82081604003906, -82.93917083740234, -74.94147491455078, -0.019713094, -0.14646989, 0.18922329
393, 1214556937, -110.87608337402344, -82.93256378173828, -74.89867401123047, -0.021126183, -0.1501727, 0.17841148
394, 1214573604, -110.97584533691406, -82.92837524414062, -74.82261657714844, -0.043881804, -0.1346612, 0.21789074
395, 1214590271, -111.02944946289062, -82.93028259277344, -74.80420684814453, -0.04090568, -0.09487909, 0.23882389
396, 1214606938, -111.0289306640625, -82.93750762939453, -74.84979248046875, 0.0063061495, -0.08207919, 0.2059927
397, 1214623605, -110.98455047607422, -82.94990539550781, -74.9412841796875, 0.03082827, -0.037869457, 0.20384312
398, 1214640272, -110.90835571289062, -82.96636962890625, -75.06604766845703, 0.019877857, 0.037772857, 0.18198776
399, 1214656939, -110.81834411621094, -82.98088073730469, -75.20365142822266, -0.021928756, 0.09348767, 0.137743
400, 1214673606, -110.7807388305664, -82.98596954345703, -75.28223419189453, -0.06153024, 0.114792466, 0.109342575
401, 1214690273, -110.81759643554688, -82.9810791015625, -75.27291107177734, -0.07158808, 0.100042045, 0.15050888
402, 1214706940, -110.8683853149414, -82.96974182128906, -75.23270416259766, -0.05896398, 0.07837268, 0.19208336
403, 1214723607, -110.8642578125, -82.96360778808594, -75.23405456542969, -0.010839212, 0.04606159, 0.20432186
404, 1214740274, -110.8320541381836, -82.95934295654297, -75.2593002319336, 0.03945442, 0.037354127, 0.18657589
405, 1214756941, -110.80415344238281, -82.95362854003906, -75.28196716308594, 0.049259704, 0.021773517, 0.18261242
406, 1214773608, -110.75740814208984, -82.9520492553711, -75.32649993896484, 0.035811644, -0.0077828327, 0.19530869
407, 1214790275, -110.66564178466797, -82.95697784423828, -75.42914581298828, 0.046121664, -0.034281634, 0.17964363
408, 1214806942, -110.59442901611328, -82.9627685546875, -75.52352905273438, 0.007123448, -0.086215995, 0.16596508
409, 1214823609, -110.58229064941406, -82.9717788696289, -75.54735565185547, -0.06055719, -0.10686292, 0.20439434
410, 1214840276, -110.60554504394531, -82.98916625976562, -75.5270767211914, -0.08885981, -0.05893306, 0.22512531
411, 1214856943, -110.56082916259766, -83.01972961425781, -75.57845306396484, -0.10894775, 0.037252087, 0.20783138
412, 1214873610, -110.37439727783203, -83.05330657958984, -75.7701187133789, -0.09152923, 0.14562124, 0.16353703
413, 1214890277, -110.1831283569336, -83.0709228515625, -75.962890625, -0.043893676, 0.25533104, 0.12326431
414, 1214906944, -110.11125946044922, -83.06961822509766, -76.02823638916016, -0.02762586, 0.24900503, 0.11408615
415, 1214923611, -110.15786743164062, -83.0618896484375, -75.9549331665039, -0.031191768, 0.20720142, 0.14863491
416, 1214940278, -110.17650604248047, -83.05352783203125, -75.88333892822266, -0.024617061, 0.13261147, 0.20923996
417, 1214956945, -110.09143829345703, -83.04882049560547, -75.89700317382812, 0.021229062, 0.08363403, 0.2258997
418, 1214973612, -109.94519805908203, -83.05200958251953, -75.96305847167969, 0.049623523, 0.03483906, 0.17676067
419, 1214990279, -109.8598861694336, -83.05567169189453, -75.96800231933594, 0.037703086, -0.028815547, 0.14886379
420, 1215006946, -109.82087707519531, -83.05220794677734, -75.93346405029297, 0.018010039, -0.10413474, 0.17451572
421, 1215023613, -109.75190734863281, -83.04286193847656, -75.93681335449219, 0.023686778, -0.18160634, 0.18680191
422, 1215040280, -109.64702606201172, -83.03711700439453, -75.98270416259766, 0.05542853, -0.24375896, 0.18567657
423, 1215056947, -109.56843566894531, -83.0350570678711, -76.01248931884766, 0.06388786, -0.26477936, 0.19750595
424, 1215073614, -109.52110290527344, -83.04243469238281, -76.03785705566406, 0.076944396, -0.22640622, 0.17445087
425, 1215090281, -109.47175598144531, -83.05802154541016, -76.09880828857422, 0.06180634, -0.23080054, 0.15637779
426, 1215106948, -109.40609741210938, -83.0720443725586, -76.20951080322266, 0.057650175, -0.20643714, 0.16086197
427, 1215123615, -109.33580017089844, -83.08409881591797, -76.34782409667969, 0.040457048, -0.14358251, 0.18044186
428, 1215140282, -109.29334259033203, -83.09635925292969, -76.4718017578125, 0.034294926, -0.092922665, 0.1643734
429, 1215156949, -109.29268646240234, -83.1104965209961, -76.55979919433594, 0.014897341, -0.04033047, 0.18662739
430, 1215173616, -109.2367935180664, -83.13156127929688, -76.69043731689453, -0.030782718, 0.047548402, 0.23431206
431, 1215190283, -109.12557983398438, -83.16361999511719, -76.85969543457031, -0.055615146, 0.14034015, 0.25351143
432, 1215206950, -108.97161102294922, -83.20987701416016, -77.0631332397461, -0.08879962, 0.2348794, 0.21891212
433, 1215223617, -108.7994155883789, -83.25776672363281, -77.28179168701172, -0.116752855, 0.31769076, 0.12071228
434, 1215240284, -108.72322082519531, -83.2818374633789, -77.39317321777344, -0.1303862, 0.3602449, 0.05843067
435, 1215256951, -108.79196166992188, -83.2728500366211, -77.34207916259766, -0.09710002, 0.3411603, 0.07188797
436, 1215273618, -108.9067153930664, -83.2480239868164, -77.21623992919922, -0.03530826, 0.26005346, 0.123553276
437, 1215290285, -108.93611907958984, -83.21958923339844, -77.14844512939453, 0.0023998988, 0.12711252, 0.13932133
438, 1215306952, -108.90481567382812, -83.18928527832031, -77.12539672851562, 0.0582723, 0.008847279, 0.16401196
439, 1215323619, -108.87201690673828, -83.16278839111328, -77.09498596191406, 0.03907314, -0.094067916, 0.2208662
440, 1215340286, -108.87874603271484, -83.15017700195312, -77.03215789794922, 0.056035046, -0.18551248, 0.23143387
441, 1215356953, -108.92665100097656, -83.14659881591797, -76.94508361816406, 0.08025901, -0.23687394, 0.2210617
442, 1215373620, -108.95343017578125, -83.14685821533203, -76.89799499511719, 0.09250906, -0.2430134, 0.18634415
443, 1215390287, -108.98233032226562, -83.14794158935547, -76.86534881591797, 0.11784483, -0.23547202, 0.18191719
444, 1215406954, -108.98450469970703, -83.15338897705078, -76.87319946289062, 0.112465166, -0.22363986, 0.21209717
445, 1215423621, -108.93930053710938, -83.16622924804688, -76.94249725341797, 0.066764474, -0.17967363, 0.20725346
446, 1215440288, -108.86647033691406, -83.18566131591797, -77.05143737792969, 0.034172907, -0.10863767, 0.20167446
447, 1215456955, -108.82632446289062, -83.20762634277344, -77.136474609375, -0.0065026744, 0.0055811726, 0.15876865
448, 1215473622, -108.84584045410156, -83.22367095947266, -77.17031860351562, -0.011317106, 0.09258079, 0.13278484
449, 1215490289, -108.89407348632812, -83.22630310058594, -77.17723846435547, -0.013684625, 0.13930202, 0.13200378
450, 1215506956, -108.93072509765625, -83.21854400634766, -77.18403625488281, 0.028560782, 0.1363782, 0.14771652
451, 1215523623, -108.95157623291016, -83.20829010009766, -77.1805648803711, 0.042178307, 0.119857386, 0.17862034
452, 1215540290, -108.9715576171875, -83.20223236083984, -77.15153503417969, 0.030167788, 0.09838712, 0.18833923
453, 1215556957, -109.0118408203125, -83.19712829589844, -77.08275604248047, 0.0054482445, 0.06799673, 0.1962061
454, 1215573624, -109.08230590820312, -83.19176483154297, -76.9699935913086, -0.012148399, 0.04754149, 0.18132782
455, 1215590291, -109.1581039428711, -83.18614959716797, -76.845458984375, 0.014609909, 0.020193899, 0.19542408
456, 1215606958, -109.19613647460938, -83.1810531616211, -76.75501251220703, 0.023851158, -0.011401555, 0.21146584
457, 1215623625, -109.18619537353516, -83.1813735961914, -76.71823120117188, 0.037089635, -0.028084716, 0.18495274
458, 1215640292, -109.14391326904297, -83.18243408203125, -76.7279281616211, -0.021730045, -0.042139243, 0.17190933
459, 1215656959, -109.1075668334961, -83.18370056152344, -76.75208282470703, -0.06891369, -0.05760176, 0.18068123
460, 1215673626, -109.05753326416016, -83.18560791015625, -76.81000518798828, -0.12273415, -0.084332325, 0.1948204
461, 1215690293, -109.01213073730469, -83.18778991699219, -76.87980651855469, -0.105112486, -0.07913077, 0.17288113
462, 1215706960, -109.01747131347656, -83.18724822998047, -76.9102783203125, -0.06683542, -0.08902868, 0.13812351
463, 1215723627, -109.07160949707031, -83.18647003173828, -76.8989486694336, -0.03169725, -0.07174635, 0.16537476
464, 1215740294, -109.12467193603516, -83.18822479248047, -76.88536071777344, 0.030711787, -0.049619295, 0.15056801
465, 1215756961, -109.1623764038086, -83.19158935546875, -76.87846374511719, 0.05832447, 4.5089898E-4, 0.1726284
466, 1215773628, -109.19956970214844, -83.19429779052734, -76.8646469116211, 0.049266372, 0.053597216, 0.18591976
467, 1215790295, -109.22660827636719, -83.19599914550781, -76.85271453857422, 0.06263404, 0.07408023, 0.19575882
468, 1215806962, -109.21247100830078, -83.19795989990234, -76.87557983398438, 0.076071255, 0.062468596, 0.1982317
469, 1215823629, -109.16827392578125, -83.1991195678711, -76.92537689208984, 0.09814969, 0.034981966, 0.16876125
470, 1215840296, -109.15042877197266, -83.19429779052734, -76.9437484741211, 0.10440561, -0.022921752, 0.15231419
471, 1215856963, -109.17923736572266, -83.1826400756836, -76.90616607666016, 0.1143225, -0.104777955, 0.15946865
472, 1215873630, -109.22896575927734, -83.16987609863281, -76.84403991699219, 0.11185753, -0.15454929, 0.20282269
473, 1215890297, -109.25857543945312, -83.1573715209961, -76.80989074707031, 0.11086951, -0.16374014, 0.21055698
474, 1215906964, -109.27527618408203, -83.14923858642578, -76.80282592773438, 0.07896332, -0.20331046, 0.27043343
475, 1215923631, -109.20586395263672, -83.16069793701172, -76.89571380615234, 0.004938788, -0.1845202, 0.31099415
476, 1215940298, -109.03123474121094, -83.20451354980469, -77.11116790771484, -0.06634858, -0.04146182, 0.21867085
477, 1215956965, -108.8467788696289, -83.26166534423828, -77.35271453857422, -0.11487001, 0.09825915, 0.050505638
478, 1215973632, -108.77998352050781, -83.29437255859375, -77.47550964355469, -0.17702729, 0.18503775, -0.05904579
479, 1215990299, -108.8991928100586, -83.28116607666016, -77.387939453125, -0.26604065, 0.2308683, 0.012803078
480, 1216006966, -109.137451171875, -83.24117279052734, -77.15653991699219, -0.2877102, 0.20802034, 0.18597794
481, 1216023633, -109.35545349121094, -83.21756744384766, -76.92603302001953, -0.22820115, 0.13934797, 0.26863956
482, 1216040300, -109.46549224853516, -83.21170043945312, -76.79385375976562, -0.102374785, 0.15661472, 0.2598467
483, 1216056967, -109.43283081054688, -83.21600341796875, -76.7967300415039, 0.07210889, 0.22348571, 0.19680023
484, 1216073634, -109.36847686767578, -83.21259307861328, -76.82958984375, 0.18936, 0.21218973, 0.13370895
485, 1216090301, -109.31453704833984, -83.19274139404297, -76.84429931640625, 0.23515971, 0.14934772, 0.1761074
486, 1216106968, -109.30596160888672, -83.16798400878906, -76.79051208496094, 0.19273818, 0.036135223, 0.21930408
487, 1216123635, -109.34847259521484, -83.14591217041016, -76.66082000732422, 0.14041123, -0.120872885, 0.256485
488, 1216140302, -109.41761016845703, -83.13967895507812, -76.48342895507812, 0.14048694, -0.21515474, 0.2383194
489, 1216156969, -109.43181610107422, -83.14957427978516, -76.36174774169922, 0.10800441, -0.2575943, 0.20821953
490, 1216173636, -109.38870239257812, -83.16622924804688, -76.3212890625, 0.070794046, -0.23559245, 0.16662598
491, 1216190303, -109.32266998291016, -83.18341064453125, -76.34748077392578, -0.014993096, -0.22158149, 0.12844181
492, 1216206970, -109.2428207397461, -83.19461822509766, -76.43728637695312, -0.07357625, -0.22011654, 0.13081932
493, 1216223637, -109.15264129638672, -83.19424438476562, -76.58063507080078, -0.08107902, -0.19892986, 0.12663174
494, 1216240304, -109.104736328125, -83.18528747558594, -76.70624542236328, -0.09728761, -0.18930997, 0.13348007
495, 1216256971, -109.13558197021484, -83.17720794677734, -76.75333404541016, -0.052605517, -0.11988654, 0.18177128
496, 1216273638, -109.22535705566406, -83.17896270751953, -76.72030639648438, -0.012031199, -0.030419623, 0.225811
497, 1216290305, -109.32586669921875, -83.19331359863281, -76.65504455566406, 0.01434943, 0.06589663, 0.21803093
498, 1216306972, -109.40571594238281, -83.21349334716797, -76.59591674804688, 0.045682557, 0.1165444, 0.17195606
499, 1216323639, -109.45491027832031, -83.22552490234375, -76.55941009521484, 0.04422067, 0.1580836, 0.1401043
500, 1216340306, -109.48271942138672, -83.2249755859375, -76.53828430175781, 0.029373113, 0.19963199, 0.14437962
501, 1216356973, -109.47603607177734, -83.21820831298828, -76.54682922363281, 0.016403299, 0.22127962, 0.17582417
502, 1216373640, -109.43441009521484, -83.2077407836914, -76.5822982788086, 0.013122419, 0.20952079, 0.20814228
503, 1216390307, -109.3668212890625, -83.19940185546875, -76.63090515136719, -0.0037492753, 0.14123558, 0.21099472
504, 1216406974, -109.31959533691406, -83.19087219238281, -76.64799499511719, -0.0023203806, 0.020506656, 0.16396236
505, 1216423641, -109.3161849975586, -83.1818618774414, -76.61658477783203, -0.050339483, -0.08625076, 0.17287254
506, 1216440308, -109.36637115478516, -83.17444610595703, -76.53325653076172, -0.053154387, -0.1735153, 0.16152668
507, 1216456975, -109.4112548828125, -83.1700439453125, -76.46595764160156, -0.0639902, -0.18043806, 0.18626785
508, 1216473642, -109.44029998779297, -83.174560546875, -76.43191528320312, -0.060774695, -0.13018489, 0.16535568
509, 1216490309, -109.46757507324219, -83.18209838867188, -76.41675567626953, -0.016073022, -0.045544412, 0.17496109
510, 1216506976, -109.47711944580078, -83.19026947021484, -76.43047332763672, 0.0034064995, 0.038534906, 0.19056511
511, 1216523643, -109.4390640258789, -83.19664001464844, -76.5049057006836, 0.023633162, 0.09558593, 0.20091057
512, 1216540310, -109.38025665283203, -83.1968994140625, -76.6026840209961, 0.028751614, 0.107130304, 0.1659441
513, 1216556977, -109.4006118774414, -83.19194030761719, -76.6081314086914, 0.044751737, 0.08270415, 0.14974594
514, 1216573644, -109.49579620361328, -83.1855697631836, -76.52320861816406, 0.02619457, 0.056657843, 0.14623356
515, 1216590311, -109.6194839477539, -83.18140411376953, -76.39632415771484, 0.0146622015, 0.014057395, 0.19983959
516, 1216606978, -109.63678741455078, -83.18359375, -76.36715698242188, 0.004031361, 0.001277181, 0.2399311
517, 1216623645, -109.53206634521484, -83.19300079345703, -76.45252990722656, -0.025753792, -0.010943022, 0.19873524
518, 1216640312, -109.4197769165039, -83.20479583740234, -76.53897857666016, -0.009428703, -0.0121123465, 0.1442833
519, 1216656979, -109.37653350830078, -83.20886993408203, -76.55615234375, -0.015318627, -0.0070282985, 0.10960102
520, 1216673646, -109.38542938232422, -83.20173645019531, -76.52525329589844, -0.0131392935, -0.008396234, 0.13723469
521, 1216690313, -109.4143295288086, -83.19011688232422, -76.48444366455078, -0.018284997, -0.023637148, 0.16871452
522, 1216706980, -109.45235443115234, -83.18062591552734, -76.44580078125, 0.0020514324, -0.063735425, 0.1929102
523, 1216723647, -109.47515106201172, -83.17634582519531, -76.43328094482422, 0.03141616, -0.098673776, 0.18063545
524, 1216740314, -109.53350830078125, -83.17485046386719, -76.3935775756836, 0.03170106, -0.093984604, 0.16375732
525, 1216756981, -109.58647918701172, -83.17732238769531, -76.3632583618164, 0.035662323, -0.075660035, 0.19483852
526, 1216773648, -109.59937286376953, -83.18482971191406, -76.37890625, 0.001899915, -0.054806408, 0.20037746
527, 1216790315, -109.56558990478516, -83.1932373046875, -76.448486328125, 0.0056412052, -0.022231597, 0.1951065
528, 1216806982, -109.51020812988281, -83.20341491699219, -76.54594421386719, -0.017358879, 0.0017119678, 0.1687479
529, 1216823649, -109.49488830566406, -83.21037292480469, -76.6025161743164, -0.041162033, 0.045161508, 0.13864613
530, 1216840316, -109.53790283203125, -83.21528625488281, -76.5882339477539, -0.04194442, 0.072558746, 0.16555214
531, 1216856983, -109.59085083007812, -83.21878051757812, -76.54254150390625, -0.042128064, 0.100644104, 0.1715002
532, 1216873650, -109.5974349975586, -83.22077941894531, -76.51747131347656, -0.019153696, 0.11116081, 0.17022228
533, 1216890317, -109.56181335449219, -83.2151107788086, -76.51983642578125, -0.009421543, 0.12106708, 0.16778564
534, 1216906984, -109.48651123046875, -83.20303344726562, -76.55341339111328, -0.0040501743, 0.10936631, 0.15372944
535, 1216923651, -109.42594146728516, -83.18804931640625, -76.56966400146484, -0.0030963502, 0.045473848, 0.18304634
536, 1216940318, -109.4024887084961, -83.17642211914062, -76.55269622802734, -6.858579E-4, -0.041406814, 0.18589401
537, 1216956985, -109.43860626220703, -83.16935729980469, -76.48473358154297, -0.011363991, -0.12411141, 0.15137196
538, 1216973652, -109.51067352294922, -83.16143798828125, -76.39177703857422, 0.022441393, -0.17565146, 0.17810726
539, 1216990319, -109.55443572998047, -83.15599060058594, -76.33785247802734, 0.03112925, -0.15552755, 0.18826675
540, 1217006986, -109.56880187988281, -83.15180969238281, -76.32682800292969, 0.042619284, -0.1518884, 0.18954849
541, 1217023653, -109.53966522216797, -83.14937591552734, -76.37138366699219, 0.044442944, -0.10066834, 0.20779514
542, 1217040320, -109.4684066772461, -83.1557388305664, -76.46998596191406, 0.042883053, -0.053693324, 0.18575191
543, 1217056987, -109.43037414550781, -83.1668930053711, -76.54409790039062, 0.050144564, -0.006711085, 0.1694479
544, 1217073654, -109.45467376708984, -83.17487335205078, -76.5586166381836, 0.023220867, 0.038538873, 0.160779
545, 1217090321, -109.49343872070312, -83.17906951904297, -76.55107879638672, 0.0138638085, 0.09244203, 0.16470337
546, 1217106988, -109.56681060791016, -83.17768859863281, -76.49494934082031, 0.012796849, 0.11365553, 0.17391396
547, 1217123655, -109.64628601074219, -83.17352294921875, -76.41637420654297, 0.008715887, 0.11971403, 0.1720419
548, 1217140322, -109.66417694091797, -83.16654968261719, -76.38365936279297, 0.013305872, 0.10758789, 0.18043804
549, 1217156989, -109.6153335571289, -83.16026306152344, -76.40501403808594, 0.0017936452, 0.07257809, 0.18052387
550, 1217173656, -109.53011322021484, -83.1507797241211, -76.455810546875, -0.015414093, 0.038365033, 0.16790581
551, 1217190323, -109.44802856445312, -83.14056396484375, -76.50003814697266, -0.027821219, -0.028502617, 0.17203903
552, 1217206990, -109.39447784423828, -83.13050842285156, -76.51104736328125, -0.050349865, -0.053358186, 0.20084381
553, 1217223657, -109.34722137451172, -83.12508392333984, -76.51290130615234, -0.056379847, -0.11396252, 0.19488144
554, 1217240324, -109.3048095703125, -83.12525177001953, -76.51132202148438, -0.036440216, -0.11398109, 0.17156792
555, 1217256991, -109.2881851196289, -83.12661743164062, -76.48760223388672, -0.015497265, -0.1071791, 0.16182613
556, 1217273658, -109.28289794921875, -83.12496948242188, -76.46304321289062, -0.029754814, -0.07777158, 0.16400814
557, 1217290325, -109.28351593017578, -83.1192626953125, -76.44984436035156, -0.030552594, -0.03327665, 0.17347527
558, 1217306992, -109.26175689697266, -83.11233520507812, -76.48258972167969, 0.0072186915, -0.021854503, 0.17891788
559, 1217323659, -109.21205139160156, -83.10553741455078, -76.56217956542969, 0.013083437, -0.0021653096, 0.21272373
560, 1217340326, -109.11727905273438, -83.10221099853516, -76.69744110107422, 0.05130941, -0.013211641, 0.21588135
561, 1217356993, -109.04610443115234, -83.10357666015625, -76.81096649169922, 0.0717869, -0.002717914, 0.21336174
562, 1217373660, -109.02457427978516, -83.11177062988281, -76.8680191040039, 0.061646927, 0.0010131458, 0.1844244
563, 1217390327, -109.03437805175781, -83.12659454345703, -76.88063049316406, 0.048903015, -4.3512386E-4, 0.18725872
564, 1217406994, -109.01652526855469, -83.14302062988281, -76.9067153930664, 0.01292506, 0.02676406, 0.18845654
565, 1217423661, -108.93928527832031, -83.15349578857422, -76.98297119140625, -0.011458622, 0.07248778, 0.16514969
566, 1217440328, -108.84649658203125, -83.15318298339844, -77.06927490234375, -0.02851629, 0.120098986, 0.15664291
567, 1217456995, -108.77450561523438, -83.14368438720703, -77.12750244140625, -0.032170523, 0.12134244, 0.16673851
568, 1217473662, -108.740478515625, -83.13835906982422, -77.13243103027344, -0.03636182, 0.13405606, 0.1655035
569, 1217490329, -108.73782348632812, -83.13932800292969, -77.08512878417969, -0.022883784, 0.15402924, 0.18684196
570, 1217506996, -108.697998046875, -83.1463394165039, -77.05221557617188, -0.024598163, 0.200081, 0.18067074
571, 1217523663, -108.60993194580078, -83.15243530273438, -77.05155944824219, -0.026584886, 0.26230392, 0.16892147
572, 1217540330, -108.55055236816406, -83.14568328857422, -77.01361083984375, 0.0070612617, 0.24268657, 0.14329815
573, 1217556997, -108.54633331298828, -83.12354278564453, -76.91947937011719, 0.02479587, 0.18164077, 0.18550587
574, 1217573664, -108.54826354980469, -83.09845733642578, -76.82299041748047, 0.043556426, 0.06614373, 0.21392536
575, 1217590331, -108.52574920654297, -83.07618713378906, -76.7537841796875, 0.052269094, -0.061628558, 0.21098804
576, 1217606998, -108.53468322753906, -83.06178283691406, -76.65523529052734, 0.105152436, -0.1975354, 0.18615723
577, 1217623665, -108.58096313476562, -83.05474853515625, -76.52708435058594, 0.09207534, -0.33580855, 0.17842007
578, 1217640332, -108.51856231689453, -83.05654907226562, -76.5169448852539, 0.08534639, -0.38428807, 0.19669056
579, 1217656999, -108.31533813476562, -83.06339263916016, -76.66659545898438, 0.022705102, -0.33586118, 0.19504356
580, 1217673666, -108.15438079833984, -83.07213592529297, -76.81954956054688, -0.0086857155, -0.22538938, 0.16544533
581, 1217690333, -108.10191345214844, -83.08596801757812, -76.90829467773438, -0.063289054, -0.22074114, 0.18409634
582, 1217707000, -108.11936950683594, -83.10576629638672, -76.96184539794922, -0.083748534, -0.20869735, 0.18762302
583, 1217723667, -108.06395721435547, -83.12682342529297, -77.11710357666016, -0.04826691, -0.17184244, 0.19666862
584, 1217740334, -107.93240356445312, -83.14888763427734, -77.36199951171875, -0.0026159375, -0.11622183, 0.15159798
585, 1217757001, -107.8972396850586, -83.16873168945312, -77.50165557861328, -0.0044123787, -0.039301895, 0.07166386
586, 1217773668, -107.99198913574219, -83.1773452758789, -77.50720977783203, -0.013445923, 0.041971657, 0.07624149
587, 1217790335, -108.13312530517578, -83.17225646972656, -77.46343231201172, -0.0682201, 0.10871618, 0.17049122
588, 1217807002, -108.20756530761719, -83.1654281616211, -77.47720336914062, -0.075820304, 0.15117757, 0.20089245
589, 1217823669, -108.24478149414062, -83.16371154785156, -77.52112579345703, -0.025295751, 0.13898762, 0.21365356
590, 1217840336, -108.2918472290039, -83.1690444946289, -77.54129791259766, 0.019644774, 0.13842203, 0.23805237
591, 1217857003, -108.3033218383789, -83.175048828125, -77.58151245117188, 0.061582547, 0.1543687, 0.21316147
592, 1217873670, -108.29711151123047, -83.17597198486328, -77.62047576904297, 0.100984834, 0.15328658, 0.15329742
593, 1217890337, -108.30599975585938, -83.17010498046875, -77.614013671875, 0.10923207, 0.05683736, 0.15028381
594, 1217907004, -108.32439422607422, -83.16032409667969, -77.58094024658203, 0.08659709, 0.017030567, 0.17620659
595, 1217923671, -108.29000854492188, -83.1509780883789, -77.60095977783203, 0.0562521, -0.058497507, 0.20358944
596, 1217940338, -108.24244689941406, -83.14685821533203, -77.64654541015625, 0.029241145, -0.110523954, 0.18338203
597, 1217957005, -108.2259750366211, -83.15003204345703, -77.67332458496094, 0.003059268, -0.099470496, 0.17830563
598, 1217973672, -108.2651138305664, -83.15625, -77.65595245361328, 0.009814628, -0.08192487, 0.17315292
599, 1217990339, -108.32655334472656, -83.16075134277344, -77.62390899658203, 0.0046997024, -0.063658245, 0.1715231
600, 1218007006, -108.3658447265625, -83.15957641601562, -77.62019348144531, -0.01076492, -0.05398895, 0.16594887
601, 1218023673, -108.39000701904297, -83.15845489501953, -77.63788604736328, -0.0048365016, -0.020896485, 0.1728735
602, 1218040340, -108.37895965576172, -83.15636444091797, -77.69839477539062, 0.0012522693, -0.0025429383, 0.18182945
603, 1218057007, -108.3771743774414, -83.15444946289062, -77.75255584716797, 0.016521474, 0.056125414, 0.19638824
604, 1218073674, -108.38829803466797, -83.1575698852539, -77.7944564819336, 0.028194863, 0.10678823, 0.18517876
605, 1218090341, -108.4232406616211, -83.16336059570312, -77.80297088623047, 0.012778293, 0.14178343, 0.17688751
606, 1218107008, -108.51216125488281, -83.16665649414062, -77.73511505126953, -0.014478487, 0.15471493, 0.15713787
607, 1218123675, -108.64134216308594, -83.16012573242188, -77.60126495361328, -0.045342047, 0.1435924, 0.15885067
608, 1218140342, -108.74066925048828, -83.14811706542969, -77.47463989257812, -0.076789625, 0.14510763, 0.18331814
609, 1218157009, -108.7491455078125, -83.13907623291016, -77.41780853271484, -0.030631417, 0.18627322, 0.2095747
610, 1218173676, -108.64788055419922, -83.12890625, -77.46077728271484, 0.049111743, 0.1657588, 0.26356888
611, 1218190343, -108.44273376464844, -83.12459564208984, -77.60731506347656, 0.06709908, 0.106973745, 0.26676083
612, 1218207010, -108.22320556640625, -83.1329574584961, -77.78196716308594, 0.071871206, 0.007990263, 0.21243572
613, 1218223677, -108.06880950927734, -83.15123748779297, -77.89923858642578, 0.041188642, -0.10539371, 0.122089386
614, 1218240344, -107.99972534179688, -83.17303466796875, -77.91676330566406, -0.05877603, -0.18886882, 0.075208664
615, 1218257011, -108.02892303466797, -83.18891143798828, -77.81634521484375, -0.19143328, -0.16451702, 0.108823776
616, 1218273678, -108.07209014892578, -83.19842529296875, -77.70712280273438, -0.25266278, -0.049601227, 0.15409565
617, 1218290345, -108.01673889160156, -83.20719909667969, -77.72212219238281, -0.23444687, 0.08199785, 0.18903828
618, 1218307012, -107.86637878417969, -83.21551513671875, -77.83795166015625, -0.14271194, 0.15802775, 0.18015862
619, 1218323679, -107.6527328491211, -83.22181701660156, -78.00423431396484, -0.10188264, 0.21009819, 0.1931696
620, 1218340346, -107.41653442382812, -83.22723388671875, -78.17762756347656, -0.103996255, 0.19965205, 0.23024559
621, 1218357013, -107.12670135498047, -83.24176025390625, -78.39193725585938, -0.108271845, 0.20487662, 0.2756071
622, 1218373680, -106.80136108398438, -83.26477813720703, -78.62305450439453, -0.07209291, 0.22094269, 0.26250172
623, 1218390347, -106.46240234375, -83.29630279541016, -78.84627532958984, -0.047972187, 0.25045863, 0.2753315
624, 1218407014, -105.99443054199219, -83.34041595458984, -79.18583679199219, -0.048058137, 0.36603633, 0.29783916
625, 1218423681, -105.42974853515625, -83.39666748046875, -79.6221923828125, -0.0653805, 0.4427063, 0.23951721
626, 1218440348, -104.83348083496094, -83.45796966552734, -80.0810546875, -0.09340749, 0.4535157, 0.17720413
627, 1218457015, -104.23888397216797, -83.50777435302734, -80.50857543945312, -0.09943064, 0.37929633, 0.13205147
628, 1218473682, -103.69204711914062, -83.5346450805664, -80.84616088867188, -0.07868512, 0.2746237, 0.11435509
629, 1218490349, -103.24175262451172, -83.5416259765625, -81.05113983154297, -0.060129866, 0.13814834, 0.101242065
630, 1218507016, -102.95440673828125, -83.54278564453125, -81.06816864013672, -0.013735301, -0.02416474, 0.1073513
631, 1218523683, -102.81919860839844, -83.5426025390625, -80.92481994628906, 0.022296488, -0.19867966, 0.11833191
632, 1218540350, -102.7677001953125, -83.54022979736328, -80.70360565185547, 0.036024734, -0.37758592, 0.11208725
633, 1218557017, -102.74649810791016, -83.5328598022461, -80.48207092285156, 0.09777522, -0.50177515, 0.077207565
634, 1218573684, -102.75386047363281, -83.51599884033203, -80.2869873046875, 0.16915712, -0.6004766, 0.117640495
635, 1218590351, -102.75100708007812, -83.49654388427734, -80.17840576171875, 0.23246253, -0.6219035, 0.26940727
636, 1218607018, -102.6277847290039, -83.49723815917969, -80.27162170410156, 0.23648, -0.5681096, 0.37284946
637, 1218623685, -102.35305786132812, -83.5329818725586, -80.60131072998047, 0.2290838, -0.46057084, 0.31776428
638, 1218640352, -102.01848602294922, -83.59283447265625, -81.06436920166016, 0.21595237, -0.3215381, 0.20308399
639, 1218657019, -101.73978424072266, -83.65943908691406, -81.5113525390625, 0.1500133, -0.20476815, 0.099637985
640, 1218673686, -101.61117553710938, -83.71837615966797, -81.82157897949219, 0.08125742, -0.09858089, 0.07901573
641, 1218690353, -101.60027313232422, -83.7616195678711, -81.99797821044922, 0.0046900273, -0.029948976, 0.10217571
642, 1218707020, -101.56148529052734, -83.78836059570312, -82.1737060546875, -0.06378247, 0.039524786, 0.14020061
643, 1218723687, -101.49644470214844, -83.80657196044922, -82.35521697998047, -0.054175247, 0.105999954, 0.084160805
644, 1218740354, -101.5092544555664, -83.81572723388672, -82.43610382080078, -0.038288906, 0.11768012, 0.02408886
645, 1218757021, -101.5787124633789, -83.81182098388672, -82.43191528320312, -0.068097904, 0.13991928, 0.1157217
646, 1218773688, -101.54568481445312, -83.79961395263672, -82.52230072021484, -0.056961894, 0.15701406, 0.1972065
647, 1218790355, -101.45822143554688, -83.78463745117188, -82.69129943847656, -0.060706913, 0.08429653, 0.19775867
648, 1218807022, -101.44794464111328, -83.76797485351562, -82.80421447753906, -0.06981881, -0.021552892, 0.15837193
649, 1218823689, -101.58759307861328, -83.75336456298828, -82.77235412597656, -0.08019265, -0.076713376, 0.15929699
650, 1218840356, -101.77558898925781, -83.74514770507812, -82.69474029541016, -0.035798155, -0.05687819, 0.2376318
651, 1218857023, -101.88442993164062, -83.7486572265625, -82.69564056396484, -0.006694264, -0.03668282, 0.27364635
652, 1218873690, -101.86719512939453, -83.76762390136719, -82.80386352539062, 0.01916097, -0.008731897, 0.26844215
653, 1218890357, -101.83599090576172, -83.80277252197266, -82.89915466308594, 0.053857174, 0.075033374, 0.20762157
654, 1218907024, -101.88310241699219, -83.84202575683594, -82.90139770507812, 0.09631081, 0.17638928, 0.13603783
655, 1218923691, -101.95311737060547, -83.87135314941406, -82.87284088134766, 0.09959423, 0.24181671, 0.12588978
656, 1218940358, -101.98160552978516, -83.87769317626953, -82.88542938232422, 0.119205855, 0.23574062, 0.11767578
657, 1218957025, -101.9801025390625, -83.86732482910156, -82.92694854736328, 0.12611343, 0.2109401, 0.16635704
658, 1218973692, -102.01043701171875, -83.85346984863281, -82.93172454833984, 0.13854189, 0.14066967, 0.198699
659, 1218990359, -102.03923034667969, -83.84722137451172, -82.93008422851562, 0.11385294, 0.029486116, 0.2366209
660, 1219007026, -102.02869415283203, -83.85452270507812, -82.953369140625, 0.08391957, -0.07783909, 0.21831322
661, 1219023693, -102.0606918334961, -83.86844635009766, -82.9083023071289, 0.018214611, -0.16218404, 0.17248154
662, 1219040360, -102.22907257080078, -83.88236999511719, -82.6966323852539, -0.06486242, -0.18043472, 0.1709547
663, 1219057027, -102.49917602539062, -83.89533233642578, -82.36902618408203, -0.15865442, -0.17465135, 0.14790821
664, 1219073694, -102.83841705322266, -83.90644836425781, -81.9806137084961, -0.25596538, -0.11689437, 0.12861061
665, 1219090361, -103.15670013427734, -83.9095458984375, -81.63545989990234, -0.29282117, -0.094145365, 0.17568398
666, 1219107028, -103.32128143310547, -83.91031646728516, -81.46649169921875, -0.26347795, -0.064185046, 0.22831059
667, 1219123695, -103.23551177978516, -83.91392517089844, -81.58100128173828, -0.20020592, -0.044841714, 0.25261497
668, 1219140362, -103.00727081298828, -83.92469024658203, -81.86943054199219, -0.16472535, 0.031547297, 0.22974491
669, 1219157029, -102.7799072265625, -83.94508361816406, -82.19507598876953, -0.3393634, 0.13280907, 0.18925571
670, 1219173696, -102.65328216552734, -83.97855377197266, -82.47230529785156, -0.58811384, 0.17047009, 0.204669
671, 1219190363, -102.55488586425781, -84.02459716796875, -82.77963256835938, -0.5854971, -0.046726514, 0.33022022
672, 1219207030, -102.43051147460938, -84.08467102050781, -83.13471984863281, -0.39585486, -0.31779844, 0.4352064
673, 1219223697, -102.3960952758789, -84.1855697631836, -83.43464660644531, -0.31440452, -0.2647268, 0.6193619
674, 1219240364, -102.43441009521484, -84.35910034179688, -83.77301025390625, -0.3082851, 0.06551802, 0.77818394
675, 1219257031, -101.85499572753906, -84.60552215576172, -84.85414123535156, -0.18983638, 0.2749637, 0.8951149
676, 1219273698, -99.83132934570312, -84.91446685791016, -87.42710876464844, -0.08979656, 0.29874218, 0.72567654
677, 1219290365, -95.84783935546875, -85.27458190917969, -91.95308685302734, -0.06400929, 0.25659218, 0.46911144
678, 1219307032, -89.10356903076172, -85.63700103759766, -99.26686096191406, -0.123242475, 0.22376685, 0.29897976
679, 1219323699, -79.6285171508789, -85.92768096923828, -109.34752655029297, -0.2785263, 0.16706336, 0.081196785
680, 1219340366, -68.91688537597656, -86.08773803710938, -120.63712310791016, -0.45369405, 0.113035865, -0.36593342
681, 1219357033, -58.96110916137695, -86.10831451416016, -131.056640625, -0.5777766, 0.010602678, -0.594223
682, 1219373700, -50.795658111572266, -86.01071166992188, -139.58653259277344, -0.613914, 0.037406597, -0.39047718
683, 1219390367, -44.12136459350586, -85.81975555419922, -146.69142150878906, -0.4586874, 0.14369442, 0.12461376
684, 1219407034, -38.077911376953125, -85.54719543457031, -153.34825134277344, -0.10900473, 0.011984904, 0.41042042
685, 1219423701, -32.226409912109375, -85.18257141113281, -159.97727966308594, 0.16978605, -0.3701071, 0.5726595
686, 1219440368, -26.56341552734375, -84.71194458007812, -166.4693603515625, 0.26779276, -0.6286122, 0.63371277
687, 1219457035, -21.38971519470215, -84.1561508178711, -172.40911865234375, 0.1862926, -0.6128182, 0.48451996
688, 1219473702, -16.77729606628418, -83.54068756103516, -177.71047973632812, 0.010028461, -0.36936042, 0.22608376
689, 1219490369, -12.773764610290527, -82.85658264160156, 177.66839599609375, 0.051387485, -0.105657816, 0.09709263
690, 1219507036, -9.33430004119873, -82.09060668945312, 173.65704345703125, 0.3130158, 0.17142884, 0.21179485
691, 1219523703, -6.388217926025391, -81.24227142333984, 170.1839599609375, 0.59825295, 0.48457867, 0.28597546
692, 1219540370, -3.977013349533081, -80.32460021972656, 167.319580078125, 0.849141, 0.6770677, 0.3518505
693, 1219557037, -2.0982537269592285, -79.32941436767578, 165.1812744140625, 1.0258921, 0.9435469, 0.09948254
694, 1219573704, -0.5499302744865417, -78.26306915283203, 163.64747619628906, 0.9124188, 1.1916399, 0.11019993
695, 1219590371, 0.7929484844207764, -77.12506866455078, 162.55369567871094, 0.9577064, 1.4831645, 0.32794094
696, 1219607038, 2.0307328701019287, -75.90511322021484, 161.75408935546875, 0.8741814, 1.5487429, 0.55021286
697, 1219623705, 3.1885452270507812, -74.62500762939453, 161.09141540527344, 0.5224678, 1.1484816, 0.3405285
698, 1219640372, 4.320917129516602, -73.26679992675781, 160.4705352783203, 0.12850839, 0.4899813, -0.013471603
699, 1219657039, 5.604050636291504, -71.82799530029297, 159.82521057128906, -0.16215312, -0.003787371, -0.35284233
700, 1219673706, 6.994459629058838, -70.36872863769531, 159.29945373535156, -0.31054947, -0.08037493, -0.76155186
701, 1219690373, 8.310460090637207, -69.04721069335938, 158.9375457763672, -0.3090225, 0.075831465, -0.91534615
702, 1219707040, 9.40090274810791, -67.77876281738281, 158.72854614257812, -0.30207002, 0.35747516, -0.62672424
703, 1219723707, 10.233758926391602, -66.49191284179688, 158.62954711914062, -0.29822767, 0.2890616, -0.36202335
704, 1219740374, 10.86539077758789, -65.19735717773438, 158.60958862304688, -0.30683547, -0.11070267, -0.049874306
705, 1219757041, 11.50609302520752, -63.933807373046875, 158.5985870361328, -0.17520255, -0.56345916, 0.14568901
706, 1219773708, 12.160158157348633, -62.77320098876953, 158.51414489746094, -0.30085778, -0.56537396, -0.29237556
707, 1219790375, 12.705060005187988, -61.54941177368164, 158.40362548828125, -0.24181898, -0.13036008, -0.5477648
708, 1219807042, 13.185161590576172, -60.26011657714844, 158.3662872314453, -0.033237346, -0.06531845, -0.44875813
709, 1219823709, 13.695259094238281, -59.01509475708008, 158.34814453125, -0.07961869, -0.13327272, -0.51610374
710, 1219840376, 14.179238319396973, -57.8962287902832, 158.28257751464844, 0.10655376, -0.30498472, -0.48285866
711, 1219857043, 14.581798553466797, -56.864139556884766, 158.1991424560547, -0.035945084, -0.46156362, -0.43651676
712, 1219873710, 14.828733444213867, -55.75970458984375, 158.1188201904297, -0.28120348, -0.27111134, -0.49109077
713, 1219890377, 15.08463191986084, -54.53273010253906, 158.0563507080078, -0.48506764, -0.18478715, -0.53160954
714, 1219907044, 15.444869995117188, -53.283817291259766, 157.9520721435547, -0.21269189, -0.4259488, -0.5329027
715, 1219923711, 15.861734390258789, -52.075927734375, 157.7621612548828, 0.091456115, -0.44158348, -0.37717915
716, 1219940378, 16.225101470947266, -50.88126754760742, 157.5587158203125, -0.06556035, -0.7128141, -0.34502792
717, 1219957045, 16.464384078979492, -49.64536666870117, 157.38185119628906, -0.37194133, -0.625517, -0.29561424
718, 1219973712, 16.60331916809082, -48.348731994628906, 157.2143096923828, -0.54531044, -0.25046495, -0.30060482
719, 1219990379, 16.723630905151367, -46.97576141357422, 157.00048828125, -0.52598065, 0.022831429, -0.42101002
720, 1220007046, 16.817760467529297, -45.61362075805664, 156.73446655273438, -0.23567016, 0.050960507, -0.22528648
721, 1220023713, 16.93219566345215, -44.28797149658203, 156.43690490722656, -0.18397625, 0.080831, 0.0737381
722, 1220040380, 17.0059814453125, -43.00298309326172, 156.11923217773438, 0.01994844, 0.24102867, 0.037822723
723, 1220057047, 16.946849822998047, -41.783939361572266, 155.82229614257812, 0.10463586, 0.561489, -0.25768757
724, 1220073714, 16.748703002929688, -40.5639533996582, 155.5975341796875, 0.28336006, 1.0078571, -0.3682022
725, 1220090381, 16.583913803100586, -39.31117630004883, 155.47720336914062, 0.2554349, 1.2221742, -0.5259628
726, 1220107048, 16.544387817382812, -38.01948165893555, 155.5147705078125, 0.39254045, 0.94425654, -0.40689945
727, 1220123715, 16.601932525634766, -36.70858383178711, 155.66090393066406, 0.12441983, 0.55294913, -0.4365387
728, 1220140382, 16.69119644165039, -35.38496017456055, 155.80911254882812, -0.2937114, 0.20940323, -0.37582016
729, 1220157049, 16.69118881225586, -34.02459716796875, 155.92535400390625, -0.35729304, 0.14238733, 0.027861595
730, 1220173716, 16.62135887145996, -32.70363998413086, 156.0332794189453, -0.40620548, 0.19026476, -0.033872604
731, 1220190383, 16.470029830932617, -31.443458557128906, 156.2106170654297, -0.4042076, 0.15522604, -0.05872917
732, 1220207050, 16.320894241333008, -30.198196411132812, 156.46653747558594, -0.66686934, -0.18788938, 0.05014038
733, 1220223717, 16.12722396850586, -28.982402801513672, 156.69180297851562, -0.4469852, -0.4063769, 0.2644949
734, 1220240384, 15.876543045043945, -27.744659423828125, 156.86888122558594, -0.41698733, -0.5808205, 0.1537857
735, 1220257051, 15.545392990112305, -26.506807327270508, 157.00711059570312, -0.3397601, -0.24745722, -0.21269894
736, 1220273718, 15.222304344177246, -25.28219223022461, 157.1392059326172, 0.14766781, 0.27008685, 0.062339783
737, 1220290385, 14.971542358398438, -24.09559440612793, 157.2558135986328, 0.5496231, 0.55870265, 0.33125687
738, 1220307052, 14.899547576904297, -22.95637321472168, 157.3726043701172, 0.43892804, 0.17998841, 0.6773205
739, 1220323719, 14.874048233032227, -21.857135772705078, 157.4858856201172, -0.38514847, -0.01956529, 0.092998505
740, 1220340386, 14.815917015075684, -20.80992317199707, 157.55296325683594, -0.6668155, -0.067162484, 0.1933403
741, 1220357053, 14.761139869689941, -19.787141799926758, 157.56094360351562, -0.71662706, -0.2405609, 0.3607359
742, 1220373720, 14.637553215026855, -18.75536346435547, 157.54335021972656, -0.17600022, -0.24718103, 0.8579931
743, 1220390387, 14.51834774017334, -17.76502799987793, 157.5766143798828, -0.014478248, 0.019797856, 0.5531807
744, 1220407054, 14.340791702270508, -16.843534469604492, 157.64418029785156, 0.26645303, 0.45040646, 0.33387947
745, 1220423721, 14.22637939453125, -15.986959457397461, 157.73593139648438, 0.33141717, 0.3028602, 0.55788136
746, 1220440388, 14.100144386291504, -15.17941951751709, 157.8665771484375, 0.18281789, 0.06827586, 0.44783878
747, 1220457055, 13.940823554992676, -14.412755966186523, 158.03919982910156, 0.28022176, -0.055868, 0.76013947
748, 1220473722, 13.833293914794922, -13.741153717041016, 158.20361328125, 0.42792183, -0.14766291, 1.0238762
749, 1220490389, 13.782854080200195, -13.155282974243164, 158.32510375976562, 0.26302892, -0.096672915, 0.79146385
750, 1220507056, 13.745034217834473, -12.637456893920898, 158.38658142089844, 0.24227363, -0.14073588, 0.9562292
751, 1220523723, 13.696250915527344, -12.22873306274414, 158.39279174804688, 0.3066258, -0.127534, 1.1477137
752, 1220540390, 13.661301612854004, -11.934965133666992, 158.35162353515625, 0.27195907, -0.0037775086, 1.2048922
753, 1220557057, 13.645686149597168, -11.724666595458984, 158.30007934570312, 0.26218948, 0.050330117, 1.0931301
754, 1220573724, 13.614678382873535, -11.595335006713867, 158.28602600097656, 0.4944677, 0.29514888, 1.2471638
755, 1220590391, 13.616658210754395, -11.600830078125, 158.3112335205078, 0.5960109, 0.25167197, 1.3372831
756, 1220607058, 13.661197662353516, -11.723716735839844, 158.37049865722656, 0.37768978, 0.20199767, 1.1078968
757, 1220623725, 13.664785385131836, -11.92972469329834, 158.42782592773438, 0.20275939, 0.1425511, 1.1200237
758, 1220640392, 13.639921188354492, -12.232967376708984, 158.46633911132812, 0.12416386, -0.020829432, 1.3055143
759, 1220657059, 13.578109741210938, -12.66319465637207, 158.46951293945312, 0.0059146835, -0.20627017, 1.230175
760, 1220673726, 13.477444648742676, -13.184755325317383, 158.431396484375, -0.074421644, -0.18467095, 1.3383598
761, 1220690393, 13.347261428833008, -13.781474113464355, 158.3583221435547, -0.09379827, 0.009390702, 1.1326246
762, 1220707060, 13.189772605895996, -14.469244956970215, 158.25856018066406, -0.0039540976, 0.21667577, 1.2633886
763, 1220723727, 13.078091621398926, -15.239316940307617, 158.15492248535156, -0.12642196, 0.17151281, 1.5014334
764, 1220740394, 13.015774726867676, -16.102943420410156, 158.0435791015625, -0.43399638, 0.16733828, 1.1149244
765, 1220757061, 12.975508689880371, -17.044126510620117, 157.927001953125, -0.37255743, 0.46179458, 0.72484493
766, 1220773728, 12.964462280273438, -18.046674728393555, 157.81732177734375, 0.4357485, 0.7071065, 0.9579687
767, 1220790395, 13.012649536132812, -19.10395050048828, 157.7261962890625, 0.958989, 0.81722134, 0.6732645
768, 1220807062, 13.22514820098877, -20.26607322692871, 157.6877899169922, 1.2285664, 0.7423204, 0.51143074
769, 1220823729, 13.640039443969727, -21.516828536987305, 157.72879028320312, 1.0765628, 0.78776896, 0.2059393
770, 1220840396, 14.154854774475098, -22.849960327148438, 157.8045196533203, 0.8801983, 0.85577697, 0.33835697
771, 1220857063, 14.73867416381836, -24.273752212524414, 157.87303161621094, 0.4797147, 0.6153832, 0.5168009
772, 1220873730, 15.367873191833496, -25.804922103881836, 157.91342163085938, -0.058977567, 0.11475507, 0.53921413
773, 1220890397, 15.945882797241211, -27.38494300842285, 157.9292755126953, -0.55332285, -0.4879671, 0.5878725
774, 1220907064, 16.41102409362793, -28.979976654052734, 157.91036987304688, -0.8464906, -0.8987755, 0.56925964
775, 1220923731, 16.768356323242188, -30.59874153137207, 157.84817504882812, -0.9644261, -0.9394844, 0.2949772
776, 1220940398, 16.996864318847656, -32.253116607666016, 157.73092651367188, -0.65526164, -0.8124993, 0.3083582
777, 1220957065, 17.10273551940918, -33.9564323425293, 157.57656860351562, -0.52253044, -0.6893243, 0.08769894
778, 1220973732, 17.08844757080078, -35.728904724121094, 157.428466796875, -0.55884254, -0.32881454, -0.020015717
779, 1220990399, 17.05265235900879, -37.556236267089844, 157.33753967285156, -0.60733443, 0.09477243, -0.07067108
780, 1221007066, 17.038061141967773, -39.416996002197266, 157.313720703125, -0.6381098, 0.4231283, -0.19574738
781, 1221023733, 17.041831970214844, -41.30183410644531, 157.3375244140625, -0.49389726, 0.52436686, -0.20281792
782, 1221040400, 17.06226921081543, -43.186588287353516, 157.37844848632812, -0.52534604, 0.38936406, -0.35381985
783, 1221057067, 17.08417510986328, -45.04967498779297, 157.4020538330078, -0.47411865, 0.060982548, -0.38801956
784, 1221073734, 17.00337791442871, -46.89773941040039, 157.4027557373047, -0.61641896, -0.16359779, -0.6498585
785, 1221090401, 16.829572677612305, -48.75669479370117, 157.36798095703125, -0.84089094, -0.41112036, -0.84102154
786, 1221107068, 16.546850204467773, -50.642303466796875, 157.36793518066406, -1.3288729, -0.65833586, -0.8702898
787, 1221123735, 16.058429718017578, -52.57571029663086, 157.4420166015625, -1.5397497, -0.6526505, -0.8397455
788, 1221140402, 15.28844165802002, -54.55165481567383, 157.6074676513672, -0.8914265, -0.5562891, -0.65658474
789, 1221157069, 14.27685546875, -56.52847671508789, 157.8762969970703, -0.74951255, -0.37897986, -0.82049847
790, 1221173736, 13.130876541137695, -58.435665130615234, 158.20370483398438, -0.63845867, -0.078913875, -1.0028324
791, 1221190403, 11.902236938476562, -60.2825927734375, 158.49420166015625, -0.3549534, 0.14245518, -1.1706228
792, 1221207070, 10.640788078308105, -62.055458068847656, 158.73440551757812, -0.359062, 0.21438812, -1.1749783
793, 1221223737, 9.390969276428223, -63.76324462890625, 158.9389190673828, -0.09813074, 0.037732676, -1.1646051
794, 1221240404, 8.220511436462402, -65.43800354003906, 159.06732177734375, 0.2742019, -0.041763563, -1.1978168
795, 1221257071, 7.15479850769043, -67.03982543945312, 159.1629638671875, 0.6388409, 0.057485912, -1.2830324
796, 1221273738, 6.209933757781982, -68.46611785888672, 159.24765014648438, 1.0886444, 0.2718336, -1.1775408
797, 1221290405, 5.370016098022461, -69.77935791015625, 159.3380584716797, 1.4982563, 0.28687385, -1.0182343
798, 1221307072, 4.624154567718506, -71.03795623779297, 159.52110290527344, 1.263752, 0.098240875, -0.56110954
799, 1221323739, 3.8894500732421875, -72.17110443115234, 159.86181640625, 0.8832046, 0.023042677, -0.1483078
800, 1221340406, 3.189990520477295, -73.17605590820312, 160.271240234375, 0.9263076, 0.16342887, 0.20586681
801, 1221357073, 2.6131505966186523, -74.11337280273438, 160.64187622070312, 1.025001, 0.45929778, 0.45023823
802, 1221373740, 2.092538833618164, -74.96849822998047, 161.02096557617188, 0.83700186, 0.7982404, 0.576437
803, 1221390407, 1.499304175376892, -75.72982788085938, 161.5851593017578, 0.7979056, 0.90939903, 0.5473623
804, 1221407074, 0.9246343374252319, -76.39307403564453, 162.3730010986328, 0.8101754, 0.9015785, 0.4152937
805, 1221423741, 0.4722957909107208, -76.97220611572266, 163.28384399414062, 0.5848949, 0.90401447, 0.27679157
806, 1221440408, 0.1727486401796341, -77.48896026611328, 164.14300537109375, 0.20591408, 0.92446214, 0.2357521
807, 1221457075, 5.278621683828533E-4, -77.95704650878906, 164.78724670410156, -0.14812058, 0.8641578, 0.27463245
808, 1221473742, -0.004946081433445215, -78.38886260986328, 165.1558837890625, -0.3583526, 0.44819143, 0.28405
809, 1221490409, 0.03806396946310997, -78.83041381835938, 165.4116668701172, -0.35954273, -0.06956489, 0.16224194
810, 1221507076, -0.00725688599050045, -79.287353515625, 165.7192840576172, -0.44969025, -0.37229902, 0.14955902
811, 1221523743, -0.2966485321521759, -79.67876434326172, 166.22254943847656, -0.33852875, -0.508813, 0.15234852
812, 1221540410, -0.9340410828590393, -79.9824447631836, 166.98583984375, -0.16338451, -0.54501826, 0.24844074
813, 1221557077, -1.703895092010498, -80.17011260986328, 167.77835083007812, -0.09915542, -0.5279063, 0.44755554
814, 1221573744, -2.376566171646118, -80.24607849121094, 168.43255615234375, -0.23047183, -0.36838993, 0.6562977
815, 1221590411, -2.8764193058013916, -80.23592376708984, 168.9521026611328, -0.5168132, -0.17784154, 0.68215275
816, 1221607078, -3.214550018310547, -80.17851257324219, 169.29498291015625, -0.6111309, 0.037370194, 0.41478157
817, 1221623745, -3.422071695327759, -80.15455627441406, 169.4598846435547, -0.44834545, 0.25660416, -0.012246132
818, 1221640412, -3.538088083267212, -80.20100402832031, 169.45066833496094, -0.57981384, 0.40170446, -0.058794975
819, 1221657079, -3.6505584716796875, -80.24706268310547, 169.34567260742188, -0.6587566, 0.37564275, 0.17217445
820, 1221673746, -3.7539350986480713, -80.25712585449219, 169.21864318847656, -0.6484281, 0.35461292, 0.23760986
821, 1221690413, -3.9475595951080322, -80.17999267578125, 169.20388793945312, -0.50371575, 0.3926476, 0.34024048
822, 1221707080, -4.291894435882568, -80.0274658203125, 169.37716674804688, -0.3329845, 0.3928654, 0.34424114
823, 1221723747, -4.588573455810547, -79.859375, 169.5807647705078, -0.43879884, 0.48271176, 0.43593884
824, 1221740414, -4.595623970031738, -79.71187591552734, 169.624267578125, -0.4440997, 0.65233374, 0.25914097
825, 1221757081, -4.407896041870117, -79.58544921875, 169.5615692138672, -0.33629918, 0.80630326, 0.036164284
826, 1221773748, -4.013606548309326, -79.44355773925781, 169.30032348632812, -0.26008576, 0.72809446, 0.1491127
827, 1221790415, -3.4684321880340576, -79.26182556152344, 168.9057159423828, -0.25342008, 0.4884133, 0.3468666
828, 1221807082, -2.7439866065979004, -79.05034637451172, 168.38584899902344, -0.37904546, 0.47183418, 0.41859818
829, 1221823749, -1.9470101594924927, -78.80570983886719, 167.83615112304688, -0.42765558, 0.36712623, 0.32446384
830, 1221840416, -1.263277292251587, -78.55411529541016, 167.4271240234375, -0.637335, 0.23918937, 0.27900028
831, 1221857083, -0.6849424839019775, -78.31195831298828, 167.12831115722656, -0.8566152, 0.22651273, 0.2012558
832, 1221873750, -0.12561072409152985, -78.08036804199219, 166.80911254882812, -0.904584, 0.33046848, 0.004384041
833, 1221890417, 0.3839505910873413, -77.81619262695312, 166.43624877929688, -0.8631542, 0.44417793, 0.1599369
834, 1221907084, 0.8647112250328064, -77.44496154785156, 165.96539306640625, -0.76633024, 0.41321054, 0.34953785
835, 1221923751, 1.3842884302139282, -76.98860931396484, 165.41116333007812, -0.5610838, 0.24528393, 0.36853218
836, 1221940418, 2.0140576362609863, -76.4990463256836, 164.74325561523438, -0.30267718, 0.022621524, 0.33105373
837, 1221957085, 2.729436159133911, -75.97663116455078, 163.9566192626953, -0.3503812, -0.027317641, 0.449543
838, 1221973752, 3.4020960330963135, -75.4150161743164, 163.15060424804688, -0.64354473, 0.24404016, 0.2638502
839, 1221990419, 3.9785068035125732, -74.8567886352539, 162.4232635498047, -0.7799441, 0.43619365, -0.13511944
840, 1222007086, 4.488948345184326, -74.34563446044922, 161.77239990234375, -0.7299965, 0.52828854, -0.19897842
841, 1222023753, 5.031695365905762, -73.83036041259766, 161.1099090576172, -0.26851836, 0.40292206, 0.030653
842, 1222040420, 5.680256366729736, -73.23211669921875, 160.3438720703125, 0.12694782, 0.13093461, 0.38245964
843, 1222057087, 6.389576435089111, -72.48033142089844, 159.50204467773438, 0.26288655, 0.162556, 0.6498451
844, 1222073754, 7.0648674964904785, -71.64225769042969, 158.677001953125, 0.40948996, 0.17328362, 0.47962666
845, 1222090421, 7.701370716094971, -70.76740264892578, 157.94979858398438, 0.53681237, 0.055626005, 0.25243187
846, 1222107088, 8.29489803314209, -69.84159851074219, 157.35997009277344, 0.9013732, -0.14386445, 0.2345047
847, 1222123755, 8.929701805114746, -68.8728256225586, 156.81015014648438, 1.360971, -0.02901444, 0.5581274
848, 1222140422, 9.542704582214355, -67.87725830078125, 156.38587951660156, 1.0722309, 0.6659278, 0.5526619
849, 1222157089, 9.978534698486328, -66.78770446777344, 156.2607879638672, 0.5244606, 1.1758687, 0.2114315
850, 1222173756, 10.388947486877441, -65.69808197021484, 156.25430297851562, 0.43392342, 1.1202525, -0.47733212
851, 1222190423, 10.929708480834961, -64.66779327392578, 156.22207641601562, 0.080555305, 0.5945573, -0.9469757
852, 1222207090, 11.564156532287598, -63.64640808105469, 156.20753479003906, -0.27923113, 0.40981117, -0.8210573
853, 1222223757, 12.283729553222656, -62.53609848022461, 156.22512817382812, -0.35803154, 0.17970061, -0.31070518
854, 1222240424, 13.151386260986328, -61.39278793334961, 156.21299743652344, -0.15295269, -0.15685089, 0.24750805
855, 1222257091, 13.959878921508789, -60.18099594116211, 156.18814086914062, 0.34369, -0.40438798, 0.19357395
856, 1222273758, 14.651201248168945, -58.88349151611328, 156.2133331298828, 0.35391438, -0.46290746, -0.20887566
857, 1222290425, 15.303811073303223, -57.548946380615234, 156.2447509765625, 0.6195725, -0.5339796, -0.7373018
858, 1222307092, 15.82544231414795, -56.233917236328125, 156.34793090820312, 0.10874187, -0.7496516, -1.0756378
859, 1222323759, 16.132831573486328, -54.85173416137695, 156.5615234375, 0.27042758, -1.1272905, -0.9154873
860, 1222340426, 16.239355087280273, -53.41175842285156, 156.8581085205078, -0.3461305, -1.6662112, -0.91250134
861, 1222357093, 16.255266189575195, -51.96249008178711, 157.1125030517578, -0.26894838, -1.8126764, -0.7620144
862, 1222373760, 16.18894386291504, -50.47264099121094, 157.21498107910156, 0.1884685, -1.404264, -0.86408997
863, 1222390427, 16.03706169128418, -48.92264938354492, 157.09657287597656, 0.50141484, -0.62961197, -0.91024685
864, 1222407094, 15.944470405578613, -47.35145950317383, 156.7865753173828, -0.023892082, -0.4268943, -0.9905958
865, 1222423761, 15.913654327392578, -45.808746337890625, 156.4663543701172, -0.22125843, -0.8872411, -0.763237
866, 1222440428, 15.712126731872559, -44.262107849121094, 156.22418212890625, 0.14489727, -0.63559645, -0.40952492
867, 1222457095, 15.201327323913574, -42.741573333740234, 156.07418823242188, 0.51885676, 0.035228994, -0.2056799
868, 1222473762, 14.556106567382812, -41.207618713378906, 156.018310546875, 0.12193206, 0.8325164, -1.0324707
869, 1222490429, 13.96429443359375, -39.611717224121094, 156.04246520996094, 0.54051757, 0.89890563, -0.99627876
870, 1222507096, 13.631364822387695, -37.99124526977539, 156.0915069580078, 0.4596687, 0.96830326, -0.81566715
871, 1222523763, 13.56228256225586, -36.39806365966797, 156.1610107421875, 0.28521594, 0.9719662, -0.6360817
872, 1222540430, 13.534245491027832, -34.864356994628906, 156.28369140625, 0.09356766, 1.1086787, -0.34935188
873, 1222557097, 13.653922080993652, -33.323978424072266, 156.49302673339844, 0.023959067, 0.6401259, 0.17512798
874, 1222573764, 14.012810707092285, -31.813060760498047, 156.6857452392578, 0.2185107, 0.025074465, 0.53920937
875, 1222590431, 14.476956367492676, -30.378665924072266, 156.77435302734375, 0.15192528, -0.21342593, 0.40243626
876, 1222607098, 15.003636360168457, -29.00569725036621, 156.79769897460938, -0.5057728, -0.27629474, -0.68116474
877, 1222623765, 15.459518432617188, -27.671865463256836, 156.81463623046875, 0.37077332, -0.32061937, 0.5136328
878, 1222640432, 15.72669506072998, -26.361108779907227, 156.85015869140625, 0.35728395, -0.28955492, 1.3165607
879, 1222657099, 15.886115074157715, -25.127042770385742, 156.93763732910156, -0.48054105, -0.16025943, 0.7965393
880, 1222673766, 15.948863983154297, -24.012521743774414, 157.07113647460938, -1.007537, -0.14993486, 0.21876717
881, 1222690433, 15.789966583251953, -23.0085506439209, 157.23031616210938, -0.48148596, -0.54653406, 0.9883394
882, 1222707100, 15.340757369995117, -22.09088134765625, 157.3910369873047, -0.32821542, -0.72932845, 0.8876476
883, 1222723767, 14.764299392700195, -21.21784782409668, 157.5360107421875, -0.3652519, -0.5949643, 1.0476942
884, 1222740434, 14.186539649963379, -20.37820053100586, 157.66383361816406, -0.26941368, -0.13426468, 1.3159075
885, 1222757101, 13.637534141540527, -19.628816604614258, 157.77830505371094, -0.37514257, 0.27869213, 0.7091961
886, 1222773768, 13.17705249786377, -18.984739303588867, 157.85745239257812, 0.12585287, 0.6815378, 0.8429651
887, 1222790435, 12.874761581420898, -18.45252799987793, 157.90943908691406, 0.42136198, 0.55301553, 0.9280243
888, 1222807102, 12.797586441040039, -18.01812171936035, 157.96717834472656, 0.32185155, 0.6739282, 0.62902164
889, 1222823769, 12.796379089355469, -17.61224365234375, 158.0059356689453, 0.45107523, 1.0751531, 0.8192835
890, 1222840436, 12.943527221679688, -17.298675537109375, 158.0283660888672, 0.59472173, 0.5436461, 1.0685654
891, 1222857103, 13.185338020324707, -17.093515396118164, 158.0702362060547, 0.27101213, 0.24295212, 0.8885298
892, 1222873770, 13.419454574584961, -16.944599151611328, 158.13075256347656, -0.05622463, 0.25590795, 1.1414576
893, 1222890437, 13.612956047058105, -16.88355827331543, 158.16317749023438, -0.23708053, 0.02118942, 1.3202477
894, 1222907104, 13.795697212219238, -16.94474983215332, 158.1627655029297, -0.3981611, -0.034109082, 1.1237345
895, 1222923771, 13.901562690734863, -17.083799362182617, 158.1566925048828, -0.3378353, 0.36089534, 1.143424
896, 1222940438, 13.91884708404541, -17.285511016845703, 158.1515350341797, -0.15016733, 0.2714932, 1.1665516
897, 1222957105, 13.904231071472168, -17.60495948791504, 158.175537109375, 0.016577397, -0.14157699, 1.1119041
898, 1222973772, 13.79433822631836, -18.030866622924805, 158.22496032714844, 0.12853214, -0.14419332, 1.2923527
899, 1222990439, 13.650424003601074, -18.576353073120117, 158.2594757080078, -0.05515949, -0.27122334, 1.1813364
900, 1223007106, 13.494169235229492, -19.238914489746094, 158.2556610107422, -0.26178798, -0.5684756, 1.1513634
901, 1223023773, 13.238603591918945, -20.012197494506836, 158.16815185546875, -0.15469688, -0.230478, 1.0970163
902, 1223040440, 12.796463012695312, -20.847522735595703, 158.00340270996094, 0.18733029, -0.050246578, 1.602274
903, 1223057107, 12.325129508972168, -21.775630950927734, 157.837646484375, 0.36711034, -0.33439058, 1.4236622
904, 1223073774, 11.959235191345215, -22.82731056213379, 157.68142700195312, 0.35505217, 0.09207357, 0.84763336
905, 1223090441, 11.730462074279785, -23.986997604370117, 157.48492431640625, 0.41750628, 0.5638667, 0.5405054
906, 1223107108, 11.684329986572266, -25.22228240966797, 157.27520751953125, 0.7587373, 0.50718987, 0.6342821
907, 1223123775, 11.805657386779785, -26.50312042236328, 157.0967254638672, 0.768375, 0.378238, 0.4825058
908, 1223140442, 12.088614463806152, -27.869489669799805, 156.95123291015625, 0.67777574, 0.5487302, 0.3367548
909, 1223157109, 12.556626319885254, -29.3411808013916, 156.83314514160156, 0.65847814, 0.8025769, 0.3938589
910, 1223173776, 13.187807083129883, -30.890453338623047, 156.74668884277344, 0.46704054, 0.94163257, 0.12286377
911, 1223190443, 13.923165321350098, -32.506935119628906, 156.69143676757812, 0.29216906, 0.8643594, 0.1089077
912, 1223207110, 14.696361541748047, -34.195228576660156, 156.7061767578125, -0.10044968, 0.5049038, 0.21371174
913, 1223223777, 15.445138931274414, -35.944698333740234, 156.82177734375, -0.62546575, 0.06514492, 0.050691605
914, 1223240444, 16.06138038635254, -37.7601432800293, 157.01441955566406, -0.78395444, -0.2488549, 0.14383316
915, 1223257111, 16.499197006225586, -39.597591400146484, 157.2784423828125, -1.018161, -0.60650617, 0.07999325
916, 1223273778, 16.74462127685547, -41.4385871887207, 157.59689331054688, -0.9119364, -0.69557935, 0.1067791
917, 1223290445, 16.77996063232422, -43.286781311035156, 157.93809509277344, -0.71296173, -0.7054955, -0.0041971207
918, 1223307112, 16.607290267944336, -45.174278259277344, 158.2611846923828, -0.73461324, -0.8229403, -0.31419182
919, 1223323779, 16.30992889404297, -47.1100959777832, 158.53346252441406, -0.8692948, -0.9962862, -0.5387783
920, 1223340446, 15.878376960754395, -49.106056213378906, 158.74232482910156, -1.0256917, -1.0301205, -0.7611313
921, 1223357113, 15.336569786071777, -51.13346481323242, 158.90562438964844, -0.923273, -0.7630071, -0.8424616
922, 1223373780, 14.765411376953125, -53.16587448120117, 159.02304077148438, -0.9095713, -0.5566264, -0.9930916
923, 1223390447, 14.168802261352539, -55.193817138671875, 159.10536193847656, -0.7609285, -0.57448655, -0.87350273
924, 1223407114, 13.540287971496582, -57.23412322998047, 159.15138244628906, -0.71449214, -0.5368242, -0.8358145
925, 1223423781, 12.7962064743042, -59.27590560913086, 159.21852111816406, -0.56551296, -0.5013199, -0.8418875
926, 1223440448, 11.839371681213379, -61.291297912597656, 159.36839294433594, -0.66510004, -0.5790019, -1.0812178
927, 1223457115, 10.61317253112793, -63.24443817138672, 159.60707092285156, -0.54693264, -0.39955804, -1.1743145
928, 1223473782, 9.216649055480957, -65.2385482788086, 159.86416625976562, 0.0017566215, -0.4202075, -1.1968412
929, 1223490449, 7.737462043762207, -67.19842529296875, 160.18731689453125, 0.15301982, -0.28983048, -1.2890139
930, 1223507116, 6.2087626457214355, -69.02755737304688, 160.61941528320312, -0.028884549, -0.02207386, -1.334404
931, 1223523783, 4.621995449066162, -70.72992706298828, 161.10704040527344, -0.049723014, 0.32180873, -1.0789309
932, 1223540450, 2.9794809818267822, -72.39833068847656, 161.6584014892578, 0.44003, 0.6653721, -0.95684433
933, 1223557117, 1.4148142337799072, -74.11537170410156, 162.30120849609375, 0.93627733, 0.8316751, -0.88736343
934, 1223573784, -0.15855316817760468, -75.77496337890625, 163.17843627929688, 1.2919812, 1.18942, -0.60872936
935, 1223590451, -1.8779994249343872, -77.16788482666016, 164.4054412841797, 1.4473817, 1.8201816, 0.024108887
936, 1223607118, -3.5833780765533447, -78.34857177734375, 165.94363403320312, 1.686035, 2.0114646, 0.38374233
937, 1223623785, -5.159572601318359, -79.40316009521484, 167.67648315429688, 1.920939, 1.9104828, 0.6373453
938, 1223640452, -6.634974479675293, -80.31783294677734, 169.6092987060547, 2.012845, 1.5000426, 0.6564083
939, 1223657119, -8.020590782165527, -81.0621109008789, 171.73011779785156, 1.9024916, 1.0492163, 0.8336086
940, 1223673786, -9.502923011779785, -81.70545196533203, 174.19967651367188, 1.2870793, 1.0189298, 0.9985838
941, 1223690453, -10.999619483947754, -82.23593139648438, 176.82699584960938, 0.6187186, 0.8989708, 1.1381159
942, 1223707120, -11.94478988647461, -82.60944366455078, 178.95408630371094, -0.24148074, 0.49616525, 1.099638
943, 1223723787, -11.744451522827148, -82.82179260253906, 179.89892578125, -1.0103483, 0.21867093, 0.7620821
944, 1223740454, -10.696842193603516, -82.93470001220703, 179.94952392578125, -1.3664571, 0.08806841, 0.24388123
945, 1223757121, -9.963848114013672, -83.08599090576172, -179.77163696289062, -1.4863131, -0.24917202, -0.1785183
946, 1223773788, -10.25277328491211, -83.32952880859375, -178.68011474609375, -1.6063377, -0.796611, -0.2520914
947, 1223790455, -11.366133689880371, -83.55445861816406, -177.0699462890625, -1.590029, -1.1744332, -0.11289692
948, 1223807122, -13.0551176071167, -83.72761535644531, -175.20175170898438, -1.2404447, -1.1887858, -0.28919125
949, 1223823789, -15.309252738952637, -83.88265991210938, -173.1247100830078, -0.88428414, -0.96440285, -0.33595276
950, 1223840456, -17.12097930908203, -83.9219741821289, -171.78497314453125, -0.92669016, -0.57633215, 0.1561451
951, 1223857123, -18.527456283569336, -83.81990814208984, -170.93392944335938, -0.65106356, -0.340632, 0.74011517
952, 1223873790, -21.29776954650879, -83.73196411132812, -168.69993591308594, 0.003476353, -0.25044224, 1.5882454
953, 1223890457, -22.886680603027344, -83.45012664794922, -167.48565673828125, -0.7229255, 0.6487154, 1.6191082
954, 1223907124, -20.137920379638672, -83.22115325927734, -170.72903442382812, 0.40082154, 2.1209757, -1.0988874
955, 1223923791, -17.697471618652344, -83.57999420166016, -173.9175262451172, 1.5661907, 1.4271295, -2.1558814
956, 1223940458, -18.422977447509766, -84.1495132446289, -173.6319580078125, 0.56501704, 0.09330579, -0.333642
957, 1223957125, -21.133501052856445, -84.27820587158203, -171.0964813232422, -1.3368284, -0.2754914, 1.8443432
958, 1223973792, -22.487001419067383, -83.9483871459961, -169.8281707763672, -1.7026134, 0.0192638, 1.8903446
959, 1223990459, -21.856264114379883, -83.51448059082031, -170.43861389160156, -1.2131914, 0.33512077, 0.7692652
960, 1224007126, -20.04292106628418, -83.1445083618164, -172.13623046875, -0.5856193, 0.60197055, -0.218606
961, 1224023793, -17.955801010131836, -82.95519256591797, -174.04920959472656, 0.10531334, 0.9574116, -0.5803194
962, 1224040460, -16.089757919311523, -82.99520874023438, -175.6719207763672, 0.33051565, 1.2434071, -0.16308498
963, 1224057127, -14.519319534301758, -83.10516357421875, -176.98374938964844, 0.11529808, 1.1933093, 0.3618269
964, 1224073794, -13.435303688049316, -83.127197265625, -177.82476806640625, -0.3442589, 0.8733544, 0.49006557
965, 1224090461, -12.50401782989502, -82.98429107666016, -178.51992797851562, -0.7338478, 0.28899816, 0.37036228
966, 1224107128, -11.257946014404297, -82.72648620605469, -179.582763671875, -1.0849626, -0.2438077, 0.22203255
967, 1224123795, -9.585745811462402, -82.41946411132812, 178.80104064941406, -1.1806705, -0.53271383, 0.37337112
968, 1224140462, -7.6703667640686035, -82.04364776611328, 176.74856567382812, -1.0844488, -0.5323276, 0.4337921
969, 1224157129, -5.8303985595703125, -81.57489776611328, 174.55300903320312, -0.6925243, -0.5086427, 0.30380917
970, 1224173796, -4.2605156898498535, -81.03445434570312, 172.44700622558594, -0.2767739, -0.46908417, 0.307477
971, 1224190463, -3.02921199798584, -80.46211242675781, 170.555419921875, -0.033906873, -0.34730357, 0.3349638
972, 1224207130, -2.084470272064209, -79.86742401123047, 168.8987579345703, -0.18220297, -0.27329996, 0.30044365
973, 1224223797, -1.1318778991699219, -79.17036437988281, 167.2576446533203, -0.4916821, -0.088702455, 0.23458576
974, 1224240464, -0.030045852065086365, -78.3799057006836, 165.5198211669922, -0.45513132, 0.26727527, 0.052122116
975, 1224257131, 0.9703764915466309, -77.52088165283203, 163.91062927246094, 0.26961163, 0.5745794, 0.05322647
976, 1224273798, 1.7979989051818848, -76.56614685058594, 162.4955291748047, 0.8632423, 0.8741565, 0.5654602
977, 1224290465, 2.5910449028015137, -75.47984313964844, 161.21514892578125, 0.8313123, 1.1184359, 0.9193373
978, 1224307132, 3.4130072593688965, -74.33047485351562, 160.15576171875, 0.40941256, 1.3955448, 0.85857296
979, 1224323799, 4.134800910949707, -73.08455657958984, 159.46470642089844, 0.15269732, 1.6333361, 0.46938038
980, 1224340466, 4.609358787536621, -71.67355346679688, 159.24984741210938, 0.7509199, 1.8600315, 0.07303333
981, 1224357133, 4.907711505889893, -70.12051391601562, 159.40261840820312, 1.6813527, 1.9192644, 0.20729733
982, 1224373800, 5.148147106170654, -68.50701904296875, 159.75735473632812, 1.9975268, 1.7290611, 0.3014946
983, 1224390467, 5.546061992645264, -66.91121673583984, 160.30361938476562, 1.0704076, 0.6904358, 0.0996294
984, 1224407134, 6.668830394744873, -65.48970031738281, 160.72523498535156, -0.13525756, -0.6659437, -0.7659807
985, 1224423801, 8.64171314239502, -64.28534698486328, 160.71188354492188, -0.91244376, -1.1173737, -1.3018999
986, 1224440468, 11.128036499023438, -63.18838119506836, 160.22300720214844, -0.58444846, -1.3222412, -1.5093966
987, 1224457135, 13.43459701538086, -62.147708892822266, 159.47332763671875, 0.2730015, -1.2436919, -1.0305128
988, 1224473802, 15.143197059631348, -61.0575065612793, 158.7129364013672, 0.51528573, -1.2153544, -0.28436184
989, 1224490469, 16.473791122436523, -59.810157775878906, 158.06704711914062, -0.4240309, -1.9876859, 0.24630642
990, 1224507136, 17.480743408203125, -58.455196380615234, 157.4759521484375, -0.50376624, -2.29271, -0.13674927
991, 1224523803, 17.743131637573242, -56.94078063964844, 157.08108520507812, 0.4178002, -1.6867095, -0.5426903
992, 1224540470, 17.159122467041016, -55.350868225097656, 157.05865478515625, 1.5797257, -0.65023303, -0.7898779
993, 1224557137, 16.160533905029297, -53.64817810058594, 157.40432739257812, 0.71215653, 0.20595104, -1.6805315
994, 1224573804, 15.176280975341797, -51.85655212402344, 157.93170166015625, 0.78439564, -0.31053978, -1.7239027
995, 1224590471, 14.619613647460938, -50.107421875, 158.4844970703125, 0.42805538, -1.289297, -1.5292377
996, 1224607138, 14.421990394592285, -48.52508544921875, 158.8831329345703, -0.006247096, -1.5328351, -1.1020927
997, 1224623805, 14.199396133422852, -47.125244140625, 158.96131896972656, -0.122851804, -0.7119155, -1.0281181
998, 1224640472, 13.88460636138916, -45.8055305480957, 158.6728515625, 0.23587137, 0.5781916, -0.91988754
999, 1224657139, 13.647148132324219, -44.3448600769043, 158.21755981445312, 0.6114951, 1.4452024, -0.38017368
1000, 1224673806, 13.440614700317383, -42.749942779541016, 157.79986572265625, 0.60490984, 1.5684742, 0.31232738
1001, 1224690473, 13.553893089294434, -41.12665939331055, 157.5353240966797, -0.7401371, 0.24676266, 0.6307697
1002, 1224707140, 13.86601734161377, -39.65865707397461, 157.416259765625, -1.2102288, -0.61412555, 0.36160183
1003, 1224723807, 13.938858032226562, -38.3277587890625, 157.4154052734375, -1.0655432, 0.108897716, -0.6999092
1004, 1224740474, 13.849861145019531, -37.03216552734375, 157.49383544921875, 0.034947712, 0.57644045, -0.5531626
1005, 1224757141, 13.97099494934082, -35.733970642089844, 157.57997131347656, 0.66981685, 0.7149737, 0.11554241
1006, 1224773808, 14.520706176757812, -34.4185676574707, 157.6800537109375, 0.19989926, 1.005959, 0.2896309
1007, 1224790475, 15.230746269226074, -33.07654571533203, 157.7284698486328, -0.5702333, 0.61857617, 0.014063835
1008, 1224807142, 15.83690071105957, -31.80902099609375, 157.6407928466797, -0.9555095, -0.20112582, -0.11185551
1009, 1224823809, 16.09990692138672, -30.609619140625, 157.40914916992188, -0.1235473, -0.8007345, 0.9409418
1010, 1224840476, 16.2025203704834, -29.48217010498047, 157.12109375, 0.25367555, -1.163542, 1.2232981
1011, 1224857143, 16.19866180419922, -28.41744041442871, 156.91981506347656, 0.056737423, -0.53110754, 0.7242212
1012, 1224873810, 16.098953247070312, -27.376676559448242, 156.83705139160156, -0.3035088, 0.53927404, -0.37077236
1013, 1224890477, 15.851967811584473, -26.380395889282227, 156.8291473388672, 0.18384092, 1.08147, 0.07545757
1014, 1224907144, 15.409805297851562, -25.388626098632812, 156.85400390625, 0.12791829, 1.1828898, 0.58944607
1015, 1224923811, 14.973140716552734, -24.463123321533203, 156.95523071289062, -0.0860047, 1.0317817, 1.2784147
1016, 1224940478, 14.602616310119629, -23.675487518310547, 157.13912963867188, -0.69549763, 1.0474122, 0.9447088
1017, 1224957145, 14.153365135192871, -22.973878860473633, 157.365966796875, -1.0732015, 0.87590814, 0.42686558
1018, 1224973812, 13.67281723022461, -22.301435470581055, 157.64468383789062, -0.62555516, 0.4699152, 0.6995878
1019, 1224990479, 13.25261116027832, -21.620223999023438, 157.96226501464844, -0.1188638, 0.34983963, 0.6330261
1020, 1225007146, 12.974574089050293, -20.97000503540039, 158.2404327392578, 0.29205656, 0.36541727, 0.44167995
1021, 1225023813, 12.944663047790527, -20.4123592376709, 158.42591857910156, 0.76567346, 0.4594967, 0.77268887
1022, 1225040480, 13.180817604064941, -19.960203170776367, 158.53550720214844, 0.86080176, 0.39893287, 0.7615566
1023, 1225057147, 13.561938285827637, -19.564437866210938, 158.59230041503906, 0.43224767, 0.16176692, 0.23939991
1024, 1225073814, 13.907293319702148, -19.2269344329834, 158.59165954589844, 0.10874238, -0.2732747, 0.54661274
1025, 1225090481, 14.109289169311523, -18.939268112182617, 158.55616760253906, -0.07280967, -0.66490704, 0.8927765
1026, 1225107148, 14.209403991699219, -18.712026596069336, 158.537109375, -0.089111194, -0.79887265, 1.0544853
1027, 1225123815, 14.298707962036133, -18.567455291748047, 158.58755493164062, 0.2512132, -0.5716726, 1.451747
1028, 1225140482, 14.335661888122559, -18.55058479309082, 158.6688690185547, 0.20133127, -0.38071334, 0.94637966
1029, 1225157149, 14.301947593688965, -18.62890625, 158.7105712890625, 0.2546429, -0.14232132, 1.0290537
1030, 1225173816, 14.220075607299805, -18.77904510498047, 158.69183349609375, 0.44078156, 0.0035331252, 1.0132465
1031, 1225190483, 14.157529830932617, -19.047853469848633, 158.62611389160156, 0.6760491, 0.14837047, 1.239788
1032, 1225207150, 14.130118370056152, -19.454349517822266, 158.56231689453125, 0.52005875, 0.22244757, 1.151022
1033, 1225223817, 14.132580757141113, -19.970815658569336, 158.55264282226562, 0.25634852, 0.34315774, 1.3810282
1034, 1225240484, 14.192484855651855, -20.593420028686523, 158.5952911376953, -0.03459422, 0.15574056, 1.3144789
1035, 1225257151, 14.259023666381836, -21.33588981628418, 158.66094970703125, -0.06739103, -0.3668144, 1.5464725
1036, 1225273818, 14.259538650512695, -22.218276977539062, 158.68931579589844, -0.08285375, -0.6540694, 1.3785563
1037, 1225290485, 14.121962547302246, -23.216171264648438, 158.66281127929688, -0.039232697, -0.24521475, 1.1683369
1038, 1225307152, 13.803510665893555, -24.256330490112305, 158.5701141357422, 0.19219117, 0.44375014, 0.92962265
1039, 1225323819, 13.457011222839355, -25.338010787963867, 158.42784118652344, 0.24120139, 0.6103444, 0.3537073
1040, 1225340486, 13.146702766418457, -26.493593215942383, 158.2901611328125, 0.5601882, 0.32769853, 0.40691853
1041, 1225357153, 12.853936195373535, -27.73879623413086, 158.21067810058594, 0.6572434, 0.19840667, 0.42737293
1042, 1225373820, 12.669289588928223, -29.051929473876953, 158.20323181152344, 0.6381858, 0.2678146, 0.44484138
1043, 1225390487, 12.75180435180664, -30.436811447143555, 158.23370361328125, 0.6187845, 0.5353284, 0.33541393
1044, 1225407154, 13.153461456298828, -31.909988403320312, 158.23728942871094, 0.70314044, 0.87161595, 0.32322788
1045, 1225423821, 13.905733108520508, -33.473731994628906, 158.12713623046875, 0.70748156, 1.0813167, 0.3578329
1046, 1225440488, 15.067547798156738, -35.1162109375, 157.8753662109375, 0.45634085, 0.8980882, 0.42789555
1047, 1225457155, 16.49819564819336, -36.813079833984375, 157.52163696289062, -0.091819, 0.42417732, 0.11244106
1048, 1225473822, 17.95304298400879, -38.5726318359375, 157.1519775390625, -0.34556073, -0.23249382, 0.032409668
1049, 1225490489, 19.260597229003906, -40.39359664916992, 156.86883544921875, -0.5576164, -0.9152346, 0.0634222
1050, 1225507156, 20.313552856445312, -42.324886322021484, 156.742919921875, -0.92210305, -1.5317986, 0.09994507
1051, 1225523823, 20.965604782104492, -44.35773468017578, 156.7594451904297, -1.4983093, -1.6955143, 0.119184494
1052, 1225540490, 21.112119674682617, -46.458343505859375, 156.87440490722656, -1.790493, -1.6637895, 0.33209896
1053, 1225557157, 20.715667724609375, -48.56901931762695, 157.04380798339844, -1.7071416, -1.4570262, 0.3445816
1054, 1225573824, 19.875288009643555, -50.642608642578125, 157.19827270507812, -1.4129226, -1.2313876, -0.029726028
1055, 1225590491, 18.720703125, -52.67269515991211, 157.27392578125, -1.2068069, -0.9686259, -0.6970749
1056, 1225607158, 17.456205368041992, -54.67487335205078, 157.26852416992188, -1.2008592, -0.7520387, -1.217248
