sep=,
DeviceTag:,femurLeft,,,,,,,,,,,,,,,,,
FirmwareVersion:,1.6.0,,,,,,,,,,,,,,,,,
AppVersion:,1.1,,,,,,,,,,,,,,,,,
SyncStatus:,Synced,,,,,,,,,,,,,,,,,
OutputRate:,60Hz,,,,,,,,,,,,,,,,,
FilterProfile:,General,,,,,,,,,,,,,,,,,
Measurement Mode:,Sensor fusion Mode - Complete (Euler),,,,,,,,,,,,,,,,,
StartTime:,2021-03-10 17:02:37.919 +0800,,,,,,,,,,,,,,,,,
© Xsens Technologies B. V. 2005-2021,,,,,,,,,,,,,,,,,,,

PacketCounter,SampleTimeFine,Euler_X,Euler_Y,Euler_Z,FreeAcc_X,FreeAcc_Y,FreeAcc_Z
1, 2343592535, -143.06069946289062, -79.65719604492188, -60.207340240478516, 0.022927288, -0.008366481, 0.17833233
2, 2343609202, -143.04823303222656, -79.65664672851562, -60.215309143066406, 0.08025731, -0.02144372, 0.19215679
3, 2343625869, -143.05628967285156, -79.65470886230469, -60.20476531982422, 0.068723164, -0.051891606, 0.16813087
4, 2343642536, -143.08518981933594, -79.64942169189453, -60.182594299316406, 0.014695628, -0.0681838, 0.12450886
5, 2343659203, -143.11517333984375, -79.64049530029297, -60.16570281982422, -0.009531836, -0.039453503, 0.13758373
6, 2343675870, -143.1432342529297, -79.63174438476562, -60.1519660949707, -0.004831987, -4.4775233E-4, 0.18147278
7, 2343692537, -143.17495727539062, -79.62265014648438, -60.136566162109375, 0.0069253533, 0.017419035, 0.18726254
8, 2343709204, -143.20896911621094, -79.6134262084961, -60.11467361450195, -5.9235125E-4, 9.590941E-4, 0.18988991
9, 2343725871, -143.2557830810547, -79.60572052001953, -60.0849494934082, -0.006275755, 0.011052827, 0.21499252
10, 2343742538, -143.30894470214844, -79.60169219970703, -60.05467224121094, -0.022917034, 0.00545936, 0.17711353
11, 2343759205, -143.36631774902344, -79.5960693359375, -60.01979446411133, -0.034015402, 0.034901604, 0.16252518
12, 2343775872, -143.41322326660156, -79.59266662597656, -59.989280700683594, -0.04723949, 0.07890667, 0.16544247
13, 2343792539, -143.4449920654297, -79.59194946289062, -59.964210510253906, -0.072531685, 0.05173392, 0.19563293
14, 2343809206, -143.464599609375, -79.59439086914062, -59.943946838378906, -0.06361232, -1.2432908E-4, 0.18643475
15, 2343825873, -143.47625732421875, -79.59883117675781, -59.935359954833984, -0.060443252, -0.006703489, 0.17926598
16, 2343842540, -143.4783935546875, -79.604736328125, -59.937889099121094, -0.0489238, 0.01844507, 0.17030334
17, 2343859207, -143.4662628173828, -79.61038970947266, -59.942596435546875, -0.022364818, 0.058601297, 0.18059921
18, 2343875874, -143.43014526367188, -79.61441040039062, -59.94716262817383, -0.009376508, 0.049113564, 0.1859951
19, 2343892541, -143.38514709472656, -79.61800384521484, -59.948333740234375, -0.028543806, 7.818483E-4, 0.17658901
20, 2343909208, -143.33810424804688, -79.62166595458984, -59.95029067993164, -0.023591653, -0.029717555, 0.1599083
21, 2343925875, -143.29261779785156, -79.62693786621094, -59.95587158203125, -0.0026216393, -0.07055745, 0.1483345
22, 2343942542, -143.24798583984375, -79.6292724609375, -59.97209548950195, -0.0054727006, -0.05460645, 0.16402149
23, 2343959209, -143.20361328125, -79.63001251220703, -59.99619674682617, 0.003561288, -0.053272694, 0.17976761
24, 2343975876, -143.17018127441406, -79.62840270996094, -60.02165985107422, 0.014648159, -0.057510555, 0.18708229
25, 2343992543, -143.14158630371094, -79.62608337402344, -60.04916000366211, 0.014291908, -0.010566854, 0.18817234
26, 2344009210, -143.1185302734375, -79.6250228881836, -60.06201934814453, 0.024450222, 0.03241787, 0.14678478
27, 2344025877, -143.1038360595703, -79.6196060180664, -60.050968170166016, 0.01316096, 0.043917112, 0.15445423
28, 2344042544, -143.08499145507812, -79.61463928222656, -60.04451370239258, -0.042831227, -0.016913058, 0.1648798
29, 2344059211, -143.05364990234375, -79.6114730834961, -60.06406784057617, -0.08649416, -0.042101346, 0.20631981
30, 2344075878, -143.01397705078125, -79.6106948852539, -60.10857009887695, -0.058261182, -0.044969186, 0.18583679
31, 2344092545, -142.9755859375, -79.61032104492188, -60.16585159301758, -0.01291036, -0.0018506873, 0.17928314
32, 2344109212, -142.9271240234375, -79.61092376708984, -60.22794723510742, -0.029609166, 0.058009155, 0.1418066
33, 2344125879, -142.8695068359375, -79.61124420166016, -60.2845344543457, -0.018127069, 0.041366324, 0.1535263
34, 2344142546, -142.7949981689453, -79.61175537109375, -60.35276794433594, -0.040896304, 0.011308415, 0.18826103
35, 2344159213, -142.72018432617188, -79.61270904541016, -60.42594528198242, -0.049612205, -0.029994154, 0.17590618
36, 2344175880, -142.632568359375, -79.61514282226562, -60.51639938354492, -0.02948337, -0.05628218, 0.16869926
37, 2344192547, -142.5520782470703, -79.61558532714844, -60.60340881347656, -0.008140342, -0.024995733, 0.15956116
38, 2344209214, -142.4749755859375, -79.61518859863281, -60.68791961669922, -9.6353644E-4, 0.0045057978, 0.18571854
39, 2344225881, -142.392333984375, -79.61180114746094, -60.7657356262207, 0.031499248, 0.021343755, 0.18764877
40, 2344242548, -142.3074951171875, -79.60749816894531, -60.84177017211914, 0.052202288, 0.007072453, 0.19060326
41, 2344259215, -142.2528076171875, -79.60066223144531, -60.893951416015625, 0.030779593, -0.021656394, 0.1550827
42, 2344275882, -142.21673583984375, -79.59306335449219, -60.93832015991211, -0.007659775, -0.0498934, 0.13964367
43, 2344292549, -142.1894989013672, -79.58396911621094, -60.98954772949219, -0.022262253, -0.043730423, 0.16529274
44, 2344309216, -142.15084838867188, -79.574951171875, -61.058929443359375, -0.01608131, -7.7357836E-4, 0.21334553
45, 2344325883, -142.1175537109375, -79.5672836303711, -61.12312316894531, 0.0031742193, 0.053840358, 0.20142174
46, 2344342550, -142.11029052734375, -79.56161499023438, -61.15399169921875, 0.020154694, 0.073872656, 0.16335869
47, 2344359217, -142.08619689941406, -79.55659484863281, -61.19138717651367, 0.023730231, 0.059103474, 0.14822769
48, 2344375884, -142.0657501220703, -79.55119323730469, -61.2291374206543, -0.004523427, 0.019640362, 0.17560863
49, 2344392551, -142.0652313232422, -79.54705810546875, -61.248104095458984, -0.0066326633, 0.03405499, 0.20642376
50, 2344409218, -142.0771484375, -79.54549407958984, -61.25066375732422, 0.0063249976, 0.055351865, 0.18016815
51, 2344425885, -142.08387756347656, -79.54537200927734, -61.244449615478516, 0.041821312, 0.09999193, 0.17685413
52, 2344442552, -142.09994506835938, -79.54464721679688, -61.21174621582031, 0.05842049, 0.08851091, 0.16395855
53, 2344459219, -142.11691284179688, -79.54267120361328, -61.165164947509766, 0.019519052, 0.051101096, 0.16550732
54, 2344475886, -142.14051818847656, -79.54177856445312, -61.10940170288086, -0.016391616, -0.02800377, 0.17967033
55, 2344492553, -142.174072265625, -79.54150390625, -61.0601692199707, -0.039065372, -0.009593902, 0.19777012
56, 2344509220, -142.2041015625, -79.54242706298828, -61.02620315551758, -0.03172304, 0.017819347, 0.14746761
57, 2344525887, -142.23963928222656, -79.54345703125, -60.98720932006836, -0.010475884, 0.055316944, 0.14680195
58, 2344542554, -142.26898193359375, -79.54351806640625, -60.94715118408203, -0.019322919, 0.006369393, 0.16561222
59, 2344559221, -142.3053741455078, -79.5458984375, -60.900814056396484, -0.049020246, -0.035695132, 0.20623207
60, 2344575888, -142.34725952148438, -79.55062866210938, -60.857566833496094, -0.032143496, -0.0145654455, 0.19629288
61, 2344592555, -142.39376831054688, -79.55665588378906, -60.812721252441406, 0.0153825665, 0.036517937, 0.15048122
62, 2344609222, -142.44021606445312, -79.5611801147461, -60.7615966796875, -0.0025964521, 0.066853784, 0.18026638
63, 2344625889, -142.4762725830078, -79.56602478027344, -60.71403884887695, -0.026102904, 0.05911476, 0.19680023
64, 2344642556, -142.52264404296875, -79.5741195678711, -60.659217834472656, -0.048158564, 0.015370595, 0.17225075
65, 2344659223, -142.57228088378906, -79.5824203491211, -60.60872268676758, -0.05985835, -0.02190019, 0.15523243
66, 2344675890, -142.61668395996094, -79.59060668945312, -60.57362747192383, -0.05137427, -0.0012271979, 0.17251682
67, 2344692557, -142.66415405273438, -79.60102844238281, -60.536170959472656, -0.03652572, 0.051179886, 0.16761875
68, 2344709224, -142.70494079589844, -79.61115264892578, -60.493045806884766, -0.015441742, 0.08117331, 0.1737585
69, 2344725891, -142.74334716796875, -79.62322235107422, -60.43705749511719, -0.01616823, 0.0420063, 0.1765995
70, 2344742558, -142.7760772705078, -79.6358413696289, -60.38799285888672, -0.048650153, -0.02030196, 0.1709156
71, 2344759225, -142.8025360107422, -79.64793395996094, -60.35664749145508, -0.056121897, -0.06357485, 0.19147015
72, 2344775892, -142.83169555664062, -79.6606216430664, -60.33259201049805, -0.033459723, -0.035952672, 0.20715523
73, 2344792559, -142.8484649658203, -79.67488098144531, -60.32804870605469, -0.007874766, 0.008916714, 0.19193459
74, 2344809226, -142.8766326904297, -79.68807983398438, -60.315975189208984, -0.0052571506, 0.0056756088, 0.11966324
75, 2344825893, -142.91207885742188, -79.69879913330078, -60.300235748291016, -0.018373715, -0.020342194, 0.12514019
76, 2344842560, -142.94229125976562, -79.70912170410156, -60.29029083251953, -0.012461811, -0.018953117, 0.1730957
77, 2344859227, -142.97262573242188, -79.71797943115234, -60.279136657714844, -0.024672087, -0.019758936, 0.21607494
78, 2344875894, -142.99191284179688, -79.72767639160156, -60.277103424072266, -0.025383249, 0.014528734, 0.19857693
79, 2344892561, -142.9991912841797, -79.73747253417969, -60.27824401855469, -0.028030746, 0.016063485, 0.17307758
80, 2344909228, -142.99761962890625, -79.74567413330078, -60.28279113769531, -0.0498057, 0.029836632, 0.1565609
81, 2344925895, -142.98968505859375, -79.75495147705078, -60.28977966308594, -0.043047395, 0.014185473, 0.16238403
82, 2344942562, -142.95571899414062, -79.76599884033203, -60.32453155517578, -0.0873291, -0.031902786, 0.20314884
83, 2344959229, -142.90658569335938, -79.77613067626953, -60.381980895996094, -0.058244556, -0.031098364, 0.22030449
84, 2344975896, -142.84864807128906, -79.7878189086914, -60.450958251953125, -0.011762761, -0.0045986115, 0.18540287
85, 2344992563, -142.79595947265625, -79.79776000976562, -60.518741607666016, 0.009755139, 0.01650984, 0.1546526
86, 2345009230, -142.75958251953125, -79.80509185791016, -60.562442779541016, 0.04070622, -0.019942775, 0.13756275
87, 2345025897, -142.72496032714844, -79.8093032836914, -60.602500915527344, 0.042548332, -0.0354667, 0.16307735
88, 2345042564, -142.71131896972656, -79.80953216552734, -60.61916732788086, 0.063273095, -0.025709521, 0.16336155
89, 2345059231, -142.70811462402344, -79.808349609375, -60.62216567993164, 0.077848375, -0.034093827, 0.16543579
90, 2345075898, -142.72906494140625, -79.80265808105469, -60.59638214111328, 0.10813124, -0.020654218, 0.16845322
91, 2345092565, -142.7705078125, -79.79444122314453, -60.5501594543457, 0.10052403, -0.021188246, 0.17191505
92, 2345109232, -142.84310913085938, -79.78366088867188, -60.48278045654297, 0.016884197, -0.039287988, 0.15118217
93, 2345125899, -142.9348907470703, -79.77285766601562, -60.40756607055664, -0.07289173, -0.018401207, 0.13786983
94, 2345142566, -143.0076141357422, -79.76042175292969, -60.352752685546875, -0.10739034, 0.017545432, 0.16397285
95, 2345159233, -143.03799438476562, -79.75251007080078, -60.338157653808594, -0.0952319, 0.04981936, 0.21853447
96, 2345175900, -143.04969787597656, -79.74893951416016, -60.33584976196289, -0.090085246, 0.077328496, 0.2108612
97, 2345192567, -143.03488159179688, -79.74974822998047, -60.338951110839844, -0.091078654, 0.10441005, 0.17299175
98, 2345209234, -142.98681640625, -79.75435638427734, -60.3652458190918, -0.106043026, 0.0901326, 0.19574165
99, 2345225901, -142.91554260253906, -79.7603988647461, -60.40455627441406, -0.078693114, 0.049816567, 0.1911726
100, 2345242568, -142.8374481201172, -79.76863098144531, -60.447330474853516, -0.05159484, 0.029474486, 0.16352081
101, 2345259235, -142.76019287109375, -79.77726745605469, -60.492252349853516, 0.0046261596, -0.008149617, 0.17102242
102, 2345275902, -142.69268798828125, -79.78500366210938, -60.53700637817383, 0.01467593, -0.061141465, 0.1979475
103, 2345292569, -142.632568359375, -79.79413604736328, -60.58917999267578, 0.0076757562, -0.06665268, 0.18511009
104, 2345309236, -142.60548400878906, -79.80229187011719, -60.6253662109375, 0.01246617, -0.07695082, 0.15949917
105, 2345325903, -142.59632873535156, -79.80916595458984, -60.65176773071289, 0.02733636, -0.026650567, 0.13200092
106, 2345342570, -142.58294677734375, -79.81155395507812, -60.67306900024414, 0.03312501, -0.007948959, 0.14861298
107, 2345359237, -142.5658416748047, -79.81008911132812, -60.691184997558594, 0.049316626, -0.0030485492, 0.18336678
108, 2345375904, -142.5696563720703, -79.80838775634766, -60.68750762939453, 0.013539884, -0.047287967, 0.16191673
109, 2345392571, -142.58209228515625, -79.80516815185547, -60.68436050415039, -0.03106418, -0.02718007, 0.17100334
110, 2345409238, -142.594482421875, -79.80159759521484, -60.68574523925781, -0.035460737, -0.0068716262, 0.17695522
111, 2345425905, -142.5957794189453, -79.79718017578125, -60.69951629638672, -0.021016756, 0.029918214, 0.18939781
112, 2345442572, -142.5952606201172, -79.7940444946289, -60.712310791015625, -0.010117691, 0.0466742, 0.17153263
113, 2345459239, -142.59214782714844, -79.7902603149414, -60.71061706542969, 0.019392949, 0.0658448, 0.20346165
114, 2345475906, -142.59251403808594, -79.78726196289062, -60.70068359375, -0.01714621, 0.02709698, 0.18673325
115, 2345492573, -142.6029052734375, -79.78770446777344, -60.68699645996094, -0.06399514, -0.020788549, 0.16880989
116, 2345509240, -142.6062469482422, -79.78779602050781, -60.68839645385742, -0.09093207, -0.018224688, 0.16754627
117, 2345525907, -142.58819580078125, -79.78827667236328, -60.723209381103516, -0.072373845, -0.023060614, 0.17487717
118, 2345542574, -142.5615997314453, -79.78976440429688, -60.772857666015625, -0.059055742, 0.01263664, 0.17186737
119, 2345559241, -142.5264892578125, -79.79332733154297, -60.82112121582031, -0.018369524, 0.04291376, 0.17686844
120, 2345575908, -142.47703552246094, -79.7973403930664, -60.86738967895508, 0.0048973504, 0.0804422, 0.19680882
121, 2345592575, -142.42469787597656, -79.80231475830078, -60.90703201293945, 0.008340931, 0.06274657, 0.20023346
122, 2345609242, -142.37852478027344, -79.80643463134766, -60.93482208251953, 0.013512839, -0.0061359894, 0.16991806
123, 2345625909, -142.33998107910156, -79.80879211425781, -60.95946502685547, 0.05210534, -0.05846786, 0.1587286
124, 2345642576, -142.32568359375, -79.80818176269531, -60.97367858886719, 0.030951865, -0.064746395, 0.1488514
125, 2345659243, -142.3255157470703, -79.80484008789062, -60.98163604736328, 0.017504683, -0.018306047, 0.1617899
126, 2345675910, -142.32432556152344, -79.8011703491211, -60.989532470703125, 0.022585258, 0.0027050655, 0.17645264
127, 2345692577, -142.335205078125, -79.79550170898438, -60.98038864135742, 0.0080082035, 5.063686E-4, 0.17976093
128, 2345709244, -142.34214782714844, -79.79032135009766, -60.970272064208984, -0.028329652, -0.031079086, 0.15216827
129, 2345725911, -142.35348510742188, -79.78324890136719, -60.95777130126953, -0.04610058, -0.02650439, 0.1624775
130, 2345742578, -142.35028076171875, -79.77606964111328, -60.96519088745117, -0.016666047, -0.0074370583, 0.16985989
131, 2345759245, -142.3483428955078, -79.76707458496094, -60.9713249206543, -0.0068035806, 0.001612199, 0.18639278
132, 2345775912, -142.33673095703125, -79.7609634399414, -60.9883918762207, -0.016211981, 0.030198555, 0.16338444
133, 2345792579, -142.34646606445312, -79.75579071044922, -60.99095916748047, -0.03150285, 0.016298229, 0.15073872
134, 2345809246, -142.34561157226562, -79.75081634521484, -61.00716781616211, -0.014706356, 0.05984129, 0.17457676
135, 2345825913, -142.34703063964844, -79.74640655517578, -61.01227569580078, 0.016161704, 0.07547792, 0.20923042
136, 2345842580, -142.34628295898438, -79.74573516845703, -61.00410842895508, 0.004073789, 0.057833977, 0.21460533
137, 2345859247, -142.33526611328125, -79.74813842773438, -60.99738693237305, -0.028231977, 0.026081, 0.17094994
138, 2345875914, -142.3091583251953, -79.74915313720703, -61.002620697021484, -0.044916704, 0.027331332, 0.16164494
139, 2345892581, -142.26065063476562, -79.75109100341797, -61.02479553222656, -0.06604204, 0.010179507, 0.19004917
140, 2345909248, -142.1980438232422, -79.75477600097656, -61.06401062011719, -0.06306908, 0.026404032, 0.19482708
141, 2345925915, -142.12582397460938, -79.76153564453125, -61.11347198486328, -0.051891383, 0.03474442, 0.17681408
142, 2345942582, -142.04052734375, -79.7677993774414, -61.166282653808594, -0.037004527, 0.002288214, 0.14006424
143, 2345959249, -141.94932556152344, -79.77278900146484, -61.22089767456055, -0.03615424, -0.037131816, 0.17960835
144, 2345975916, -141.86390686035156, -79.77792358398438, -61.28280258178711, -0.018575603, -0.054772854, 0.18655968
145, 2345992583, -141.79942321777344, -79.78112030029297, -61.34199905395508, -0.004247347, -0.088107295, 0.15078545
146, 2346009250, -141.74371337890625, -79.7823486328125, -61.404117584228516, 0.028018452, -0.021286536, 0.12957
147, 2346025917, -141.70135498046875, -79.78013610839844, -61.44987487792969, 0.035189614, 0.02340583, 0.16888428
148, 2346042584, -141.67678833007812, -79.77745819091797, -61.473636627197266, 0.03420743, 0.030998956, 0.18116856
149, 2346059251, -141.6556396484375, -79.77713012695312, -61.489845275878906, 0.011385107, 0.047823224, 0.18808556
150, 2346075918, -141.63916015625, -79.77825164794922, -61.4984245300293, -0.010859698, 0.027797803, 0.1622057
151, 2346092585, -141.63072204589844, -79.77801513671875, -61.50536346435547, -0.042476766, -0.016372493, 0.15966797
152, 2346109252, -141.6240234375, -79.77678680419922, -61.523399353027344, -0.03955295, -0.017543923, 0.20381546
153, 2346125919, -141.61000061035156, -79.77670288085938, -61.552635192871094, -0.020780852, 0.012580706, 0.18916893
154, 2346142586, -141.59288024902344, -79.77838134765625, -61.580406188964844, -0.010614015, 0.042982772, 0.16510677
155, 2346159253, -141.56951904296875, -79.78157806396484, -61.604244232177734, -0.008050908, 0.041505296, 0.17158794
156, 2346175920, -141.54225158691406, -79.78294372558594, -61.627201080322266, -0.012858518, 0.013456151, 0.18647671
157, 2346192587, -141.5136260986328, -79.7861557006836, -61.651187896728516, -0.047426432, -0.0057126, 0.19445705
158, 2346209254, -141.4835662841797, -79.78941345214844, -61.68800735473633, -0.04447299, -0.022244848, 0.19236374
159, 2346225921, -141.43954467773438, -79.79342651367188, -61.74239730834961, -0.01379677, -0.026549315, 0.15684032
160, 2346242588, -141.39944458007812, -79.79512023925781, -61.79595184326172, 0.004250448, 0.01953548, 0.14457989
161, 2346259255, -141.372314453125, -79.79647064208984, -61.83338165283203, 0.027531361, 0.019536206, 0.1610384
162, 2346275922, -141.3528289794922, -79.79702758789062, -61.86282730102539, 0.033014372, 0.022565812, 0.18623066
163, 2346292589, -141.35897827148438, -79.79711151123047, -61.866493225097656, 0.0283206, 0.028368488, 0.16283989
164, 2346309256, -141.36651611328125, -79.79647064208984, -61.87139129638672, -0.0075346217, 0.011215825, 0.16939831
165, 2346325923, -141.38771057128906, -79.7962417602539, -61.858734130859375, -0.003442393, 0.06597069, 0.20665455
166, 2346342590, -141.40988159179688, -79.7968978881836, -61.84333419799805, -0.007768961, 0.06606395, 0.2029829
167, 2346359257, -141.43434143066406, -79.79932403564453, -61.82345199584961, -0.003058747, 0.03828615, 0.1769638
168, 2346375924, -141.4632110595703, -79.80125427246094, -61.798316955566406, -0.0031131024, -0.0069300192, 0.14198112
169, 2346392591, -141.48089599609375, -79.80292510986328, -61.78163146972656, -0.026739553, 0.008897771, 0.16210747
170, 2346409258, -141.5007781982422, -79.80453491210938, -61.76536178588867, -0.03523542, -0.0051492355, 0.1922884
171, 2346425925, -141.5167236328125, -79.80755615234375, -61.75581741333008, -0.030238314, 0.012310367, 0.18371964
172, 2346442592, -141.5294647216797, -79.81145477294922, -61.74790954589844, -0.018798096, 0.0072580245, 0.17733765
173, 2346459259, -141.5384063720703, -79.814453125, -61.7411003112793, -0.0043195277, 0.008758634, 0.18367386
174, 2346475926, -141.55120849609375, -79.81678771972656, -61.7269401550293, 0.0189633, 0.0071888473, 0.1788292
175, 2346492593, -141.561279296875, -79.81924438476562, -61.714351654052734, -0.001369883, 0.009039031, 0.17407513
176, 2346509260, -141.57577514648438, -79.82157897949219, -61.697391510009766, -0.017819222, 0.0042779264, 0.17360592
177, 2346525927, -141.60154724121094, -79.82534790039062, -61.67058563232422, -0.014380936, 0.016404845, 0.18140125
178, 2346542594, -141.6214599609375, -79.83033752441406, -61.647708892822266, -0.012575579, 0.012829923, 0.17759895
179, 2346559261, -141.64334106445312, -79.83517456054688, -61.630531311035156, -0.0088927, 0.018770786, 0.1859932
180, 2346575928, -141.6808319091797, -79.84085083007812, -61.60321044921875, -0.0045554596, 0.024931977, 0.1870718
181, 2346592595, -141.72506713867188, -79.84620666503906, -61.568328857421875, 0.007203096, 0.034993075, 0.17004585
182, 2346609262, -141.77426147460938, -79.85033416748047, -61.52342987060547, 0.0039282683, 0.011804837, 0.15643024
183, 2346625929, -141.8168182373047, -79.85423278808594, -61.48371124267578, -2.1898682E-4, -0.026614359, 0.17586422
184, 2346642596, -141.8638458251953, -79.85786437988281, -61.44063186645508, -0.042197987, -0.014300414, 0.18680382
185, 2346659263, -141.89649963378906, -79.86299896240234, -61.40625, -0.06290149, 0.03202801, 0.17673302
186, 2346675930, -141.90359497070312, -79.8686294555664, -61.38469314575195, -0.03809865, 0.03866601, 0.17656136
187, 2346692597, -141.8979949951172, -79.8741455078125, -61.3673095703125, -0.039173383, 0.003173437, 0.20452881
188, 2346709264, -141.90097045898438, -79.88090515136719, -61.349666595458984, -0.023619732, -0.019060627, 0.18552876
189, 2346725931, -141.90579223632812, -79.89107513427734, -61.332252502441406, -0.010850576, 0.021724453, 0.14875889
190, 2346742598, -141.90538024902344, -79.902587890625, -61.31385040283203, -0.0057474123, 0.06096327, 0.16358662
191, 2346759265, -141.8861541748047, -79.91199493408203, -61.30224609375, -0.038067777, 0.023526248, 0.19759655
192, 2346775932, -141.864501953125, -79.923583984375, -61.290306091308594, -0.05909972, -0.006309994, 0.17711353
193, 2346792599, -141.84007263183594, -79.93546295166016, -61.28893280029297, -0.055052903, -0.03239049, 0.16413689
194, 2346809266, -141.81556701660156, -79.94636535644531, -61.295162200927734, -0.045181103, 5.975619E-4, 0.17775345
195, 2346825933, -141.77651977539062, -79.95850372314453, -61.31510925292969, -0.07230407, 0.04205117, 0.1757555
196, 2346842600, -141.72625732421875, -79.9732666015625, -61.3377685546875, -0.07497975, 0.043595307, 0.16876793
197, 2346859267, -141.6543731689453, -79.98939514160156, -61.37069320678711, -0.057199076, 0.010092393, 0.16287231
198, 2346875934, -141.5673065185547, -80.00284576416016, -61.4242057800293, -0.07193162, -0.0368926, 0.16601086
199, 2346892601, -141.4628143310547, -80.01750946044922, -61.50239944458008, -0.039362963, -0.040839616, 0.19920635
200, 2346909268, -141.35289001464844, -80.03382110595703, -61.600860595703125, -0.04354277, -0.016842036, 0.22505665
201, 2346925935, -141.2626495361328, -80.05055236816406, -61.690582275390625, -0.0065512485, -0.025851285, 0.188694
202, 2346942602, -141.18743896484375, -80.0666275024414, -61.774227142333984, 0.024514286, -0.0056293416, 0.13366508
203, 2346959269, -141.1175079345703, -80.07909393310547, -61.85308837890625, 0.07546347, -0.01095314, 0.16088104
204, 2346975936, -141.0619659423828, -80.08918762207031, -61.9147834777832, 0.1100956, -0.03427113, 0.20936108
205, 2346992603, -141.02114868164062, -80.09738159179688, -61.962562561035156, 0.09476022, -0.016494697, 0.20675945
206, 2347009270, -141.0198211669922, -80.1044921875, -61.97704315185547, 0.07008205, 0.008445493, 0.14739418
207, 2347025937, -141.0483856201172, -80.10980224609375, -61.96781921386719, 0.047821447, -0.05277029, 0.15890598
208, 2347042604, -141.0750732421875, -80.11324310302734, -61.9725456237793, -2.0925004E-4, -0.020178415, 0.15396976
209, 2347059271, -141.11492919921875, -80.11451721191406, -61.95941925048828, -0.019161304, 0.028185654, 0.15853596
210, 2347075938, -141.149169921875, -80.11933135986328, -61.941551208496094, -0.0389694, 0.048612837, 0.15098
211, 2347092605, -141.15545654296875, -80.12295532226562, -61.93760299682617, -0.011678091, 0.022428464, 0.175951
212, 2347109272, -141.15806579589844, -80.12560272216797, -61.94473648071289, -0.043265752, -0.055356726, 0.19049549
213, 2347125939, -141.16644287109375, -80.12896728515625, -61.96875, -0.080339216, -0.09052202, 0.17660522
214, 2347142606, -141.18231201171875, -80.13321685791016, -62.000064849853516, -0.046296768, -0.041933935, 0.13584042
215, 2347159273, -141.18338012695312, -80.13359069824219, -62.04582214355469, 0.020785658, 0.014016498, 0.1541357
216, 2347175940, -141.1710205078125, -80.13207244873047, -62.093994140625, 0.028919546, 0.032964192, 0.2036953
217, 2347192607, -141.17384338378906, -80.13146209716797, -62.11997604370117, 0.025117869, 0.021479595, 0.21159267
218, 2347209274, -141.20310974121094, -80.13398742675781, -62.116336822509766, 0.018839488, 0.020297378, 0.1455288
219, 2347225941, -141.23095703125, -80.1356430053711, -62.110382080078125, -0.026040278, -0.0014208159, 0.13995361
220, 2347242608, -141.24574279785156, -80.13578033447266, -62.11964416503906, -0.04619377, -0.033097073, 0.17986584
221, 2347259275, -141.24127197265625, -80.13695526123047, -62.15086364746094, -0.032077756, 0.0026577367, 0.248065
222, 2347275942, -141.2290802001953, -80.14248657226562, -62.19319152832031, 0.030597778, 0.05569781, 0.23017693
223, 2347292609, -141.24546813964844, -80.1501693725586, -62.189937591552734, 0.016245928, 0.15945844, 0.11276722
224, 2347309276, -141.26234436035156, -80.15897369384766, -62.15583419799805, -0.051976528, 0.1693048, 0.060094833
225, 2347325943, -141.2318878173828, -80.16712951660156, -62.154319763183594, -0.111164436, 0.04777718, 0.20488071
226, 2347342610, -141.1742401123047, -80.17721557617188, -62.19996643066406, -0.09950611, -0.086607635, 0.29418278
227, 2347359277, -141.12319946289062, -80.19185638427734, -62.26896286010742, -0.03539508, -0.13063288, 0.22780609
228, 2347375944, -141.08921813964844, -80.20571899414062, -62.32859802246094, 0.029648533, -0.050827853, 0.09514046
229, 2347392611, -141.03073120117188, -80.21154022216797, -62.38916015625, 0.05988176, 0.011373065, 0.12301445
230, 2347409278, -140.9564208984375, -80.21246337890625, -62.445716857910156, 0.016467651, -0.02325792, 0.18646431
231, 2347425945, -140.88345336914062, -80.21173095703125, -62.50381851196289, -6.692676E-4, -0.061186224, 0.20481777
232, 2347442612, -140.8228759765625, -80.2127456665039, -62.55656433105469, 0.017172402, -0.03291139, 0.13792515
233, 2347459279, -140.7716827392578, -80.2148208618164, -62.59965515136719, -0.009660677, 0.0069823773, 0.11097145
234, 2347475946, -140.71658325195312, -80.21250915527344, -62.64474105834961, -0.05231948, -0.01135647, 0.119950294
235, 2347492613, -140.64112854003906, -80.20895385742188, -62.72512435913086, -0.032506578, -0.06063247, 0.22837639
236, 2347509280, -140.5697784423828, -80.2083740234375, -62.82569122314453, -0.024571227, -0.07970634, 0.26694775
237, 2347525947, -140.52732849121094, -80.21574401855469, -62.9283447265625, -0.03982832, -0.030384518, 0.13907146
238, 2347542614, -140.4888153076172, -80.2208480834961, -63.023597717285156, -0.004699053, 0.07470418, 0.10951042
239, 2347559281, -140.3888397216797, -80.2210922241211, -63.13579177856445, 0.10854847, 0.1721618, 0.23099613
240, 2347575948, -140.30770874023438, -80.22402954101562, -63.197139739990234, 0.110082, 0.11862011, 0.28447437
241, 2347592615, -140.25320434570312, -80.23258209228516, -63.21993637084961, 0.06657591, 0.06352031, 0.20481205
242, 2347609282, -140.21658325195312, -80.24502563476562, -63.221858978271484, 0.012624361, 0.025013614, 0.11866951
243, 2347625949, -140.1654052734375, -80.25837707519531, -63.24042892456055, -0.09100802, 0.057448808, 0.10914993
244, 2347642616, -140.12135314941406, -80.27245330810547, -63.25810623168945, -0.14098307, 0.095733225, 0.19599724
245, 2347659283, -140.05184936523438, -80.29473114013672, -63.29800033569336, -0.12177701, 0.13148172, 0.24692059
246, 2347675950, -139.9313201904297, -80.3268814086914, -63.3851203918457, -0.10461812, 0.13348825, 0.19502258
247, 2347692617, -139.81024169921875, -80.36314392089844, -63.46955490112305, -0.12605226, 0.09031846, 0.12459087
248, 2347709284, -139.65554809570312, -80.40253448486328, -63.58165740966797, -0.1274604, 0.070788, 0.15065384
249, 2347725951, -139.4674072265625, -80.44420623779297, -63.73528289794922, -0.09358193, -0.015877131, 0.24107742
250, 2347742618, -139.276611328125, -80.49215698242188, -63.91254806518555, -0.079180695, -0.059212774, 0.19236279
251, 2347759285, -139.08370971679688, -80.53894805908203, -64.09734344482422, 0.051244885, -0.059216462, 0.1216259
252, 2347775952, -138.90626525878906, -80.58157348632812, -64.27166748046875, 0.06249541, -0.032460786, 0.14112663
253, 2347792619, -138.7451171875, -80.6236801147461, -64.43586730957031, 0.06941605, -0.008693146, 0.15811157
254, 2347809286, -138.6023406982422, -80.66465759277344, -64.58182525634766, 0.057740312, -0.07034311, 0.13539505
255, 2347825953, -138.46351623535156, -80.70349884033203, -64.7356185913086, 0.06606606, -0.055294033, 0.18767452
256, 2347842620, -138.33670043945312, -80.7403793334961, -64.88392639160156, 0.06384842, -0.013922902, 0.16509438
257, 2347859287, -138.263427734375, -80.78034973144531, -64.98249816894531, 0.025356414, 0.038442943, 0.13169861
258, 2347875954, -138.22227478027344, -80.82506561279297, -65.04194641113281, 0.038470294, 0.15104984, 0.109482765
259, 2347892621, -138.1905059814453, -80.87215423583984, -65.07061767578125, 0.038055483, 0.17924325, 0.15608978
260, 2347909288, -138.16505432128906, -80.92279815673828, -65.07503509521484, -0.04418369, 0.06262783, 0.20216179
261, 2347925955, -138.1369171142578, -80.98065185546875, -65.10201263427734, -0.06281112, 0.03824385, 0.22140312
262, 2347942622, -138.14617919921875, -81.04441833496094, -65.11515045166016, -0.04587493, 0.07717662, 0.22193146
263, 2347959289, -138.16726684570312, -81.1146011352539, -65.10769653320312, -0.036338724, 0.08950269, 0.14946365
264, 2347975956, -138.18487548828125, -81.19119262695312, -65.07874298095703, 0.037071425, 0.14400314, 0.15833378
265, 2347992623, -138.20494079589844, -81.2657241821289, -65.02909851074219, 0.14887193, 0.09397546, 0.18315887
266, 2348009290, -138.22569274902344, -81.33583068847656, -64.97340393066406, 0.15368919, 0.0036246537, 0.2602682
267, 2348025957, -138.23768615722656, -81.40129089355469, -64.92682647705078, 0.09368242, -0.028738905, 0.29076767
268, 2348042624, -138.2749786376953, -81.47013854980469, -64.84739685058594, 0.15532032, -0.028602226, 0.19198704
269, 2348059291, -138.381591796875, -81.53912353515625, -64.68599700927734, 0.1486572, 0.078440584, 0.03681755
270, 2348075958, -138.53082275390625, -81.60768127441406, -64.44384765625, 0.043872546, 0.12286211, -0.018321037
271, 2348092625, -138.61199951171875, -81.68544006347656, -64.25035095214844, -0.04909969, 0.12288575, 0.13786411
272, 2348109292, -138.55148315429688, -81.76822662353516, -64.20529174804688, -0.09797578, 0.04729836, 0.36415482
273, 2348125959, -138.49014282226562, -81.84190368652344, -64.20294189453125, 0.021594075, -0.1566381, 0.34894276
274, 2348142626, -138.53494262695312, -81.89986419677734, -64.14080810546875, 0.18811196, -0.24495645, 0.124144554
275, 2348159293, -138.6845703125, -81.93868255615234, -63.98963928222656, 0.31221357, -0.13555865, -0.045754433
276, 2348175960, -138.8942108154297, -81.95785522460938, -63.730133056640625, 0.3348499, 0.10411714, 0.009057045
277, 2348192627, -139.12762451171875, -81.9643783569336, -63.36389923095703, 0.14033765, 0.2752285, 0.18737793
278, 2348209294, -139.35060119628906, -81.9829330444336, -62.92942810058594, -0.23279814, 0.20588142, 0.21394444
279, 2348225961, -139.457275390625, -82.0160140991211, -62.588111877441406, -0.585241, -0.109289736, 0.19072056
280, 2348242628, -139.31520080566406, -82.05853271484375, -62.56327819824219, -0.7690702, -0.49076092, 0.23892975
281, 2348259295, -138.86721801757812, -82.1209487915039, -62.980716705322266, -0.8251795, -0.60144234, 0.27823257
282, 2348275962, -138.17596435546875, -82.20814514160156, -63.7785530090332, -0.72896326, -0.29190478, 0.27088833
283, 2348292629, -137.23236083984375, -82.33648681640625, -64.87958526611328, -0.48248854, 0.4307311, 0.29642487
284, 2348309296, -136.02926635742188, -82.48624420166016, -66.1195068359375, -0.246754, 0.71876323, 0.21593761
285, 2348325963, -134.66949462890625, -82.64289093017578, -67.4105224609375, -0.029952481, 0.41004133, 0.22402191
286, 2348342630, -133.23663330078125, -82.78172302246094, -68.7762451171875, 0.046005014, -0.3719411, 0.11529255
287, 2348359297, -131.72488403320312, -82.91124725341797, -70.39801025390625, -0.08227677, -0.9069484, 0.16911793
288, 2348375964, -130.1412811279297, -83.02945709228516, -72.31427001953125, -0.070179604, -1.0026889, 0.23844719
289, 2348392631, -128.72146606445312, -83.12049102783203, -74.18071746826172, 0.35725263, -0.43804717, 0.15944481
290, 2348409298, -127.64337158203125, -83.19266510009766, -75.65157318115234, 1.1825657, 0.5700606, 0.01107502
291, 2348425965, -127.21237182617188, -83.24785614013672, -76.27318572998047, 2.062559, 1.0678426, -0.14311886
292, 2348442632, -127.8202133178711, -83.27996826171875, -75.63143920898438, 2.1332037, 0.9597583, -0.20679379
293, 2348459299, -129.1531524658203, -83.26839447021484, -74.05879974365234, 1.2744513, -0.28933752, -0.18769741
294, 2348475966, -131.15756225585938, -83.1869888305664, -71.91158294677734, 0.5395095, -1.4789284, -0.029202461
295, 2348492633, -133.86404418945312, -83.0274887084961, -69.43414306640625, 0.85777867, -2.0807316, 0.015151978
296, 2348509300, -137.2301788330078, -82.7609634399414, -66.62468719482422, 1.636709, -2.1188343, -0.1485405
297, 2348525967, -140.89923095703125, -82.36953735351562, -63.56161117553711, 1.7949656, -1.3409977, -0.2175026
298, 2348542634, -144.62350463867188, -81.86856079101562, -60.22876739501953, 1.8642358, -0.3006641, -0.325943
299, 2348559301, -148.13717651367188, -81.27352905273438, -56.762725830078125, 1.7297398, 0.23393455, -0.41487694
300, 2348575968, -151.36004638671875, -80.59447479248047, -53.35022735595703, 1.259028, -0.21639949, -0.51831436
301, 2348592635, -154.46142578125, -79.81074523925781, -50.14005661010742, 0.8511376, -0.6021915, -0.35680962
302, 2348609302, -157.32815551757812, -78.9185562133789, -47.4239501953125, 0.29488003, -0.70641273, 0.12452412
303, 2348625969, -159.9727783203125, -78.00433349609375, -45.20152282714844, 0.0662833, -0.28547537, 0.12308407
304, 2348642636, -162.58860778808594, -77.08338165283203, -43.117061614990234, 0.3261948, 0.37206748, -0.46960735
305, 2348659303, -165.1311492919922, -76.17900848388672, -41.10087585449219, 0.18633202, 0.92051053, -0.7118721
306, 2348675970, -167.46084594726562, -75.27510070800781, -39.21458053588867, -0.050993208, 1.2429745, -0.41110992
307, 2348692637, -169.5516815185547, -74.36923217773438, -37.38682174682617, -0.016497303, 1.074324, -0.09469223
308, 2348709304, -171.42108154296875, -73.4177017211914, -35.585182189941406, 0.37469617, 0.9057783, -0.11503506
309, 2348725971, -172.95448303222656, -72.3929443359375, -33.917198181152344, 0.9953615, 0.7159246, -0.090379715
310, 2348742638, -174.06886291503906, -71.36579895019531, -32.32860565185547, 0.9975469, 0.5800958, -0.19857883
311, 2348759305, -174.74154663085938, -70.35826873779297, -30.787874221801758, -0.41886565, 0.273981, -0.60441494
312, 2348775972, -175.1768341064453, -69.37663269042969, -29.425735473632812, -1.4324253, 0.016012691, -0.4832983
313, 2348792639, -175.65908813476562, -68.42083740234375, -28.342287063598633, -1.6872044, 0.12011072, -0.13190174
314, 2348809306, -176.32606506347656, -67.4118881225586, -27.469608306884766, -0.47485393, 0.047869433, -0.035752296
315, 2348825973, -177.02691650390625, -66.36949157714844, -26.671865463256836, 0.6564036, -0.2695073, -0.12177944
316, 2348842640, -177.5598602294922, -65.38058471679688, -25.97037124633789, -0.24765295, -0.3727126, 0.1874628
317, 2348859307, -177.92825317382812, -64.4572982788086, -25.41541862487793, -1.2243954, -0.50592875, 0.6186218
318, 2348875974, -178.33499145507812, -63.589691162109375, -25.007375717163086, -1.2231343, -0.53811, 0.57376957
319, 2348892641, -179.02931213378906, -62.76902389526367, -24.606412887573242, -0.47441888, 0.13789956, 0.25609875
320, 2348909308, -179.85508728027344, -61.945560455322266, -24.134647369384766, 0.18930449, 0.7483026, -0.28892708
321, 2348925975, 179.65771484375, -61.061180114746094, -23.691118240356445, 0.7069331, 0.73137015, -0.3978157
322, 2348942642, 179.6461944580078, -60.204437255859375, -23.351110458374023, 0.29790512, 0.38871318, 0.013766289
323, 2348959309, 179.892333984375, -59.403411865234375, -23.03809928894043, -0.5146253, 0.05914203, 0.18421364
324, 2348975976, -179.94129943847656, -58.60255813598633, -22.65100860595703, -0.8954166, 0.08226719, 0.10489273
325, 2348992643, -179.8797607421875, -57.79587936401367, -22.300140380859375, -0.9188323, -0.1902934, 0.38716412
326, 2349009310, -179.9342803955078, -57.04302978515625, -22.04005241394043, -0.9803209, -0.51065665, 0.75790596
327, 2349025977, 179.82518005371094, -56.35883331298828, -21.868080139160156, -0.6771791, -0.35062337, 0.6633358
328, 2349042644, 179.4664764404297, -55.74063491821289, -21.765199661254883, -0.13881171, 0.09353782, 0.61604786
329, 2349059311, 179.12380981445312, -55.20375442504883, -21.6418514251709, -0.08439523, 0.65951586, 0.6880255
330, 2349075978, 178.7584991455078, -54.70046615600586, -21.39242935180664, -0.23252843, 1.1504728, 0.7132721
331, 2349092645, 178.33316040039062, -54.23396682739258, -21.021663665771484, -0.23967825, 1.1597936, 0.88484955
332, 2349109312, 177.80433654785156, -53.79010772705078, -20.474302291870117, -0.22971356, 0.851883, 0.7567396
333, 2349125979, 177.15843200683594, -53.3853874206543, -19.759769439697266, -0.59931314, 0.93413675, 0.110871315
334, 2349142646, 176.6413116455078, -52.989723205566406, -19.131834030151367, -1.0782446, 0.28248098, -0.2124958
335, 2349159313, 176.3437957763672, -52.62737274169922, -18.747602462768555, -1.1791191, -0.77439106, 0.15877724
336, 2349175980, 176.0449981689453, -52.346336364746094, -18.584030151367188, -1.1072236, -1.0628766, 0.6952381
337, 2349192647, 175.5784912109375, -52.112117767333984, -18.51666259765625, -0.7028839, -0.4277021, 0.689765
338, 2349209314, 175.2125701904297, -51.84907531738281, -18.44693374633789, 0.36407936, -0.0038987924, 0.2466116
339, 2349225981, 175.13233947753906, -51.583038330078125, -18.360628128051758, 0.30809745, 0.3901131, 0.027932167
340, 2349242648, 175.43008422851562, -51.32399368286133, -18.298616409301758, -0.10163617, -0.116702594, 0.19773006
341, 2349259315, 175.8700714111328, -51.110618591308594, -18.318904876708984, -0.34574634, -0.5246726, 0.5057583
342, 2349275982, 176.1114501953125, -50.92722702026367, -18.347583770751953, -0.58247834, -0.4884543, 0.28684235
343, 2349292649, 176.0858917236328, -50.75828552246094, -18.34128189086914, -0.42172173, -0.0883179, 0.1302824
344, 2349309316, 175.9629364013672, -50.617008209228516, -18.32297706604004, -0.15230122, 0.34297615, 0.18885899
345, 2349325983, 175.92874145507812, -50.5174560546875, -18.313007354736328, -0.19357856, 0.44639555, 0.3681755
346, 2349342650, 175.907958984375, -50.411399841308594, -18.262657165527344, -0.12649813, 0.46654916, 0.37075615
347, 2349359317, 175.7632598876953, -50.2910041809082, -18.12190055847168, -0.041967623, 0.50511634, 0.30874825
348, 2349375984, 175.59019470214844, -50.17189407348633, -17.919139862060547, -0.19697519, 0.21631858, 0.26287365
349, 2349392651, 175.4627685546875, -50.08183288574219, -17.750385284423828, -0.4802268, -0.20808698, 0.29622746
350, 2349409318, 175.37301635742188, -50.046142578125, -17.65998649597168, -0.5820936, -0.46081695, 0.5917187
351, 2349425985, 175.24742126464844, -50.07634353637695, -17.629356384277344, -0.5854485, -0.24909323, 0.86134434
352, 2349442652, 175.2171173095703, -50.132442474365234, -17.631860733032227, -0.544698, -0.33301708, 0.70861435
353, 2349459319, 175.29786682128906, -50.19926452636719, -17.670644760131836, -0.6204011, -0.34378046, 0.4702158
354, 2349475986, 175.36009216308594, -50.31234359741211, -17.738265991210938, -0.70336145, -0.0062267357, 0.52215385
355, 2349492653, 175.44879150390625, -50.49083709716797, -17.812580108642578, -0.60645777, 0.38696843, 0.56509113
356, 2349509320, 175.65646362304688, -50.713233947753906, -17.92737579345703, -0.4983133, 0.47619462, 0.5044317
357, 2349525987, 175.95187377929688, -50.97423553466797, -18.081035614013672, -0.49765703, 0.13415913, 0.5821161
358, 2349542654, 176.1436309814453, -51.285709381103516, -18.20564079284668, -0.5887863, -0.05789578, 0.81631756
359, 2349559321, 176.14703369140625, -51.63413619995117, -18.2603816986084, -0.48080832, 0.06273472, 0.7027283
360, 2349575988, 176.10305786132812, -52.011356353759766, -18.298728942871094, -0.2941071, 0.07272553, 0.5216389
361, 2349592655, 176.06875610351562, -52.425811767578125, -18.352401733398438, -0.28663978, -0.014489786, 0.46379852
362, 2349609322, 176.0145263671875, -52.89111328125, -18.382362365722656, -0.6071843, 0.33295313, 0.33257294
363, 2349625989, 175.96119689941406, -53.382564544677734, -18.399864196777344, -0.51009446, 0.5768719, 0.2223711
364, 2349642656, 176.00985717773438, -53.9090461730957, -18.429933547973633, -0.36804008, 0.5198291, 0.43039322
365, 2349659323, 176.1831512451172, -54.481895446777344, -18.46761703491211, -0.37781698, 0.23608148, 0.64494514
366, 2349675990, 176.4208221435547, -55.106361389160156, -18.536930084228516, -0.46530205, -0.020779217, 0.85647964
367, 2349692657, 176.63943481445312, -55.738311767578125, -18.618730545043945, -0.09346334, -0.31466708, 0.45427227
368, 2349709324, 176.83175659179688, -56.43217849731445, -18.64824104309082, -0.8210075, 0.002462107, 0.24799728
369, 2349725991, 177.08396911621094, -57.13722229003906, -18.694726943969727, -1.2560445, 0.24175994, 0.105335236
370, 2349742658, 177.367431640625, -57.880008697509766, -18.835796356201172, -1.0637068, 0.5155157, 0.58601475
371, 2349759325, 177.6462860107422, -58.7119026184082, -19.022069931030273, -0.6292577, 0.6901154, 0.76447296
372, 2349775992, 178.0431671142578, -59.60837936401367, -19.21072769165039, -0.53066206, 0.7074442, 0.6860428
373, 2349792659, 178.70053100585938, -60.538089752197266, -19.461416244506836, -0.685825, 0.11120161, 0.7395134
374, 2349809326, 179.57241821289062, -61.51481628417969, -19.846492767333984, -1.2960451, -0.5923915, 0.92080975
375, 2349825993, -179.56036376953125, -62.56568145751953, -20.364662170410156, -1.9141153, -0.60932, 0.82682705
376, 2349842660, -178.77943420410156, -63.6729621887207, -21.022933959960938, -1.9522296, -0.29324633, 0.506979
377, 2349859327, -177.9416961669922, -64.8341293334961, -21.875822067260742, -1.5240161, 0.11348093, 0.24462509
378, 2349875994, -176.84722900390625, -66.03842163085938, -22.962671279907227, -0.64195883, 0.3158824, -0.14670849
379, 2349892661, -175.46530151367188, -67.27542877197266, -24.251115798950195, -0.07913792, 0.3801311, -0.305439
380, 2349909328, -173.76864624023438, -68.52509307861328, -25.756093978881836, 0.016759532, 0.1794837, -0.21271706
381, 2349925995, -171.77806091308594, -69.7767333984375, -27.476593017578125, -0.59944844, 0.057666063, -0.14024734
382, 2349942662, -169.6625213623047, -71.01995086669922, -29.337787628173828, -0.93384045, 0.00885536, -0.5188513
383, 2349959329, -167.55392456054688, -72.20913696289062, -31.278728485107422, -0.021832123, -0.10988562, -1.0213022
384, 2349975996, -165.4940185546875, -73.3572006225586, -33.36784362792969, 0.94256276, -0.008865474, -1.185751
385, 2349992663, -163.36122131347656, -74.45159149169922, -35.642417907714844, 1.4615606, -0.16916686, -1.1907797
386, 2350009330, -161.07740783691406, -75.4576416015625, -38.100074768066406, 1.9184922, -0.15945224, -1.2247267
387, 2350025997, -158.777099609375, -76.33322143554688, -40.58066177368164, 2.3225834, -0.091367625, -1.0312643
388, 2350042664, -156.64686584472656, -77.04351043701172, -42.87104797363281, 2.4479952, -0.13059622, -0.8262558
389, 2350059331, -154.79373168945312, -77.63467407226562, -44.88726043701172, 2.2307308, 0.009281292, -0.7111721
390, 2350075998, -153.15567016601562, -78.12203979492188, -46.58369064331055, 2.1391082, 0.48076135, -0.584754
391, 2350092665, -151.83340454101562, -78.51425170898438, -47.69544982910156, 1.88813, 0.4961581, -0.21553612
392, 2350109332, -150.48788452148438, -78.85269165039062, -48.60132598876953, 1.5102149, 0.14076091, 0.25108337
393, 2350125999, -149.10516357421875, -79.13420104980469, -49.414581298828125, 0.6996894, -0.28993213, 0.3267212
394, 2350142666, -147.95700073242188, -79.36643981933594, -49.99047088623047, 0.41602275, -0.5831552, 0.13602448
395, 2350159333, -147.06578063964844, -79.56417846679688, -50.422000885009766, 0.33200815, -0.52235144, 0.16875362
396, 2350176000, -146.2133026123047, -79.74671173095703, -50.93450927734375, 0.19858706, -0.65708673, 0.19053555
397, 2350192667, -145.21829223632812, -79.89137268066406, -51.66536331176758, 0.16478077, -0.6214123, 0.073005676
398, 2350209334, -144.17318725585938, -80.00559997558594, -52.50846481323242, 0.18016547, -0.36643612, 0.009730339
399, 2350226001, -143.3118438720703, -80.10995483398438, -53.27812576293945, -0.07041714, -0.30885512, 0.0365963
400, 2350242668, -142.53285217285156, -80.22416687011719, -54.064903259277344, -0.29437566, -0.4168636, -0.02036953
401, 2350259335, -141.68724060058594, -80.34584045410156, -55.00352096557617, 0.0030186821, -0.39623353, -0.025709152
402, 2350276002, -140.88951110839844, -80.44208526611328, -55.986541748046875, 0.62689483, -0.33091354, -0.004149437
403, 2350292669, -140.3460235595703, -80.50019836425781, -56.775447845458984, 0.9289152, -0.19460595, 0.019572258
404, 2350309336, -140.07781982421875, -80.53523254394531, -57.30109405517578, 0.81574166, 0.067741215, -0.009140015
405, 2350326003, -139.97463989257812, -80.55672454833984, -57.59716796875, 0.44763896, 0.18270814, -0.09730625
406, 2350342670, -139.92422485351562, -80.57022094726562, -57.78447341918945, -0.02892553, 0.017852176, 0.02747345
407, 2350359337, -139.85543823242188, -80.57978057861328, -58.023399353027344, -0.19325277, -0.1841322, 0.23202324
408, 2350376004, -139.7513427734375, -80.5929946899414, -58.34953308105469, 0.19953233, 0.033920802, 0.41985703
409, 2350392671, -139.6580810546875, -80.6197738647461, -58.63606643676758, 0.45675197, 0.33220977, 0.36084366
410, 2350409338, -139.6623992919922, -80.64913940429688, -58.73152542114258, 0.1682739, 0.4336286, 0.20393753
411, 2350426005, -139.7272186279297, -80.68229675292969, -58.7161865234375, -0.19411586, 0.6543389, 0.11406803
412, 2350442672, -139.72122192382812, -80.72807312011719, -58.68958282470703, -0.3315244, 0.5926425, 0.13284874
413, 2350459339, -139.69586181640625, -80.78527069091797, -58.62532424926758, -0.34975517, 0.2271822, 0.05196953
414, 2350476006, -139.6023406982422, -80.85873413085938, -58.59907531738281, -0.22056144, 0.0052942396, 0.082826614
415, 2350492673, -139.40283203125, -80.95699310302734, -58.69133758544922, -0.09203284, -0.140843, 0.08136749
416, 2350509340, -139.1704864501953, -81.06458282470703, -58.8224983215332, -0.110082366, -0.227415, 0.124783516
417, 2350526007, -139.0818328857422, -81.18650817871094, -58.89212417602539, 0.24734236, -0.027133858, 0.18670464
418, 2350542674, -139.18751525878906, -81.33748626708984, -58.928653717041016, 0.8692353, 0.16108489, 0.039149284
419, 2350559341, -139.49085998535156, -81.52069091796875, -58.90898895263672, 1.0350715, -0.024120847, -0.020783424
420, 2350576008, -140.3285369873047, -81.66887664794922, -58.52896499633789, 0.23595017, -0.23457456, 0.15043736
421, 2350592675, -141.75352478027344, -81.69993591308594, -57.6147346496582, -0.072816625, -0.65144753, 0.42377663
422, 2350609342, -143.3872528076172, -81.67900085449219, -56.58517074584961, 0.36870167, -0.39506277, 0.24111366
423, 2350626009, -145.3072509765625, -81.6883773803711, -55.34122085571289, 0.90957516, 0.115668096, -0.5582628
424, 2350642676, -147.60043334960938, -81.6565170288086, -53.54481887817383, 1.0189313, 0.32568273, -0.78693295
425, 2350659343, -149.87599182128906, -81.53034973144531, -51.46378707885742, 1.2361405, 0.28619945, -0.17044258
426, 2350676010, -152.12429809570312, -81.31653594970703, -49.26211166381836, 1.2297893, 0.03181651, 0.2802906
427, 2350692677, -154.74693298339844, -81.00988006591797, -46.733314514160156, 0.9784065, -0.37651086, 0.11627197
428, 2350709344, -157.95913696289062, -80.57537078857422, -43.794212341308594, 1.2634565, -1.0431521, -0.15455818
429, 2350726011, -161.31263732910156, -80.03242492675781, -40.9346923828125, 0.97241646, -1.1446474, -0.28529835
430, 2350742678, -164.40843200683594, -79.39796447753906, -38.48630142211914, 0.6327843, -1.0190874, -0.36843395
431, 2350759345, -167.15670776367188, -78.76580047607422, -36.4879264831543, 0.22801094, -0.9515875, -0.15169525
432, 2350776012, -169.81597900390625, -78.1026611328125, -34.64392852783203, -0.4245571, -0.7227885, -0.18716526
433, 2350792679, -172.47006225585938, -77.40570068359375, -32.841209411621094, 0.04676986, -0.42615712, -0.40032673
434, 2350809346, -174.928955078125, -76.58587646484375, -31.15311050415039, 1.0005004, -0.20247558, -0.43940067
435, 2350826013, -177.08155822753906, -75.74588012695312, -29.60691261291504, 1.5491201, 0.70132196, -0.18227386
436, 2350842680, -178.7102813720703, -74.86969757080078, -28.187023162841797, 1.7197453, 0.9587804, -0.6133585
437, 2350859347, -179.8424072265625, -73.95464324951172, -26.84577178955078, 0.73589563, 0.48950857, -0.46744156
438, 2350876014, 179.03387451171875, -72.9572982788086, -25.52390480041504, -0.066718474, 0.27196375, -0.14101982
439, 2350892681, 177.86813354492188, -71.89063262939453, -24.25395965576172, -0.07134933, -0.43159547, -0.15742493
440, 2350909348, 176.7760009765625, -70.85570526123047, -23.228530883789062, -0.08426469, -0.44821706, -0.37722397
441, 2350926015, 175.88059997558594, -69.83879852294922, -22.48011016845703, -0.12476085, -0.5118228, -0.12543678
442, 2350942682, 175.1573028564453, -68.84014129638672, -21.853599548339844, -0.3995569, -0.14071324, -0.027445793
443, 2350959349, 174.54551696777344, -67.81575012207031, -21.284902572631836, 0.7974663, -0.05766612, -0.6662388
444, 2350976016, 174.33885192871094, -66.84943389892578, -20.87322998046875, 0.85292745, -0.09294507, -0.64403534
445, 2350992683, 174.56704711914062, -65.85543823242188, -20.669710159301758, -1.0707843, 0.15365621, 0.50643826
446, 2351009350, 174.7515106201172, -64.9178237915039, -20.538454055786133, -1.6016412, 0.24099658, 0.55743027
447, 2351026017, 174.68551635742188, -63.980621337890625, -20.518918991088867, -0.56175786, 0.7811376, -0.11917591
448, 2351042684, 174.69895935058594, -63.008487701416016, -20.474618911743164, 0.74010205, 0.5778577, -0.43729877
449, 2351059351, 174.8826446533203, -62.078250885009766, -20.350011825561523, -0.5705338, 0.8434824, 0.23122406
450, 2351076018, 175.10867309570312, -61.175899505615234, -20.204498291015625, -1.1128203, 0.8342216, 1.1796894
451, 2351092685, 175.4388885498047, -60.321712493896484, -20.119705200195312, -0.97037023, 0.4762871, 1.1188726
452, 2351109352, 175.8128662109375, -59.46512222290039, -20.079465866088867, -0.0727224, -0.32447168, 0.017762184
453, 2351126019, 176.19081115722656, -58.62274169921875, -20.06080436706543, -0.050639767, -1.2306921, -0.5914364
454, 2351142686, 176.4978485107422, -57.90083312988281, -20.160194396972656, -1.6713467, -1.2794061, 0.80084324
455, 2351159353, 176.6695098876953, -57.338111877441406, -20.387601852416992, -1.7208227, -0.91192394, 1.426506
456, 2351176020, 176.68701171875, -56.82759475708008, -20.646652221679688, -0.4783565, -0.14418218, 0.33381653
457, 2351192687, 176.77603149414062, -56.24846649169922, -20.908470153808594, 0.8329149, 0.3146784, -0.63227177
458, 2351209354, 177.20130920410156, -55.63697052001953, -21.168561935424805, 0.8711808, -0.15717934, -0.6112404
459, 2351226021, 177.7555694580078, -55.09798049926758, -21.46639633178711, -0.51292044, -0.00707195, 0.80315876
460, 2351242688, 178.22213745117188, -54.681705474853516, -21.829605102539062, -0.9102105, 0.27158725, 1.6976519
461, 2351259355, 178.4648895263672, -54.28972625732422, -22.037364959716797, -0.829324, 0.56048983, 0.4377489
462, 2351276022, 178.54917907714844, -53.78630447387695, -22.06990623474121, 0.109202124, 0.23987606, -0.817832
463, 2351292689, 178.63232421875, -53.27511978149414, -22.159439086914062, -0.014516454, -0.27303874, 0.07999325
464, 2351309356, 178.58070373535156, -52.89784240722656, -22.371910095214844, -0.517822, -0.044209186, 1.1188221
465, 2351326023, 178.45115661621094, -52.643218994140625, -22.58213996887207, -0.23209907, 0.35191742, 0.52286816
466, 2351342690, 178.458984375, -52.353424072265625, -22.74394416809082, -0.62824607, 0.97005373, 0.32181454
467, 2351359357, 178.58641052246094, -51.9862060546875, -22.814157485961914, 0.03545959, 0.29196095, -0.041627884
468, 2351376024, 178.63990783691406, -51.6294059753418, -22.853788375854492, -0.38441893, 0.26573226, 0.41809082
469, 2351392691, 178.53514099121094, -51.33123016357422, -22.898681640625, -0.32171395, 0.7540158, 0.4923334
470, 2351409358, 178.52392578125, -51.104679107666016, -22.932353973388672, -0.01315083, 1.0447086, 0.34660816
471, 2351426025, 178.7793426513672, -50.92340850830078, -22.95523452758789, -0.045883905, 0.4361438, 0.5846958
472, 2351442692, 179.00717163085938, -50.75474166870117, -22.885112762451172, -0.63067293, 0.38998893, 0.48083115
473, 2351459359, 179.08087158203125, -50.57635498046875, -22.76072120666504, -0.4953531, 0.31888494, 0.43693256
474, 2351476026, 179.02761840820312, -50.40890884399414, -22.64697265625, -0.26572007, 0.2656606, 0.37857533
475, 2351492693, 178.9220428466797, -50.275474548339844, -22.52006721496582, -0.49568623, 0.047128096, 0.41754436
476, 2351509360, 178.83236694335938, -50.224544525146484, -22.45137596130371, -0.45264128, -0.2102697, 0.81121826
477, 2351526027, 178.75462341308594, -50.26347351074219, -22.44141960144043, -0.59602624, -0.08143136, 0.8589573
478, 2351542694, 178.53822326660156, -50.29660415649414, -22.352340698242188, -0.54844755, 0.3682863, 0.15584564
479, 2351559361, 178.30825805664062, -50.304988861083984, -22.20960235595703, -0.13808551, 0.61969066, 0.23968697
480, 2351576028, 178.33340454101562, -50.377872467041016, -22.112197875976562, -0.15928367, 0.093100354, 0.80986214
481, 2351592695, 178.42979431152344, -50.516353607177734, -22.030479431152344, -0.5403979, -0.18075643, 0.64323044
482, 2351609362, 178.3961944580078, -50.678131103515625, -21.930065155029297, -0.7387725, -0.041085705, 0.38076305
483, 2351626029, 178.30029296875, -50.87382507324219, -21.855241775512695, -0.43510318, -0.33380687, 0.56634235
484, 2351642696, 178.11935424804688, -51.114559173583984, -21.800966262817383, -0.67358065, -0.25593066, 0.43018436
485, 2351659363, 177.90582275390625, -51.35137939453125, -21.762086868286133, -0.64048815, -0.2796293, 0.06124592
486, 2351676030, 177.7370147705078, -51.61398696899414, -21.793533325195312, -0.31739867, -0.05387411, 0.20625114
487, 2351692697, 177.5563507080078, -51.91904067993164, -21.850370407104492, -0.20334224, 0.4053636, 0.5164051
488, 2351709364, 177.45263671875, -52.240116119384766, -21.86981773376465, 0.060030427, 0.5979714, 0.36654472
489, 2351726031, 177.51820373535156, -52.55803680419922, -21.88088035583496, 0.10603219, 0.6155971, 0.34140682
490, 2351742698, 177.65859985351562, -52.91002655029297, -21.86883544921875, 0.027851222, 0.63210154, 0.49017525
491, 2351759365, 177.79811096191406, -53.27859115600586, -21.73600196838379, -0.31517598, 0.50292087, 0.14482689
492, 2351776032, 177.87408447265625, -53.637359619140625, -21.54843521118164, -0.29944208, 0.47322822, 0.14054394
493, 2351792699, 177.8468780517578, -54.015316009521484, -21.385892868041992, -0.076784626, 0.48818377, 0.5646763
494, 2351809366, 177.7855682373047, -54.451194763183594, -21.229488372802734, -0.12448448, -0.14285976, 0.81339455
495, 2351826033, 177.67160034179688, -54.97282791137695, -21.01259994506836, -1.0018349, -0.24297613, 0.74701595
496, 2351842700, 177.32901000976562, -55.5114860534668, -20.735471725463867, -1.2084556, 0.10552337, 0.2812147
497, 2351859367, 176.87457275390625, -56.04599380493164, -20.473926544189453, -0.66628647, 0.3502439, 0.16116047
498, 2351876034, 176.59707641601562, -56.61787414550781, -20.329174041748047, -0.40393513, 0.34151182, 0.71149063
499, 2351892701, 176.59629821777344, -57.27770233154297, -20.321090698242188, -0.17638008, -0.20117529, 1.0840883
500, 2351909368, 176.71913146972656, -58.07815933227539, -20.304134368896484, -0.71782714, -0.5120787, 0.9396057
501, 2351926035, 176.70352172851562, -58.91334533691406, -20.15854835510254, -1.4818491, 0.23920725, -0.0546484
502, 2351942702, 176.66818237304688, -59.684326171875, -20.015869140625, -1.2008646, 0.7068081, -0.16444016
503, 2351959369, 176.76678466796875, -60.48570251464844, -19.965070724487305, -0.6353089, 0.57497984, 0.4587803
504, 2351976036, 177.07656860351562, -61.39490509033203, -20.00581932067871, -0.44245014, 0.4361692, 0.8752413
505, 2351992703, 177.7062530517578, -62.42031478881836, -20.169292449951172, -0.6585157, -0.31895086, 1.1424856
506, 2352009370, 178.3925323486328, -63.593017578125, -20.454730987548828, -1.038132, -1.2327198, 1.3071423
507, 2352026037, 178.7136688232422, -64.88230895996094, -20.77003288269043, -2.4571471, -0.7398974, 0.41862488
508, 2352042704, 178.9633026123047, -66.14340209960938, -21.294897079467773, -2.9360695, -1.1756781E-4, -0.25819397
509, 2352059371, 179.42691040039062, -67.34133911132812, -22.180309295654297, -1.8918047, 0.27114743, -0.15231228
510, 2352076038, -179.7498016357422, -68.6061019897461, -23.37663459777832, -0.59470874, 0.48246595, 0.1752367
511, 2352092705, -178.31739807128906, -70.05323791503906, -24.942974090576172, 0.13929853, 0.41341913, 0.57579994
512, 2352109372, -176.28579711914062, -71.63285827636719, -26.966110229492188, -0.46393034, 0.267901, 0.93537235
513, 2352126039, -173.97503662109375, -73.28878021240234, -29.28160858154297, -1.307297, 0.23756136, -0.32384396
514, 2352142706, -171.6947784423828, -74.8552474975586, -31.66817283630371, -0.9167226, 1.0561727, -1.9804182
515, 2352159373, -169.3054656982422, -76.20045471191406, -34.15275192260742, 0.22462147, 1.2981963, -2.0462208
516, 2352176040, -166.34385681152344, -77.42780303955078, -37.01852035522461, 0.8126823, 0.6890999, -0.98802376
517, 2352192707, -162.48764038085938, -78.68453979492188, -40.52473831176758, 1.0287077, -0.38834018, -0.55284214
518, 2352209374, -157.87660217285156, -79.96903228759766, -44.84843826293945, 0.95376915, -0.83025074, -0.6680374
519, 2352226041, -152.9011688232422, -81.1668701171875, -49.842979431152344, 1.8745744, -0.95174116, -1.1522493
520, 2352242708, -147.82040405273438, -82.15237426757812, -55.18612289428711, 3.151767, -0.13267188, -1.6112194
521, 2352259375, -143.16055297851562, -82.78833770751953, -59.95399475097656, 3.704208, -0.29675865, -1.4205303
522, 2352276042, -138.79232788085938, -83.16671752929688, -64.12100982666016, 3.0688682, -0.7165408, -0.28161526
523, 2352292709, -134.44483947753906, -83.48175811767578, -68.0700454711914, 1.8607013, -0.75723815, 0.42731953
524, 2352309376, -130.2563018798828, -83.80891418457031, -72.11782836914062, 0.9707913, -1.1762209, 0.054068565
525, 2352326043, -126.99219512939453, -84.03961181640625, -75.55714416503906, 0.8393152, -1.1117767, -0.2471981
526, 2352342710, -125.1891860961914, -84.11913299560547, -77.58147430419922, 1.367364, -0.3375767, 0.16013432
527, 2352359377, -124.4530029296875, -84.12710571289062, -78.23673248291016, 1.8101786, 0.37838265, 0.67285633
528, 2352376044, -123.82876586914062, -84.15239715576172, -78.39486694335938, 1.8179903, 0.43818903, 0.5274582
529, 2352392711, -123.25020599365234, -84.16497802734375, -78.31572723388672, 1.3054496, -0.23035882, -0.14931679
530, 2352409378, -123.06531524658203, -84.138671875, -77.98219299316406, 0.16924384, -0.59165114, -0.46488762
531, 2352426045, -123.36432647705078, -84.07176208496094, -77.33404541015625, -0.80012083, -0.6674052, -0.16675568
532, 2352442712, -123.55162048339844, -84.01194763183594, -77.11285400390625, -0.8951646, -0.7351259, 0.26019478
533, 2352459379, -123.17877197265625, -83.96733093261719, -77.83600616455078, -0.8395203, -0.60454917, 0.29672146
534, 2352476046, -122.5404281616211, -83.9269790649414, -79.00474548339844, -0.4113012, -0.17683211, 0.11945057
535, 2352492713, -121.97443389892578, -83.89286041259766, -80.06974792480469, 0.18359657, 0.38813546, 0.0822916
536, 2352509380, -121.5981216430664, -83.87158203125, -80.75343322753906, 0.54535073, 0.71700233, 0.18328571
537, 2352526047, -121.34152221679688, -83.85490417480469, -81.06023406982422, 0.5103609, 0.55843496, 0.21826172
538, 2352542714, -121.08619689941406, -83.84467315673828, -81.17935943603516, 0.40687266, 0.012379433, 0.1930399
539, 2352559381, -120.90450286865234, -83.83238983154297, -81.211181640625, 0.15379775, -0.41128305, 0.13774109
540, 2352576048, -120.78502655029297, -83.79995727539062, -81.27837371826172, -0.06165451, -0.48893994, 0.21063137
541, 2352592715, -120.66402435302734, -83.75383758544922, -81.43771362304688, -0.07516714, -0.12352494, 0.3193903
542, 2352609382, -120.51980590820312, -83.71862030029297, -81.64256286621094, 0.15377425, 0.24076872, 0.2975645
543, 2352626049, -120.46965026855469, -83.68611145019531, -81.71912384033203, 0.34662983, 0.37156513, 0.12565708
544, 2352642716, -120.5681381225586, -83.63616943359375, -81.60816955566406, 0.26271266, 0.23067208, -0.04984379
545, 2352659383, -120.70702362060547, -83.58191680908203, -81.38021850585938, 0.1995072, 0.25803795, 0.09806538
546, 2352676050, -120.75613403320312, -83.54995727539062, -81.15145874023438, -0.030246612, 0.14997642, 0.1552124
547, 2352692717, -120.70904541015625, -83.5327377319336, -80.96665954589844, -0.23679075, 0.047254775, 0.1740799
548, 2352709384, -120.48081970214844, -83.51509094238281, -80.94438171386719, -0.1490933, 0.061851513, 0.23002434
549, 2352726051, -120.16659545898438, -83.49244689941406, -80.99567413330078, -0.009344979, -0.076785974, 0.2049923
550, 2352742718, -119.92271423339844, -83.4681396484375, -80.99268341064453, 0.06406278, -0.24420406, 0.20418262
551, 2352759385, -119.80760192871094, -83.4445571899414, -80.90660858154297, 0.14882128, -0.34791836, 0.14371967
552, 2352776052, -119.85606384277344, -83.41373443603516, -80.70263671875, 0.34440106, -0.38231617, 0.057027817
553, 2352792719, -120.1664047241211, -83.36481475830078, -80.28456115722656, 0.42633656, -0.31239265, 0.02763462
554, 2352809386, -120.7118911743164, -83.29869842529297, -79.6942138671875, 0.46928802, -0.16764276, 0.09874058
555, 2352826053, -121.47797393798828, -83.21907043457031, -78.92511749267578, 0.57109725, -0.11134449, 0.17159176
556, 2352842720, -122.5130615234375, -83.12833404541016, -77.91695404052734, 0.56799537, -0.06328015, 0.20184708
557, 2352859387, -123.79605865478516, -83.0265884399414, -76.65876007080078, 0.66212827, -0.12772234, 0.14130211
558, 2352876054, -125.36180114746094, -82.90909576416016, -75.09730529785156, 0.81180584, -0.04661916, 0.01651001
559, 2352892721, -127.21989440917969, -82.76747131347656, -73.20439147949219, 1.0097218, -0.15498741, -0.08444691
560, 2352909388, -129.37940979003906, -82.59422302246094, -70.96405792236328, 1.0984101, -0.1966948, -0.101314545
561, 2352926055, -131.83343505859375, -82.36666107177734, -68.38320922851562, 1.2215697, -0.42179817, -0.116716385
562, 2352942722, -134.55258178710938, -82.06372833251953, -65.54637145996094, 1.5069152, -0.7344376, -0.1515894
563, 2352959389, -137.54872131347656, -81.67330932617188, -62.545101165771484, 1.4680729, -0.8114938, -0.27828407
564, 2352976056, -140.8670654296875, -81.16978454589844, -59.31691360473633, 1.6234082, -0.5781518, -0.17553425
565, 2352992723, -144.46888732910156, -80.54780578613281, -55.824134826660156, 2.113351, -0.110585324, 0.047228813
566, 2353009390, -148.45993041992188, -79.86302185058594, -51.966121673583984, 2.068129, 0.6239748, -0.11888981
567, 2353026057, -152.58297729492188, -79.1015853881836, -47.92012405395508, 1.3752273, 1.0079175, -0.86228085
568, 2353042724, -156.50924682617188, -78.2349624633789, -43.96449279785156, 1.0881336, 0.77619094, -1.2170753
569, 2353059391, -160.039794921875, -77.26835632324219, -40.469173431396484, 0.94687253, 0.10001124, -0.9573231
570, 2353076058, -163.31944274902344, -76.1929931640625, -37.44196319580078, 0.20344733, -0.4665078, -0.15721035
571, 2353092725, -166.64833068847656, -75.09468078613281, -34.682579040527344, 0.16444868, -0.3124596, 0.2681017
572, 2353109392, -169.9797821044922, -73.99991607666016, -31.938982009887695, 0.96042603, 0.30244914, -0.08855152
573, 2353126059, -172.9992218017578, -72.84434509277344, -29.262313842773438, 0.72348964, 0.27628943, -1.1788626
574, 2353142726, -175.40318298339844, -71.56533813476562, -26.957815170288086, -0.03825465, 0.5226797, -1.5604849
575, 2353159393, -177.1329803466797, -70.21867370605469, -25.048097610473633, -0.15712158, 0.5642891, -1.2911186
576, 2353176060, -178.2824249267578, -68.89652252197266, -23.426959991455078, -0.05252817, -0.02299831, -0.74809456
577, 2353192727, -179.18228149414062, -67.59471893310547, -22.0721378326416, -0.76336074, -0.77975035, 0.0065546036
578, 2353209394, 179.99322509765625, -66.31452941894531, -21.06816291809082, -1.5186055, -1.0872142, 0.500062
579, 2353226061, 179.28472900390625, -65.06964111328125, -20.38250732421875, -1.3908284, -0.9439532, 0.06543732
580, 2353242728, 178.623779296875, -63.798789978027344, -19.9630069732666, -1.0316865, -0.44553855, -0.5866966
581, 2353259395, 178.07814025878906, -62.53266906738281, -19.65416717529297, -0.6442676, -0.013928601, -0.6733427
582, 2353276062, 177.59371948242188, -61.293853759765625, -19.36837387084961, -0.6023727, 0.9948099, -0.123874664
583, 2353292729, 177.2734375, -60.07908248901367, -19.062702178955078, 0.38067737, 1.0480397, 0.33035374
584, 2353309396, 177.1616668701172, -58.96318054199219, -18.767391204833984, -0.09516164, 0.46775004, 1.1744089
585, 2353326063, 177.13943481445312, -58.01902770996094, -18.435195922851562, -1.7704996, 0.22218473, 1.5965834
586, 2353342730, 177.04248046875, -57.13214874267578, -18.062482833862305, -1.9407862, 0.05768266, 0.8318176
587, 2353359397, 176.75048828125, -56.25529861450195, -17.73777961730957, -1.5343561, 0.056692943, 0.38054466
588, 2353376064, 176.31301879882812, -55.4583625793457, -17.4100399017334, -2.0893776, 0.5782967, 0.7515116
589, 2353392731, 176.02151489257812, -54.71152877807617, -17.140287399291992, -1.3015662, 0.044088714, 0.68891144
590, 2353409398, 176.02813720703125, -54.01708984375, -17.053773880004883, -0.4769758, -0.8720871, 0.73272896
591, 2353426065, 176.03724670410156, -53.48940658569336, -17.132631301879883, -1.2759975, -0.70468616, 1.2907591
592, 2353442732, 175.86380004882812, -53.060184478759766, -17.240922927856445, -0.9748443, -0.2334224, 1.0295238
593, 2353459399, 175.7205810546875, -52.679161071777344, -17.38324737548828, -0.6154908, 0.47929415, 1.0221167
594, 2353476066, 175.7224578857422, -52.280906677246094, -17.470420837402344, 0.16402182, 0.8112919, 0.14781761
595, 2353492733, 175.87026977539062, -51.87682342529297, -17.44025230407715, 0.114249006, 0.7443797, -0.0774107
596, 2353509400, 176.2415771484375, -51.54959487915039, -17.39672088623047, -0.4825115, 0.18743283, 0.5075674
597, 2353526067, 176.5778045654297, -51.317684173583984, -17.40074348449707, -1.0605243, 0.26245025, 1.0354528
598, 2353542734, 176.59120178222656, -51.149391174316406, -17.394250869750977, -0.61326087, 0.58635396, 0.8277416
599, 2353559401, 176.367431640625, -50.98059844970703, -17.2811222076416, -0.06582277, 0.602834, 0.3210392
600, 2353576068, 176.18348693847656, -50.83993148803711, -17.13260269165039, -0.09326933, -0.15890788, 0.36155415
601, 2353592735, 175.92955017089844, -50.77458190917969, -16.993818283081055, -0.7506147, -0.3366589, 0.57258034
602, 2353609402, 175.46751403808594, -50.75326919555664, -16.89434242248535, -0.37154675, -0.0790272, 0.24612808
603, 2353626069, 174.91908264160156, -50.715057373046875, -16.810691833496094, 0.17891102, 0.20041747, -0.1606369
604, 2353642736, 174.55406188964844, -50.659271240234375, -16.79153823852539, 0.45612687, 0.090770565, 0.22999477
605, 2353659403, 174.44036865234375, -50.656734466552734, -16.816638946533203, 0.04736051, 0.30341253, 0.56683254
606, 2353676070, 174.5347137451172, -50.63634490966797, -16.804689407348633, -0.07140722, 0.28239828, -0.053887367
607, 2353692737, 174.74415588378906, -50.547508239746094, -16.76534652709961, 0.144327, 0.045814008, -0.18736744
608, 2353709404, 174.8916473388672, -50.471946716308594, -16.73358917236328, -0.056575727, 0.24574943, 0.41871548
609, 2353726071, 175.04428100585938, -50.43903350830078, -16.69314956665039, -0.26242515, -0.022602636, 0.37042332
610, 2353742738, 175.240966796875, -50.40557098388672, -16.704320907592773, -0.34127146, -0.2748013, 0.14058304
611, 2353759405, 175.2929229736328, -50.36671829223633, -16.75855255126953, -0.07698194, -0.411191, 0.23514652
612, 2353776072, 175.12371826171875, -50.34367370605469, -16.7442626953125, -0.27638853, -0.18271698, 0.34015465
613, 2353792739, 174.96182250976562, -50.33186340332031, -16.741363525390625, -0.29837978, -0.28956434, 0.5532932
614, 2353809406, 174.8517608642578, -50.34532165527344, -16.801101684570312, -0.24275832, 0.01814657, 0.3462143
615, 2353826073, 174.74349975585938, -50.342037200927734, -16.810277938842773, -0.16521649, 0.60662246, -0.032058716
616, 2353842740, 174.85275268554688, -50.34496307373047, -16.814699172973633, 0.18381917, 0.6396825, 0.33153534
617, 2353859407, 175.28428649902344, -50.379920959472656, -16.866422653198242, -0.22195123, 0.010851889, 0.5482254
618, 2353876074, 175.68138122558594, -50.431068420410156, -16.91985321044922, -0.7462312, -0.12003316, 0.33400536
619, 2353892741, 175.8778533935547, -50.50541687011719, -16.96197509765625, -0.65356386, 0.1356295, 0.49823284
620, 2353909408, 175.99107360839844, -50.65727996826172, -17.00343894958496, -0.2391017, 0.045805406, 0.73793983
621, 2353926075, 176.07008361816406, -50.8438606262207, -17.046464920043945, -0.32442096, -0.118702084, 0.5094099
622, 2353942742, 175.98692321777344, -51.04612350463867, -17.072301864624023, -0.36739948, 0.37689626, 0.32180595
623, 2353959409, 175.88404846191406, -51.28066635131836, -17.062129974365234, -0.22682765, 0.63614553, 0.43586445
624, 2353976076, 175.93592834472656, -51.57913589477539, -17.073482513427734, -0.013640647, 0.39499164, 0.8037739
625, 2353992743, 176.07786560058594, -51.945438385009766, -17.094600677490234, -0.24700098, 0.31959906, 0.7483587
626, 2354009410, 176.1488800048828, -52.30238342285156, -16.974876403808594, -0.41836882, 0.45109603, 0.2916937
627, 2354026077, 176.07301330566406, -52.62461853027344, -16.61048698425293, -0.2811204, 0.24084158, 0.6949158
628, 2354042744, 175.91246032714844, -52.996883392333984, -16.125703811645508, -0.5569802, -0.46149257, 1.1503048
629, 2354059411, 175.88645935058594, -53.485408782958984, -16.021944046020508, -0.74178296, -1.1227431, 0.91499615
630, 2354076078, 175.78436279296875, -54.10914993286133, -16.11029624938965, -1.5884036, -0.53324926, 0.41116238
631, 2354092745, 175.65223693847656, -54.70703125, -16.304346084594727, -1.5779521, 0.052422058, -0.91696167
632, 2354109412, 175.61053466796875, -55.29243087768555, -16.626996994018555, -0.9162234, 0.5255348, -0.09811783
633, 2354126079, 175.76429748535156, -55.9758415222168, -16.975440979003906, -0.4180291, 0.57816005, 1.149415
634, 2354142746, 176.11862182617188, -56.80805587768555, -17.3421688079834, -0.24818791, 0.58219004, 1.5791931
635, 2354159413, 176.65794372558594, -57.77068328857422, -17.72840690612793, -0.116244845, 0.22255766, 1.124135
636, 2354176080, 177.2045135498047, -58.7602424621582, -18.024282455444336, -1.1475438, 0.29886225, 0.28108692
637, 2354192747, 177.712646484375, -59.686065673828125, -18.288511276245117, -1.565062, 0.15894783, -0.32761765
638, 2354209414, 178.19668579101562, -60.602413177490234, -18.69087791442871, -1.6499923, -0.02385889, 0.402915
639, 2354226081, 178.59811401367188, -61.64848327636719, -19.257747650146484, -1.5482417, 0.051012587, 1.0877514
640, 2354242748, 178.97848510742188, -62.866825103759766, -19.95228385925293, -1.0010608, 0.23553236, 1.0162687
641, 2354259415, 179.46424865722656, -64.19689178466797, -20.75669288635254, -0.31473872, 0.07740237, 0.66613674
642, 2354276082, -179.84814453125, -65.61808776855469, -21.689332962036133, -0.9901321, 0.1924108, 0.30705357
643, 2354292749, -178.96417236328125, -67.0123062133789, -22.778953552246094, -1.074132, 0.29110613, -0.70996284
644, 2354309416, -177.86880493164062, -68.33098602294922, -24.068199157714844, -0.94408375, 0.67203414, -0.57437897
645, 2354326083, -176.6321258544922, -69.64041900634766, -25.50429344177246, -0.5628379, 0.6302504, 0.044260025
646, 2354342750, -175.22320556640625, -71.02518463134766, -27.020666122436523, -0.3310016, 0.6132467, -0.2653122
647, 2354359417, -173.61813354492188, -72.43617248535156, -28.64580535888672, -0.012405444, 0.07971282, -0.98801136
648, 2354376084, -171.8330535888672, -73.77793884277344, -30.489728927612305, 0.37490186, -0.5336333, -1.245883
649, 2354392751, -169.85279846191406, -75.06240844726562, -32.66639709472656, 0.12913996, -0.48879528, -1.1329136
650, 2354409418, -167.6941680908203, -76.22894287109375, -35.15106201171875, 0.2710731, -0.52561, -0.99947834
651, 2354426085, -165.30397033691406, -77.29179382324219, -37.982452392578125, 0.8825148, -0.56141824, -0.59068584
652, 2354442752, -162.59910583496094, -78.31133270263672, -41.21342086791992, 0.8377573, -0.49257594, -0.29074
653, 2354459419, -159.4516143798828, -79.33256530761719, -44.93045425415039, 0.29287365, -0.069526054, -0.20697498
654, 2354476086, -155.9377899169922, -80.29672241210938, -49.13247299194336, 0.58486515, 0.03549151, -0.41626072
655, 2354492753, -152.14260864257812, -81.1166000366211, -53.6330451965332, 1.653448, 0.24698734, -0.5314598
656, 2354509420, -148.31301879882812, -81.76932525634766, -58.0689697265625, 2.3734775, 0.31007454, -0.4816103
657, 2354526087, -144.50924682617188, -82.28375244140625, -62.26312255859375, 2.4861863, -0.004378004, -0.34067917
658, 2354542754, -140.65870666503906, -82.69019317626953, -66.23361206054688, 1.3415723, -0.08219041, -0.21158314
659, 2354559421, -136.88819885253906, -83.04703521728516, -70.00328826904297, 1.3059958, 0.24842168, -0.033857346
660, 2354576088, -133.50741577148438, -83.37812805175781, -73.32806396484375, 1.8526907, -0.057028938, -0.12900734
661, 2354592755, -130.73641967773438, -83.61702728271484, -75.98828887939453, 1.3601134, -0.5789867, -0.49183273
662, 2354609422, -128.4764862060547, -83.74088287353516, -78.16263580322266, 0.6742415, -0.37990308, -0.2464714
663, 2354626089, -126.52420043945312, -83.82174682617188, -80.09190368652344, 0.8320487, -2.708977E-4, 0.335474
664, 2354642756, -124.96814727783203, -83.91201782226562, -81.60482025146484, 1.0102206, -0.2202195, 0.3297472
665, 2354659423, -123.86946868896484, -83.9799575805664, -82.70946502685547, 0.5888049, -0.64418375, 0.039105415
666, 2354676090, -123.13119506835938, -84.0049819946289, -83.62596130371094, 0.25271502, -0.7688623, -0.02990532
667, 2354692757, -122.70402526855469, -84.0318603515625, -84.39645385742188, 0.14344724, -0.39010665, -0.014422417
668, 2354709424, -122.62126922607422, -84.0758285522461, -84.8795166015625, 0.42991266, -0.06965759, 0.0626173
669, 2354726091, -122.54010772705078, -84.09904479980469, -85.2886734008789, 0.63108706, 0.071331255, 0.22714996
670, 2354742758, -122.59965515136719, -84.10478973388672, -85.43608093261719, 0.47101372, 0.38725877, 0.22050858
671, 2354759425, -123.0083999633789, -84.12664031982422, -85.09583282470703, 0.56066316, 0.48113802, 0.11210346
672, 2354776092, -123.55315399169922, -84.15162658691406, -84.4809799194336, 0.32710072, 0.34195587, 0.104273796
673, 2354792759, -123.94055938720703, -84.16521453857422, -83.91413116455078, 0.17158067, -0.01161893, 0.09139633
674, 2354809426, -124.24060821533203, -84.16454315185547, -83.3792495727539, -0.17892304, -0.09274256, 0.13251495
675, 2354826093, -124.49805450439453, -84.15798950195312, -82.89827728271484, -0.24162826, -0.16834526, 0.3079319
676, 2354842760, -124.55944061279297, -84.1529312133789, -82.66560363769531, -0.34207344, -0.077098444, 0.37897873
677, 2354859427, -124.41368865966797, -84.15420532226562, -82.6637191772461, -0.08859352, 0.0133454, 0.24860668
678, 2354876094, -124.12247467041016, -84.16377258300781, -82.78665924072266, 0.14367369, 0.1734508, 0.094638824
679, 2354892761, -123.94099426269531, -84.17513275146484, -82.77490997314453, 0.31201005, 0.23418659, 0.033133507
680, 2354909428, -123.76322174072266, -84.18099212646484, -82.75203704833984, 0.50192195, 0.14762427, 0.054668427
681, 2354926095, -123.67220306396484, -84.1797103881836, -82.6085205078125, 0.43822002, -0.104902565, 0.13106441
682, 2354942762, -123.71304321289062, -84.18372344970703, -82.3521957397461, 0.090056695, -0.1330215, 0.16754246
683, 2354959429, -123.87539672851562, -84.19623565673828, -82.02873229980469, -0.11987659, -0.13195652, 0.1954794
684, 2354976096, -123.89205169677734, -84.2109146118164, -81.91230773925781, -0.14073281, -0.122661784, 0.21854973
685, 2354992763, -123.9486083984375, -84.20958709716797, -81.7921142578125, 0.056405924, -0.0966042, 0.15217781
686, 2355009430, -124.35260009765625, -84.21063995361328, -81.30097961425781, 0.31889573, -0.013573998, 0.11728668
687, 2355026097, -125.01803588867188, -84.20732116699219, -80.4642105102539, 0.49138016, 0.010797688, 0.18568993
688, 2355042764, -125.61907958984375, -84.19491577148438, -79.608154296875, 0.36508656, -0.18995556, 0.16818333
689, 2355059431, -126.2117919921875, -84.17728424072266, -78.76631164550781, 0.07955944, -0.290289, 0.06415558
690, 2355076098, -126.94049835205078, -84.1500473022461, -77.88622283935547, -0.12863111, -0.22606575, 0.10116863
691, 2355092765, -127.67868041992188, -84.11064910888672, -77.0692138671875, 0.08608537, -0.15352222, 0.16213036
692, 2355109432, -128.5653076171875, -84.05907440185547, -76.11698150634766, 0.35561097, -0.09844913, 0.14818096
693, 2355126099, -129.64830017089844, -84.0020751953125, -74.9248046875, 0.46389514, 0.039337553, 0.19822025
694, 2355142766, -130.8874969482422, -83.93942260742188, -73.4933853149414, 0.5379149, 0.11867158, 0.18014717
695, 2355159433, -132.21461486816406, -83.86323547363281, -71.90025329589844, 0.5043914, 0.10103015, 0.09235382
696, 2355176100, -133.73867797851562, -83.76155853271484, -70.08853912353516, 0.34525785, 0.01433506, 0.06271839
697, 2355192767, -135.38986206054688, -83.63863372802734, -68.16114044189453, -0.02146638, -0.09219982, 0.14034176
698, 2355209434, -137.0828094482422, -83.50496673583984, -66.25858306884766, 0.12289466, -0.13691962, 0.16498661
699, 2355226101, -138.7694549560547, -83.35940551757812, -64.41393280029297, 0.5162727, -0.21629377, 0.087343216
700, 2355242768, -140.44772338867188, -83.18269348144531, -62.580535888671875, 0.42722237, -0.3430435, 0.04625702
701, 2355259435, -142.0966033935547, -82.98694610595703, -60.78947830200195, -0.022988811, -0.35512453, 0.13659096
702, 2355276102, -143.80340576171875, -82.78488159179688, -59.003662109375, 0.12745547, -0.3647084, 0.098843575
703, 2355292769, -145.61044311523438, -82.56230163574219, -57.19002914428711, 0.56231254, -0.37577406, -0.050635338
704, 2355309436, -147.45274353027344, -82.2858657836914, -55.359676361083984, 0.73569834, -0.07960922, -0.05946827
705, 2355326103, -149.45147705078125, -81.94402313232422, -53.267147064208984, 1.2958337, -0.015416527, -0.1414051
706, 2355342770, -151.65492248535156, -81.53759002685547, -50.84307861328125, 1.4603081, -0.41304675, -0.22255993
707, 2355359437, -153.77413940429688, -81.07498168945312, -48.48240280151367, 0.6237575, -0.7876282, -0.15359783
708, 2355376104, -155.77081298828125, -80.58527374267578, -46.40663528442383, -0.18167806, -0.6950471, 0.03651333
709, 2355392771, -157.93060302734375, -80.07744598388672, -44.459598541259766, 0.36988205, -0.32393712, -0.1627369
710, 2355409438, -160.52113342285156, -79.4605941772461, -42.25423812866211, 1.9710001, 0.046382736, -0.44032097
711, 2355426105, -163.4947052001953, -78.60770416259766, -39.52366256713867, 3.691147, -0.009211863, -0.7170925
712, 2355442772, -166.41305541992188, -77.53443145751953, -36.551456451416016, 3.8541636, 0.023935458, -0.7336788
713, 2355459439, -169.05145263671875, -76.34769439697266, -33.68904495239258, 2.464746, 0.5632181, -0.62079525
714, 2355476106, -171.54544067382812, -75.00113677978516, -30.879886627197266, 1.5030334, 1.0078623, -0.6450405
715, 2355492773, -173.68287658691406, -73.51100158691406, -28.263193130493164, 1.3974733, 0.7983554, -1.0122871
716, 2355509440, -175.34666442871094, -71.92247009277344, -25.949947357177734, 0.8138847, 0.20237215, -1.4418993
717, 2355526107, -176.77272033691406, -70.2789077758789, -23.901010513305664, -0.3121137, -0.07579358, -1.7205725
718, 2355542774, -178.06202697753906, -68.62995910644531, -22.13642120361328, -1.1383951, 0.1682596, -1.0311613
719, 2355559441, -179.28041076660156, -67.16639709472656, -20.596689224243164, -1.9983289, 0.27042526, 0.11991024
720, 2355576108, 179.6277313232422, -65.86661529541016, -19.217384338378906, -2.654425, -0.39221138, 0.56485367
721, 2355592775, 178.63511657714844, -64.6679458618164, -18.131990432739258, -1.8723834, -0.88466525, -0.10772705
722, 2355609442, 177.5851593017578, -63.37000274658203, -17.41042137145996, -0.76328903, -0.054631483, -0.70982456
723, 2355626109, 176.6758270263672, -61.922237396240234, -16.865882873535156, 0.84712917, 0.11973483, -0.5547981
724, 2355642776, 176.1595001220703, -60.589393615722656, -16.48731231689453, 0.042049933, 0.27734956, 0.18417454
725, 2355659443, 176.0279998779297, -59.3997802734375, -16.249418258666992, -1.1567178, -0.062131908, 0.6725435
726, 2355676110, 176.07530212402344, -58.26018142700195, -16.1201171875, -1.6669958, -0.65340173, 0.39101982
727, 2355692777, 175.9353485107422, -57.131160736083984, -16.061046600341797, -2.2229693, -0.29640377, 0.61695194
728, 2355709444, 175.51760864257812, -55.96326446533203, -15.972618103027344, -1.3944001, -0.3308963, 0.78187084
729, 2355726111, 175.17796325683594, -54.89318084716797, -15.933783531188965, -0.8859683, -0.21677025, 1.0708799
730, 2355742778, 175.0799102783203, -54.0441780090332, -16.047365188598633, -1.3560294, 0.4119455, 0.85744
731, 2355759445, 175.244140625, -53.33127975463867, -16.310396194458008, -0.7778152, 1.1984305, 0.3105564
732, 2355776112, 175.85494995117188, -52.616031646728516, -16.642234802246094, 0.42562068, 0.98089206, -0.090088844
733, 2355792779, 176.82652282714844, -51.68108367919922, -16.9606990814209, 1.4643623, -0.59862477, -0.6067829
734, 2355809446, 177.6124725341797, -50.735347747802734, -17.235309600830078, 0.31514364, -1.4763985, 0.48455906
735, 2355826113, 178.1096954345703, -50.0263786315918, -17.551847457885742, -1.5867122, -2.4730392, 1.7927828
736, 2355842780, 178.13174438476562, -49.51957702636719, -17.81155014038086, -3.1741514, -1.7008291, 1.6182194
737, 2355859447, 177.65945434570312, -49.01485824584961, -18.128498077392578, -2.010079, -0.26457116, 0.08963966
738, 2355876114, 177.01568603515625, -48.50292205810547, -18.56863784790039, -0.3344211, 0.7769542, 0.35698605
739, 2355892781, 176.48902893066406, -48.07408905029297, -19.006107330322266, 0.7165652, 1.1659604, 0.6200962
740, 2355909448, 176.304443359375, -47.74724578857422, -19.355710983276367, 0.47773692, 1.0687665, 0.4597683
741, 2355926115, 176.37838745117188, -47.44803237915039, -19.6142578125, 0.024538837, 1.5955396, 0.11957073
742, 2355942782, 176.7009735107422, -47.071617126464844, -19.767946243286133, -0.1100125, 1.8316346, -0.055974007
743, 2355959449, 177.2194366455078, -46.609230041503906, -19.831972122192383, 0.38366166, 0.9104878, 0.2577753
744, 2355976116, 177.59628295898438, -46.2122688293457, -19.80558204650879, -0.15808208, 0.86574775, 0.7599697
745, 2355992783, 177.80067443847656, -45.95332717895508, -19.7128849029541, -0.65106237, 0.45621732, 0.648571
746, 2356009450, 177.73001098632812, -45.77852249145508, -19.57729721069336, -0.78585696, 0.3737539, 0.5417948
747, 2356026117, 177.35585021972656, -45.644195556640625, -19.402313232421875, -0.6924826, 0.62005466, 0.8633537
748, 2356042784, 176.9350128173828, -45.51012420654297, -19.190967559814453, -0.36243737, 0.23612334, 0.7007351
749, 2356059451, 176.55503845214844, -45.404945373535156, -19.00484848022461, -0.30880582, -0.18132243, 0.81844234
750, 2356076118, 176.0765380859375, -45.36705780029297, -18.825077056884766, -0.7154066, 0.31914565, 0.64056396
751, 2356092785, 175.63113403320312, -45.313011169433594, -18.60064125061035, -0.323422, 0.4644991, 0.13087654
752, 2356109452, 175.46527099609375, -45.260250091552734, -18.4344482421875, 0.3087602, 0.08969234, 0.23311615
753, 2356126119, 175.5525360107422, -45.2813720703125, -18.331418991088867, -0.34663573, 0.011065791, 0.5337286
754, 2356142786, 175.69544982910156, -45.31658935546875, -18.22718048095703, -0.870882, -0.17366442, 0.35695553
755, 2356159453, 175.7582550048828, -45.377037048339844, -18.17368507385254, -0.3782194, -0.15350546, 0.84564686
756, 2356176120, 175.7626495361328, -45.47164535522461, -18.11746597290039, -0.28651795, 0.060592853, 0.5984001
757, 2356192787, 175.79058837890625, -45.56315994262695, -18.0222225189209, -0.5365532, 0.072563425, 0.21033669
758, 2356209454, 175.8118133544922, -45.67941665649414, -17.987871170043945, -0.30015442, 0.11986385, 0.39296722
759, 2356226121, 175.79135131835938, -45.885894775390625, -17.966672897338867, -0.115944915, 0.040468138, 0.772274
760, 2356242788, 175.7025146484375, -46.12897872924805, -17.870012283325195, -0.42670047, 0.09279431, 0.49863434
761, 2356259455, 175.5599365234375, -46.3455924987793, -17.74694061279297, -0.42108306, 0.19675806, 0.23442459
762, 2356276122, 175.4410400390625, -46.5740966796875, -17.63443946838379, -0.2300303, 0.29641092, 0.26341248
763, 2356292789, 175.3965301513672, -46.84161376953125, -17.5299072265625, -0.17365155, 0.17662033, 0.532074
764, 2356309456, 175.43035888671875, -47.182674407958984, -17.419790267944336, -0.3378855, 0.043477573, 0.6123514
765, 2356326123, 175.44749450683594, -47.54384231567383, -17.290254592895508, -0.6250865, 0.24382252, 0.41099548
766, 2356342790, 175.4725341796875, -47.94093322753906, -17.150392532348633, -0.8213132, 0.12365938, 0.51571846
767, 2356359457, 175.50315856933594, -48.387123107910156, -17.04047203063965, -0.8405163, 0.03078578, 0.820137
768, 2356376124, 175.52381896972656, -48.91408157348633, -17.000211715698242, -0.62080187, 0.10352908, 1.089922
769, 2356392791, 175.4934539794922, -49.5386848449707, -16.986936569213867, -0.091537036, 0.106751464, 0.82258415
770, 2356409458, 175.47311401367188, -50.233665466308594, -16.877981185913086, -0.88389456, 0.48579216, 0.72020817
771, 2356426125, 175.50259399414062, -50.9039306640625, -16.687252044677734, -0.93258244, 0.41492414, 6.67572E-5
772, 2356442792, 175.57705688476562, -51.56772232055664, -16.526113510131836, -0.7379421, 0.26501334, 0.2792225
773, 2356459459, 175.65728759765625, -52.32082748413086, -16.42982292175293, -0.8122889, 0.031573888, 1.041112
774, 2356476126, 175.70281982421875, -53.197818756103516, -16.384937286376953, -0.7826611, 0.1293664, 1.311655
775, 2356492793, 175.73236083984375, -54.18059158325195, -16.376535415649414, -0.32731304, -0.049687155, 0.8245592
776, 2356509460, 175.8283233642578, -55.232810974121094, -16.319896697998047, -0.9230346, -0.28552538, 0.30510235
777, 2356526127, 175.96658325195312, -56.2657585144043, -16.23885726928711, -1.6369781, -0.19383748, -0.119776726
778, 2356542794, 176.12815856933594, -57.28845977783203, -16.30844497680664, -1.2485304, -0.21206217, 0.09288025
779, 2356559461, 176.36392211914062, -58.43840789794922, -16.60563087463379, -0.9108806, -0.1778136, 1.0643969
780, 2356576128, 176.7771759033203, -59.76082992553711, -17.09502410888672, -0.83514017, -0.18996646, 1.2518501
781, 2356592795, 177.335693359375, -61.18692398071289, -17.74069595336914, -0.2747938, -0.56645733, 0.71755695
782, 2356609462, 177.95748901367188, -62.67862319946289, -18.495811462402344, -1.3742199, -0.31269, 0.11652851
783, 2356626129, 178.6714630126953, -64.1388931274414, -19.3763427734375, -1.800341, 0.10615145, -0.62690544
784, 2356642796, 179.56605529785156, -65.52265930175781, -20.43536949157715, -1.4724673, 0.5444755, -0.47624874
785, 2356659463, -179.26412963867188, -66.91210174560547, -21.708526611328125, -1.1299877, 0.69064915, 0.24531555
786, 2356676130, -177.793701171875, -68.3778305053711, -23.155824661254883, -0.45553502, 0.53439045, 0.24465847
787, 2356692797, -176.1677703857422, -69.91801452636719, -24.777721405029297, -0.23269832, 0.24271707, -0.16969967
788, 2356709464, -174.51119995117188, -71.54640197753906, -26.577911376953125, -0.9677171, 0.31460297, -0.71538067
789, 2356726131, -172.69332885742188, -73.09150695800781, -28.58310317993164, -0.725878, 0.3443477, -1.3992643
790, 2356742798, -170.6631622314453, -74.52025604248047, -30.860515594482422, 0.14989771, 0.16486596, -1.4824743
791, 2356759465, -168.18983459472656, -75.87276458740234, -33.585880279541016, 0.21278238, -0.5419724, -1.043889
792, 2356776132, -165.14515686035156, -77.18205261230469, -36.9460334777832, 0.16796449, -0.8318597, -0.5155401
793, 2356792799, -161.90460205078125, -78.49481201171875, -40.96352005004883, 1.6941117, -0.7941143, -0.6927023
794, 2356809466, -158.58457946777344, -79.6996841430664, -45.34298324584961, 2.246484, 0.43096757, -1.3210192
795, 2356826133, -155.11871337890625, -80.6125717163086, -49.53630447387695, 3.5440521, 0.31133136, -1.7558079
796, 2356842800, -151.267822265625, -81.23554229736328, -53.63998031616211, 3.3244534, 0.13565363, -1.060998
797, 2356859467, -147.281982421875, -81.69046020507812, -57.42301940917969, 2.2304685, -0.02235448, -0.017879486
798, 2356876134, -143.46788024902344, -82.13239288330078, -60.884490966796875, 1.3684326, 0.027195996, 0.3539772
799, 2356892801, -139.9991912841797, -82.57193756103516, -64.06060791015625, 0.7528569, -0.46099272, 0.13854408
800, 2356909468, -136.67135620117188, -82.93439483642578, -67.30618286132812, 0.3440473, -0.74270004, -0.057673454
801, 2356926135, -133.4683380126953, -83.16864013671875, -70.56966400146484, 0.58898, -0.39575282, 0.08165741
802, 2356942802, -130.2755584716797, -83.31208801269531, -73.8119888305664, 1.2418875, -0.036951665, 0.26228714
803, 2356959469, -127.38525390625, -83.41215515136719, -76.52970886230469, 1.4611357, 0.11725808, 0.09916496
804, 2356976136, -125.01814270019531, -83.46805572509766, -78.51952362060547, 1.529207, -0.05902128, -0.13468266
805, 2356992803, -123.27296447753906, -83.47740173339844, -79.82266235351562, 1.1413811, -0.4066326, -0.18955612
806, 2357009470, -122.0573959350586, -83.46883392333984, -80.64998626708984, 0.63381386, -0.4963221, -0.08082199
807, 2357026137, -121.2402572631836, -83.46073150634766, -81.24132537841797, 0.15993516, -0.36587295, -0.06959438
808, 2357042804, -120.63872528076172, -83.4527587890625, -81.83695220947266, 0.013176871, -0.31702027, 0.04026985
809, 2357059471, -120.02916717529297, -83.45738220214844, -82.69344329833984, 0.184177, -0.49387312, 0.12476826
810, 2357076138, -119.5514144897461, -83.4677505493164, -83.63526153564453, 0.09814493, -0.3112498, 0.054955482
811, 2357092805, -119.29833984375, -83.46585845947266, -84.36917114257812, 0.36835703, 0.06591475, 0.033438683
812, 2357109472, -119.18673706054688, -83.45150756835938, -84.82923889160156, 0.5213337, 0.41905406, 0.11322498
813, 2357126139, -119.27458190917969, -83.4478759765625, -84.88336181640625, 0.4181859, 0.4882599, 0.22328663
814, 2357142806, -119.43118286132812, -83.4580078125, -84.69586944580078, 0.14512171, 0.26648107, 0.25613976
815, 2357159473, -119.49729919433594, -83.45477294921875, -84.5185546875, 0.08292075, 0.07589969, 0.31566048
816, 2357176140, -119.49385833740234, -83.44324493408203, -84.40975952148438, 0.038611863, -0.09823266, 0.25280952
817, 2357192807, -119.51246643066406, -83.42344665527344, -84.28834533691406, -0.1140858, -0.060020883, 0.18394375
818, 2357209474, -119.46491241455078, -83.39865112304688, -84.232666015625, 0.030268837, 0.10125254, 0.15664864
819, 2357226141, -119.3968276977539, -83.37158203125, -84.16687774658203, 0.26781932, 0.25552207, 0.15067863
820, 2357242808, -119.41863250732422, -83.3528823852539, -83.9442138671875, 0.23811819, 0.2528977, 0.110414505
821, 2357259475, -119.54808044433594, -83.34303283691406, -83.58199310302734, 0.21123572, 0.1361742, 0.15272331
822, 2357276142, -119.7681884765625, -83.34583282470703, -83.14794158935547, 0.09500984, -0.047688443, 0.16173649
823, 2357292809, -119.99066162109375, -83.35801696777344, -82.76387023925781, -0.026485238, -0.099003054, 0.1357975
824, 2357309476, -120.1974105834961, -83.36984252929688, -82.46575164794922, -0.06014228, -0.1007483, 0.0925169
825, 2357326143, -120.47162628173828, -83.37724304199219, -82.17052459716797, 0.09574165, -0.06026021, 0.08654404
826, 2357342810, -120.89212036132812, -83.38633728027344, -81.7716064453125, 0.3134632, -0.09675747, 0.17300415
827, 2357359477, -121.4161376953125, -83.3966293334961, -81.28570556640625, 0.29009774, -0.1226605, 0.20134068
828, 2357376144, -122.00994110107422, -83.40361785888672, -80.72673034667969, 0.28081286, -0.14647213, 0.12829876
829, 2357392811, -122.70631408691406, -83.406982421875, -80.07715606689453, 0.23756142, -0.13060337, 0.05824375
830, 2357409478, -123.55958557128906, -83.4001693725586, -79.29031372070312, 0.27860984, -0.113101855, 0.11690235
831, 2357426145, -124.64112091064453, -83.36673736572266, -78.28153991699219, 0.66600597, 0.037832584, 0.32942104
832, 2357442812, -126.03347778320312, -83.31797790527344, -76.89093017578125, 1.3460428, -0.011962637, 0.36254787
833, 2357459479, -127.85855865478516, -83.25232696533203, -74.94273376464844, 1.516536, -0.65337163, -0.09414196
834, 2357476146, -130.3048858642578, -83.12467956542969, -72.40735626220703, 1.2025049, -1.0128337, -0.49564838
835, 2357492813, -133.246337890625, -82.91454315185547, -69.52099609375, 0.7881175, -0.56522006, -0.27075958
836, 2357509480, -136.46214294433594, -82.64878845214844, -66.39093017578125, 0.8361558, -0.111545205, 0.07504177
837, 2357526147, -139.7936248779297, -82.34332275390625, -63.0871467590332, 0.884915, -0.0752562, 0.07365322
838, 2357542814, -143.13697814941406, -81.97745513916016, -59.74998474121094, 0.23349503, -0.17252026, 0.028383255
839, 2357559481, -146.27711486816406, -81.58104705810547, -56.674808502197266, -0.21925972, 0.028652964, 0.09146595
840, 2357576148, -149.25633239746094, -81.17093658447266, -53.83548355102539, 0.054444276, 0.06472846, -0.068777084
841, 2357592815, -152.21385192871094, -80.7397232055664, -51.139503479003906, 0.8095624, -0.29373252, -0.09846687
842, 2357609482, -155.05958557128906, -80.30123901367188, -48.65057373046875, 0.11026725, 0.026267074, -0.1638794
843, 2357626149, -158.00711059570312, -79.77359008789062, -46.06858444213867, 0.8907523, 0.26362678, -0.3913231
844, 2357642816, -161.00729370117188, -79.18368530273438, -43.51456069946289, 1.5896864, 0.0271566, -0.6063452
845, 2357659483, -164.31808471679688, -78.45631408691406, -40.70431900024414, 1.940682, -0.76701206, -0.6827841
846, 2357676150, -167.74658203125, -77.58009338378906, -37.882564544677734, 1.9132224, -0.8720127, -0.52422905
847, 2357692817, -171.20399475097656, -76.6057357788086, -34.84474563598633, 1.124236, -0.4577075, -0.41629982
848, 2357709484, -174.48960876464844, -75.46814727783203, -31.75503921508789, 0.48099607, -0.14001846, -0.8893862
849, 2357726151, -177.20249938964844, -74.1467056274414, -29.06378746032715, -0.54236066, 0.859676, -1.101059
850, 2357742818, -179.36270141601562, -72.66509246826172, -26.86608123779297, -0.22009055, 0.5544859, -1.0523071
851, 2357759485, 178.8695068359375, -71.09053802490234, -25.080373764038086, 0.6160308, 0.28612646, -0.76712227
852, 2357776152, 177.46449279785156, -69.57286834716797, -23.64955711364746, 0.71258366, 0.15174742, -0.03465748
853, 2357792819, 176.23936462402344, -68.2030258178711, -22.395824432373047, 0.6320117, 0.38798425, 0.2849083
854, 2357809486, 175.24349975585938, -66.96041107177734, -21.217304229736328, -0.009450365, 0.8404728, -0.14111233
855, 2357826153, 174.49795532226562, -65.70446014404297, -20.1655216217041, -0.38188797, 1.0385804, -1.3968544
856, 2357842820, 174.00857543945312, -64.28080749511719, -19.229785919189453, -0.018804954, 0.42711034, -1.2039509
857, 2357859487, 173.70228576660156, -62.788822174072266, -18.349287033081055, -0.2838759, -0.31002945, -0.29053974
858, 2357876154, 173.5354766845703, -61.373252868652344, -17.623708724975586, 0.007949937, -1.2262174, 0.581769
859, 2357892821, 173.45262145996094, -60.24537658691406, -17.11722183227539, -1.6038461, -0.39325964, 1.4228458
860, 2357909488, 173.40321350097656, -59.200008392333984, -16.862051010131836, -1.6464746, -0.2931302, 1.5520706
861, 2357926155, 173.50755310058594, -58.2249870300293, -16.75083351135254, -1.5672435, -0.41005462, -0.006948471
862, 2357942822, 173.4841766357422, -57.11880874633789, -16.702865600585938, -1.5118742, -0.023159295, -1.1159334
863, 2357959489, 173.42674255371094, -55.92116928100586, -16.749696731567383, 0.26623532, -0.21779639, -0.7808428
864, 2357976156, 173.45578002929688, -54.84585952758789, -16.908361434936523, 0.4125939, 0.07914348, 1.1750956
865, 2357992823, 173.4487762451172, -53.994083404541016, -16.976163864135742, 0.8886389, 0.3708151, 1.5760975
866, 2358009490, 173.73748779296875, -53.26191711425781, -17.03411865234375, -0.15287453, 0.3200076, 0.6047344
867, 2358026157, 174.4190216064453, -52.49773406982422, -17.15114402770996, -1.4193244, -0.7912932, -0.22526073
868, 2358042824, 174.865478515625, -51.6090087890625, -17.25725746154785, -3.1095304, -0.7772993, -0.26618767
869, 2358059491, 174.6476593017578, -50.674137115478516, -17.364534378051758, -2.5939162, -0.37180543, 1.0801067
870, 2358076158, 174.1591033935547, -49.94081497192383, -17.519163131713867, -0.72552204, 0.3667194, 1.7891521
871, 2358092825, 173.9529266357422, -49.45439147949219, -17.794513702392578, 0.33845446, 1.0389062, 1.090044
872, 2358109492, 174.1961669921875, -49.052608489990234, -18.05343246459961, 0.1512021, 0.7828587, -0.15005016
873, 2358126159, 174.63917541503906, -48.601558685302734, -18.236112594604492, -0.7446702, 0.30718017, -0.033780098
874, 2358142826, 174.940673828125, -48.10255432128906, -18.310527801513672, -0.84695005, 0.03721502, 0.81378746
875, 2358159493, 175.07833862304688, -47.616432189941406, -18.366680145263672, -0.34183234, 0.07004192, 1.3259802
876, 2358176160, 175.1514129638672, -47.234100341796875, -18.471912384033203, -0.21796377, 0.6026498, 0.9173727
877, 2358192827, 175.25718688964844, -46.892024993896484, -18.53850746154785, -0.2336418, 0.5775075, -0.10819054
878, 2358209494, 175.4716796875, -46.58634567260742, -18.574460983276367, -0.2752061, 0.256279, 0.18530273
879, 2358226161, 175.5989227294922, -46.32667541503906, -18.56377410888672, -0.31265017, 0.6041893, 0.36467838
880, 2358242828, 175.73434448242188, -46.11289596557617, -18.534835815429688, -0.50534296, 0.5238738, 0.8195877
881, 2358259495, 175.85276794433594, -45.93741989135742, -18.558731079101562, -0.33708397, 0.040187854, 1.2478838
882, 2358276162, 175.84642028808594, -45.81229019165039, -18.556087493896484, -0.4441133, -0.07045128, 0.7078953
883, 2358292829, 175.63568115234375, -45.64690017700195, -18.42171287536621, -0.55316114, 0.41695017, -0.23998547
884, 2358309496, 175.46255493164062, -45.47965621948242, -18.279491424560547, -0.046766292, 0.4281052, 0.09460068
885, 2358326163, 175.4932098388672, -45.43037033081055, -18.209640502929688, -0.014154866, 0.5032442, 0.6501684
886, 2358342830, 175.76353454589844, -45.42222595214844, -18.185224533081055, -0.41841596, 0.08225791, 0.2448225
887, 2358359497, 175.97557067871094, -45.36186981201172, -18.146839141845703, -0.5094878, -0.22821617, 0.012964249
888, 2358376164, 175.94256591796875, -45.29033660888672, -18.083189010620117, -0.21204129, -0.40511867, 0.47504234
889, 2358392831, 175.73304748535156, -45.271114349365234, -17.973447799682617, -0.29587218, 0.0010953252, 0.75410557
890, 2358409498, 175.5644989013672, -45.29505157470703, -17.867542266845703, -0.4660899, 0.33860978, 0.67675495
891, 2358426165, 175.50115966796875, -45.355873107910156, -17.808780670166016, -0.2501883, 0.43566224, 0.60244846
892, 2358442832, 175.5020751953125, -45.44683074951172, -17.76601219177246, -0.42167243, 0.2043461, 0.5121803
893, 2358459499, 175.46803283691406, -45.55063247680664, -17.70134735107422, -0.6243221, -0.035817727, 0.4233656
894, 2358476166, 175.4415740966797, -45.69994354248047, -17.654054641723633, -0.5991847, -0.22410716, 0.5943308
895, 2358492833, 175.4515380859375, -45.930885314941406, -17.67066764831543, -0.37532553, -0.2476438, 0.71355057
896, 2358509500, 175.5060272216797, -46.227821350097656, -17.731056213378906, -0.36230204, -0.11852037, 0.60057163
897, 2358526167, 175.5681915283203, -46.544151306152344, -17.783540725708008, -0.47012687, 0.21339011, 0.3565979
898, 2358542834, 175.68650817871094, -46.86503982543945, -17.83592987060547, -0.32455376, 0.2415457, 0.3895378
899, 2358559501, 175.929443359375, -47.25279235839844, -17.897705078125, -0.5266779, 0.04850734, 0.78011227
900, 2358576168, 176.1265869140625, -47.681575775146484, -17.954978942871094, -0.6871319, 0.059310727, 0.6556072
901, 2358592835, 176.2154541015625, -48.16391372680664, -18.00307273864746, -0.757244, 0.3524933, 0.7214985
902, 2358609502, 176.2762451171875, -48.72348403930664, -18.037506103515625, -0.70778215, 0.49931264, 0.76240826
903, 2358626169, 176.40267944335938, -49.3654670715332, -18.081247329711914, -0.8939268, 0.45095414, 1.049139
904, 2358642836, 176.597900390625, -50.0861930847168, -18.144790649414062, -0.8356807, 0.07022241, 0.98608875
905, 2358659503, 176.73988342285156, -50.849815368652344, -18.185876846313477, -0.8117432, 0.1610741, 0.71582603
906, 2358676170, 176.76797485351562, -51.642051696777344, -18.177722930908203, -0.7888447, 0.35080653, 0.4004097
907, 2358692837, 176.81735229492188, -52.47728729248047, -18.163877487182617, -0.91103256, 0.34896752, 0.4068308
908, 2358709504, 177.03436279296875, -53.3908805847168, -18.250391006469727, -0.9220608, 0.112884104, 0.74790287
909, 2358726171, 177.38616943359375, -54.42110061645508, -18.455768585205078, -1.0773427, -0.03089072, 0.9129667
910, 2358742838, 177.76889038085938, -55.53681564331055, -18.711347579956055, -1.2144092, 0.065034, 0.77510166
911, 2358759505, 178.19131469726562, -56.696022033691406, -19.005952835083008, -1.1205829, -0.029217614, 0.55395985
912, 2358776172, 178.6659698486328, -57.872718811035156, -19.352733612060547, -0.96391505, 0.05865321, 0.49714756
913, 2358792839, 179.2866973876953, -59.121700286865234, -19.82341957092285, -1.201035, -0.06492917, 0.48953342
914, 2358809506, -179.9309844970703, -60.45814514160156, -20.469585418701172, -1.6261853, -0.31264773, 0.57467175
915, 2358826173, -179.08851623535156, -61.876747131347656, -21.293310165405273, -1.7330757, -0.05149448, 0.61397076
916, 2358842840, -178.163818359375, -63.367061614990234, -22.29688262939453, -1.4184415, 0.27936175, 0.49372292
917, 2358859507, -177.08436584472656, -64.91273498535156, -23.470844268798828, -1.2578565, 0.52879125, 0.29037
918, 2358876174, -175.7564697265625, -66.49346160888672, -24.835018157958984, -1.3083442, 0.693526, 0.08230877
919, 2358892841, -174.09071350097656, -68.08495330810547, -26.432842254638672, -1.0543808, 0.7001827, -0.54067135
920, 2358909508, -172.02772521972656, -69.61454772949219, -28.305715560913086, -0.5474252, 0.7215829, -0.84506893
921, 2358926175, -169.6232452392578, -71.1172866821289, -30.47879409790039, -0.19776212, 0.53287303, -1.0615072
922, 2358942842, -167.01173400878906, -72.61070251464844, -32.92328643798828, 0.025239397, 0.055904835, -1.1761818
923, 2358959509, -164.29428100585938, -74.0823974609375, -35.604103088378906, -0.07770363, 0.11533615, -1.0337973
924, 2358976176, -161.33694458007812, -75.50323486328125, -38.546119689941406, 0.5263211, 0.120757766, -1.3159714
925, 2358992843, -158.0500946044922, -76.84310913085938, -41.789852142333984, 1.4021828, 0.06285162, -1.6461668
926, 2359009510, -154.40943908691406, -78.03020477294922, -45.4078483581543, 1.8916024, -0.07685873, -1.591608
927, 2359026177, -150.23910522460938, -79.05614471435547, -49.4815559387207, 2.0810473, -0.5770326, -1.0439053
928, 2359042844, -145.6395721435547, -79.9417953491211, -54.005126953125, 1.8793296, -0.815953, -0.45176792
929, 2359059511, -141.15283203125, -80.73210906982422, -58.70391845703125, 1.4904653, -0.7339819, -0.14332199
930, 2359076178, -136.62078857421875, -81.41093444824219, -63.576351165771484, 1.5857998, -0.5763155, -0.480649
931, 2359092845, -131.90908813476562, -81.93070220947266, -68.54752349853516, 1.8842927, -0.32786524, -0.6930609
932, 2359109512, -127.4715347290039, -82.28174591064453, -73.07392883300781, 1.7443728, -0.038285814, -0.29192734
933, 2359126179, -123.44709014892578, -82.54380798339844, -76.9912338256836, 1.4363894, 0.20355476, 0.22578812
934, 2359142846, -119.73600769042969, -82.7712173461914, -80.45077514648438, 1.490503, -0.011726971, 0.1451273
935, 2359159513, -116.4527587890625, -82.94261169433594, -83.50025177001953, 1.1654683, -0.4231377, -0.12078953
936, 2359176180, -113.78730010986328, -83.02399444580078, -86.02255249023438, 0.9020624, -0.59943646, -0.107278824
937, 2359192847, -111.41655731201172, -83.05412292480469, -88.21768951416016, 1.0567786, -0.55002016, 0.09127903
938, 2359209514, -109.59044647216797, -83.07615661621094, -89.92488098144531, 1.3610933, -0.492574, 0.0033569336
939, 2359226181, -108.52871704101562, -83.07379913330078, -91.02528381347656, 1.3066103, -0.6279075, -0.03320408
940, 2359242848, -108.1473159790039, -83.03933715820312, -91.56185913085938, 1.1676776, -0.76658463, -0.008195877
941, 2359259515, -108.16105651855469, -82.98616790771484, -91.85627746582031, 0.86055595, -0.49106953, 0.09049225
942, 2359276182, -108.4869384765625, -82.92920684814453, -91.97767639160156, 0.7024068, -0.1835086, 0.26744556
943, 2359292849, -109.13372039794922, -82.88655090332031, -91.79930877685547, 0.48432854, 0.054840803, 0.2191782
944, 2359309516, -110.03961181640625, -82.8533706665039, -91.2811050415039, 0.33193088, 0.06958981, 0.11182499
945, 2359326183, -110.96698760986328, -82.8172836303711, -90.63316345214844, 0.06055277, 0.34732145, 0.21125793
946, 2359342850, -111.6413345336914, -82.79045867919922, -90.06327056884766, -0.15369765, 0.4656177, 0.27156162
947, 2359359517, -112.14360809326172, -82.78085327148438, -89.4993667602539, -0.3165178, 0.30849358, 0.13829422
948, 2359376184, -112.59022521972656, -82.77005004882812, -88.91230773925781, -0.3867621, 0.08712938, 0.11358261
949, 2359392851, -112.8606185913086, -82.74732208251953, -88.48804473876953, -0.29969016, -0.05829475, 0.24379826
950, 2359409518, -113.0553207397461, -82.7259750366211, -88.19371032714844, -0.21070193, 0.19815888, 0.26750946
951, 2359426185, -113.16574096679688, -82.72630310058594, -88.00564575195312, -0.020257503, 0.40313667, 0.10445976
952, 2359442852, -113.31475067138672, -82.7313461303711, -87.79393768310547, 0.02268046, 0.16537064, -0.022566795
953, 2359459519, -113.56741333007812, -82.72028350830078, -87.55171966552734, 0.008128119, -0.19196506, 0.15718365
954, 2359476186, -113.77851104736328, -82.70453643798828, -87.43980407714844, 0.087018766, -0.39848003, 0.27367592
955, 2359492853, -114.04131317138672, -82.69951629638672, -87.33871459960938, 0.14516616, -0.3099097, 0.22006512
956, 2359509520, -114.37683868408203, -82.70292663574219, -87.15568542480469, 0.0847948, -0.023649627, 0.08723736
957, 2359526187, -114.68968200683594, -82.7058334350586, -86.91769409179688, -0.14506626, 0.47166687, 0.08685017
958, 2359542854, -114.77950286865234, -82.72325134277344, -86.77421569824219, -0.37864363, 0.5912471, 0.16175747
959, 2359559521, -114.61058807373047, -82.7552490234375, -86.83573150634766, -0.6089945, 0.19003971, 0.2291193
960, 2359576188, -114.23937225341797, -82.78759765625, -87.1895523071289, -0.6429689, -0.21990892, 0.29001904
961, 2359592855, -113.64498138427734, -82.81294250488281, -87.90050506591797, -0.4559101, -0.3732904, 0.27325535
962, 2359609522, -112.95155334472656, -82.83177185058594, -88.81237030029297, -0.16946977, -0.19985114, 0.22110939
963, 2359626189, -112.29743957519531, -82.841796875, -89.69821166992188, 0.12579136, 0.13504155, 0.18618011
964, 2359642856, -111.7052001953125, -82.85350799560547, -90.4453353881836, 0.27980825, 0.32009238, 0.14348221
965, 2359659523, -111.23102569580078, -82.86557006835938, -90.99272155761719, 0.17113976, 0.2657574, 0.12215996
966, 2359676190, -110.7900161743164, -82.89066314697266, -91.44143676757812, 0.10148818, 0.18257315, 0.15148258
967, 2359692857, -110.27182006835938, -82.93842315673828, -91.96566009521484, 0.09496001, 0.1284971, 0.13633919
968, 2359709524, -109.8416519165039, -82.98681640625, -92.43290710449219, 0.07542373, 0.026249474, 0.2332573
969, 2359726191, -109.41885375976562, -83.0335693359375, -92.9090805053711, 0.024608525, 0.021933606, 0.2985115
970, 2359742858, -108.89691925048828, -83.0815658569336, -93.50411224365234, -0.048069995, 0.04270053, 0.16724014
971, 2359759525, -108.39060974121094, -83.12493896484375, -94.10057067871094, -0.10556775, 0.27159932, 0.13325787
972, 2359776192, -107.751953125, -83.16166687011719, -94.74630737304688, -0.043859053, 0.24584928, 0.31083202
973, 2359792859, -106.96724700927734, -83.1988525390625, -95.43643188476562, 0.03106745, 0.17317487, 0.36230755
974, 2359809526, -105.98628997802734, -83.26151275634766, -96.26653289794922, 0.1420378, 0.0043482212, 0.13191032
975, 2359826193, -105.0162124633789, -83.34701538085938, -97.14263153076172, -0.0731232, 0.03134283, -0.27673817
976, 2359842860, -104.16922760009766, -83.41292572021484, -97.90979766845703, -0.26692706, 0.23197934, 0.11815262
977, 2359859527, -103.12919616699219, -83.45728302001953, -98.81159973144531, -0.26616997, 0.45411178, 0.7844925
978, 2359876194, -101.66822052001953, -83.50961303710938, -100.08377838134766, -0.10858173, 0.3233701, 0.6499529
979, 2359892861, -99.91315460205078, -83.58387756347656, -101.67704010009766, -0.0046544755, -0.11095658, -0.050901413
980, 2359909528, -98.32146453857422, -83.64630889892578, -103.18526458740234, 0.04849217, -0.45006928, -0.28782845
981, 2359926195, -96.8292465209961, -83.67454528808594, -104.68132781982422, 0.03673124, -0.3490342, 0.07829189
982, 2359942862, -95.32244110107422, -83.68152618408203, -106.23712158203125, 0.021873174, 0.058226466, 0.3702345
983, 2359959529, -93.78983306884766, -83.69379425048828, -107.76509094238281, 0.061307214, 0.32880107, 0.48604965
984, 2359976196, -92.2534408569336, -83.71556854248047, -109.19681549072266, 0.10378369, 0.2596762, 0.3516922
985, 2359992863, -90.6983413696289, -83.73240661621094, -110.63007354736328, 0.08742311, 0.009246564, 0.022955894
986, 2360009530, -89.18033599853516, -83.7294921875, -112.04965209960938, 0.089495555, -0.41385904, -0.108195305
987, 2360026197, -87.85616302490234, -83.71278381347656, -113.33331298828125, 0.1769187, -0.6357762, 0.014146805
988, 2360042864, -86.80506134033203, -83.68009948730469, -114.44286346435547, 0.31738064, -0.57544214, 0.14011765
989, 2360059531, -86.08991241455078, -83.63798522949219, -115.27465057373047, 0.3215111, -0.21849218, 0.21359634
990, 2360076198, -85.5069808959961, -83.60613250732422, -115.88287353515625, 0.31812695, 0.18762694, 0.15739155
991, 2360092865, -84.99312591552734, -83.59427642822266, -116.32095336914062, 0.27148607, 0.08170544, 0.05889511
992, 2360109532, -84.672119140625, -83.58662414550781, -116.57717895507812, 0.064533666, -0.29938376, 0.03482914
993, 2360126199, -84.4723892211914, -83.56184387207031, -116.78385925292969, 0.054182347, -0.5248144, 0.15516186
994, 2360142866, -84.4152603149414, -83.5240707397461, -116.93594360351562, 0.16671354, -0.39851707, 0.19389915
995, 2360159533, -84.56161499023438, -83.49000549316406, -116.90705108642578, 0.2783965, -0.0073125614, 0.16695404
996, 2360176200, -84.8465805053711, -83.47460174560547, -116.67598724365234, 0.29128918, 0.2983701, 0.18216324
997, 2360192867, -85.218505859375, -83.48115539550781, -116.27447509765625, 0.19617467, 0.35039043, 0.15560246
998, 2360209534, -85.655517578125, -83.49932098388672, -115.78300476074219, 0.039088156, 0.22350742, 0.18937969
999, 2360226201, -86.08079528808594, -83.51605987548828, -115.33850860595703, -0.062230323, -0.018783303, 0.1500454
1000, 2360242868, -86.58073425292969, -83.52056121826172, -114.91828918457031, -0.14708005, -0.28997952, 0.080304146
1001, 2360259535, -87.15221405029297, -83.5062026977539, -114.52375793457031, -0.1212105, -0.24393092, 0.10698795
1002, 2360276202, -87.73869323730469, -83.49012756347656, -114.15335845947266, 0.0071327593, 0.06463369, 0.18137169
1003, 2360292869, -88.32589721679688, -83.48916625976562, -113.72842407226562, 0.10933444, 0.32455796, 0.17925835
1004, 2360309536, -88.88185119628906, -83.50544738769531, -113.24079132080078, 0.12363597, 0.40130082, 0.1793251
1005, 2360326203, -89.41304016113281, -83.52691650390625, -112.71365356445312, 0.05804739, 0.23828745, 0.20544243
1006, 2360342870, -89.92435455322266, -83.54608917236328, -112.20740509033203, -0.07176717, -0.05384008, 0.22103882
1007, 2360359537, -90.4433364868164, -83.55937957763672, -111.75423431396484, -0.16158871, -0.22257146, 0.14959908
1008, 2360376204, -90.98644256591797, -83.56553649902344, -111.3351058959961, -0.13266315, -0.14158529, 0.18291092
1009, 2360392871, -91.494873046875, -83.57230377197266, -110.9537582397461, -0.030211534, 0.0560504, 0.20144749
1010, 2360409538, -91.97931671142578, -83.58280944824219, -110.5594711303711, 0.045177374, 0.15351781, 0.19186401
1011, 2360426205, -92.47046661376953, -83.60079956054688, -110.11393737792969, 0.045341477, 0.13679183, 0.1331377
1012, 2360442872, -92.96332550048828, -83.62234497070312, -109.65555572509766, -0.07529059, 0.027717004, 0.091091156
1013, 2360459539, -93.42649841308594, -83.64041137695312, -109.24217987060547, -0.15399286, -0.07279543, 0.10450745
1014, 2360476206, -93.8571548461914, -83.65217590332031, -108.89830017089844, -0.19673777, -0.13719879, 0.11577606
1015, 2360492873, -94.29293060302734, -83.65325164794922, -108.58648681640625, -0.085539654, -0.08171707, 0.2065134
1016, 2360509540, -94.66366577148438, -83.64905548095703, -108.33958435058594, 0.061633755, 0.06704997, 0.3003006
1017, 2360526207, -94.98096466064453, -83.65130615234375, -108.11565399169922, 0.2638209, 0.18576844, 0.30398846
1018, 2360542874, -95.36605072021484, -83.6623764038086, -107.79840850830078, 0.3087118, 0.13777484, 0.20848942
1019, 2360559541, -95.93777465820312, -83.67426300048828, -107.29235076904297, 0.20383027, -0.022963107, 0.15127659
1020, 2360576208, -96.58743286132812, -83.6804428100586, -106.74942016601562, 0.10426388, -0.1646683, 0.13349724
1021, 2360592875, -97.3286361694336, -83.68012237548828, -106.17498016357422, 0.07414989, -0.17847475, 0.13955784
1022, 2360609542, -98.14190673828125, -83.67488861083984, -105.56788635253906, 0.098044604, -0.07758671, 0.19076729
1023, 2360626209, -98.96647644042969, -83.67042541503906, -104.93465423583984, 0.17480844, 0.04935965, 0.20493317
1024, 2360642876, -99.83301544189453, -83.67163848876953, -104.21920776367188, 0.2062708, 0.20257677, 0.2213726
1025, 2360659543, -100.7221450805664, -83.68267059326172, -103.43191528320312, 0.1572176, 0.18879548, 0.22271442
1026, 2360676210, -101.61975860595703, -83.69951629638672, -102.61119842529297, 0.07494464, 0.07657442, 0.17365456
1027, 2360692877, -102.57136535644531, -83.7063980102539, -101.7549819946289, -0.07565881, -0.11897902, 0.16176987
1028, 2360709544, -103.47974395751953, -83.69933319091797, -100.97228240966797, -0.12168699, -0.20923343, 0.20522118
1029, 2360726211, -104.33584594726562, -83.68248748779297, -100.2636489868164, -0.04513636, -0.18223721, 0.21010685
1030, 2360742878, -105.18804168701172, -83.65937805175781, -99.54824829101562, 0.08051856, -0.06863032, 0.20149612
1031, 2360759545, -106.04875183105469, -83.64097595214844, -98.77873992919922, 0.15887097, 0.07534264, 0.12624168
1032, 2360776212, -106.93814086914062, -83.62532806396484, -97.91620635986328, 0.11022966, 0.18449973, 0.07695484
1033, 2360792879, -107.81971740722656, -83.61036682128906, -97.00226593017578, -0.023757527, 0.18170547, 0.14839649
1034, 2360809546, -108.58789825439453, -83.59599304199219, -96.1683578491211, -0.094988994, 0.11748087, 0.2598343
1035, 2360826213, -109.26585388183594, -83.58598327636719, -95.44336700439453, -0.12141858, 0.015770962, 0.26456928
1036, 2360842880, -109.92005157470703, -83.57779693603516, -94.77764892578125, -0.09874966, -0.014019459, 0.16578197
1037, 2360859547, -110.513427734375, -83.56501770019531, -94.1966781616211, -0.076047435, -0.028720967, 0.15025043
1038, 2360876214, -111.0294418334961, -83.5472412109375, -93.70580291748047, -0.04529096, -0.03052863, 0.15503216
1039, 2360892881, -111.5457534790039, -83.52628326416016, -93.23150634765625, -0.036596615, 0.007179292, 0.1623106
1040, 2360909548, -112.04866790771484, -83.50336456298828, -92.7626724243164, 0.0021427488, 0.024939073, 0.16655159
1041, 2360926215, -112.53234100341797, -83.48479461669922, -92.28116607666016, 0.046931226, 0.07275777, 0.18496609
1042, 2360942882, -112.99152374267578, -83.46833038330078, -91.78489685058594, 0.0899838, 0.042132974, 0.19921112
1043, 2360959549, -113.4561767578125, -83.45024871826172, -91.26649475097656, 0.09937347, -0.0102940565, 0.21443176
1044, 2360976216, -113.931396484375, -83.43428039550781, -90.73501586914062, 0.122408785, -0.048175033, 0.19369316
1045, 2360992883, -114.43977355957031, -83.41879272460938, -90.18170166015625, 0.13900098, -0.07766645, 0.1371975
1046, 2361009550, -115.0096206665039, -83.3996353149414, -89.59196472167969, 0.13580744, -0.12870228, 0.10433674
1047, 2361026217, -115.621337890625, -83.37249755859375, -88.99166870117188, 0.08741694, -0.124212295, 0.13142395
1048, 2361042884, -116.24766540527344, -83.34171295166016, -88.40171813964844, 0.047602672, -0.06938021, 0.19091988
1049, 2361059551, -116.87030029296875, -83.31278991699219, -87.8251953125, 0.049974885, 0.0021066654, 0.20214081
1050, 2361076218, -117.48150634765625, -83.28446960449219, -87.25462341308594, 0.02699644, 0.01990612, 0.19344997
1051, 2361092885, -118.06509399414062, -83.25389862060547, -86.70675659179688, -0.008860459, 0.03538506, 0.16284847
1052, 2361109552, -118.6204833984375, -83.22471618652344, -86.18675994873047, -0.023012936, 0.025878051, 0.15666294
1053, 2361126219, -119.1472396850586, -83.19481658935547, -85.6978759765625, -0.004677623, 0.0058440254, 0.18483639
1054, 2361142886, -119.65522003173828, -83.16637420654297, -85.23159790039062, 0.019489883, 0.014051924, 0.17197895
1055, 2361159553, -120.1504898071289, -83.1364517211914, -84.77182006835938, 0.06353589, 0.010926431, 0.17030716
