sep=,
DeviceTag:,femurLeft,,,,,,,,,,,,,,,,,
FirmwareVersion:,1.6.0,,,,,,,,,,,,,,,,,
AppVersion:,1.1,,,,,,,,,,,,,,,,,
SyncStatus:,Synced,,,,,,,,,,,,,,,,,
OutputRate:,60Hz,,,,,,,,,,,,,,,,,
FilterProfile:,General,,,,,,,,,,,,,,,,,
Measurement Mode:,Sensor fusion Mode - Complete (Euler),,,,,,,,,,,,,,,,,
StartTime:,2021-03-10 17:04:33.797 +0800,,,,,,,,,,,,,,,,,
© Xsens Technologies B. V. 2005-2021,,,,,,,,,,,,,,,,,,,

PacketCounter,SampleTimeFine,Euler_X,Euler_Y,Euler_Z,FreeAcc_X,FreeAcc_Y,FreeAcc_Z
1, 2459457733, -145.84400939941406, -79.25338745117188, -60.84682846069336, 0.04383919, 0.006696951, 0.16651821
2, 2459474400, -145.8201141357422, -79.25138092041016, -60.847232818603516, -0.0056422492, -0.06632876, 0.15442276
3, 2459491067, -145.80133056640625, -79.24922180175781, -60.86109161376953, -0.048307158, -0.07814907, 0.17715073
4, 2459507734, -145.7779998779297, -79.24651336669922, -60.899818420410156, -0.053198375, -0.028749801, 0.18330479
5, 2459524401, -145.76019287109375, -79.24674987792969, -60.94562911987305, -0.038818628, 0.0458301, 0.16816711
6, 2459541068, -145.74945068359375, -79.24707794189453, -60.978824615478516, -0.015879715, 0.0826561, 0.17747688
7, 2459557735, -145.71563720703125, -79.24913787841797, -61.01728439331055, 0.023063883, 0.042945053, 0.18394947
8, 2459574402, -145.6782989501953, -79.25188446044922, -61.05216598510742, 0.046122402, 0.021430086, 0.20826721
9, 2459591069, -145.66220092773438, -79.25532531738281, -61.066139221191406, 0.024134565, -0.0014847406, 0.19426441
10, 2459607736, -145.65065002441406, -79.25900268554688, -61.075260162353516, 0.050807595, -0.006082402, 0.15493584
11, 2459624403, -145.6446990966797, -79.25935363769531, -61.0823974609375, 0.030317353, 0.01531047, 0.17176437
12, 2459641070, -145.64675903320312, -79.26213836669922, -61.08760070800781, 0.0045424537, 0.053361762, 0.192173
13, 2459657737, -145.64955139160156, -79.26664733886719, -61.093711853027344, -0.005240708, 0.020143714, 0.17956257
14, 2459674404, -145.66969299316406, -79.27272033691406, -61.08904266357422, -0.049604315, 0.0048863846, 0.17433834
15, 2459691071, -145.6781463623047, -79.27997589111328, -61.096405029296875, -0.008165236, 0.006506518, 0.1693821
16, 2459707738, -145.6785125732422, -79.28636169433594, -61.10742950439453, -0.00395129, -0.018283471, 0.18740654
17, 2459724405, -145.67100524902344, -79.2945556640625, -61.12270736694336, -0.0017133665, -0.0021481272, 0.1672821
18, 2459741072, -145.65838623046875, -79.30152893066406, -61.13652420043945, 5.097213E-4, 0.0063754837, 0.16376019
19, 2459757739, -145.6331787109375, -79.3074722290039, -61.154911041259766, -0.006153172, 0.0066452636, 0.17632103
20, 2459774406, -145.60440063476562, -79.31349182128906, -61.17730712890625, -0.0086162565, -0.006505512, 0.17891121
21, 2459791073, -145.5723114013672, -79.31905364990234, -61.208763122558594, -0.005899345, -0.026058314, 0.17636108
22, 2459807740, -145.55133056640625, -79.32489776611328, -61.23614501953125, 0.007954267, -0.050718497, 0.18608284
23, 2459824407, -145.5316162109375, -79.33110809326172, -61.27279281616211, 0.010364715, -0.04498349, 0.17554855
24, 2459841074, -145.5102081298828, -79.33708953857422, -61.312984466552734, 0.03931185, -0.013925527, 0.16626835
25, 2459857741, -145.4892120361328, -79.34078216552734, -61.34660720825195, 0.059767086, 0.02619231, 0.16925049
26, 2459874408, -145.46755981445312, -79.34505462646484, -61.36795425415039, 0.04972828, 0.004818157, 0.18923664
27, 2459891075, -145.45423889160156, -79.3475570678711, -61.37955856323242, 0.013886413, -0.00945823, 0.1857729
28, 2459907742, -145.44825744628906, -79.35073852539062, -61.38434600830078, -0.0022707798, 8.9299015E-4, 0.17567158
29, 2459924409, -145.44622802734375, -79.35273742675781, -61.3839225769043, -0.024348328, 0.022002, 0.18644047
30, 2459941076, -145.425048828125, -79.35567474365234, -61.39667510986328, -0.028176406, 0.060054634, 0.20463753
31, 2459957743, -145.38229370117188, -79.36209106445312, -61.422821044921875, -0.009124511, 0.07871976, 0.17781544
32, 2459974410, -145.33157348632812, -79.37012481689453, -61.44518280029297, -0.028952919, 0.027690573, 0.17005444
33, 2459991077, -145.2683868408203, -79.38116455078125, -61.48298645019531, -0.057474315, -0.04470935, 0.19261074
34, 2460007744, -145.18849182128906, -79.39395904541016, -61.55062484741211, -0.05858051, -0.08104915, 0.20895863
35, 2460024411, -145.1073760986328, -79.4062271118164, -61.637123107910156, -0.046858456, -0.0366792, 0.17817211
36, 2460041078, -145.03628540039062, -79.41661834716797, -61.71551513671875, 0.002562129, -0.023911137, 0.15263367
37, 2460057745, -144.9534912109375, -79.42526245117188, -61.79682540893555, 0.022738112, 0.02577652, 0.17559147
38, 2460074412, -144.86807250976562, -79.43253326416016, -61.86643981933594, 0.065949455, 0.009668053, 0.20426273
39, 2460091079, -144.793701171875, -79.4393081665039, -61.924285888671875, 0.045076974, -0.020428805, 0.18357944
40, 2460107746, -144.73712158203125, -79.44145202636719, -61.97092819213867, 0.051493336, -0.03750184, 0.15972614
41, 2460124413, -144.68260192871094, -79.44348907470703, -62.01547622680664, 0.06260671, -0.038661093, 0.18416786
42, 2460141080, -144.63853454589844, -79.4432601928711, -62.05607223510742, 0.040815532, -0.015035884, 0.16918755
43, 2460157747, -144.61033630371094, -79.44257354736328, -62.08161163330078, 0.0116580725, 0.01598777, 0.1555767
44, 2460174414, -144.57447814941406, -79.44160461425781, -62.11092758178711, -0.005692917, 0.05321592, 0.17549133
45, 2460191081, -144.5274658203125, -79.44283294677734, -62.13825988769531, -0.014796055, 0.054919314, 0.20196533
46, 2460207748, -144.47271728515625, -79.44540405273438, -62.16932678222656, -0.014624788, 0.00322708, 0.18902493
47, 2460224415, -144.41619873046875, -79.4473648071289, -62.20761489868164, -0.03580021, -0.017586783, 0.16570282
48, 2460241082, -144.3564453125, -79.45008850097656, -62.25143814086914, 0.01983345, -0.0337257, 0.20294571
49, 2460257749, -144.30592346191406, -79.45183563232422, -62.29152297973633, 0.08009645, -0.021421537, 0.1836319
50, 2460274416, -144.2794647216797, -79.45228576660156, -62.31019592285156, 0.079892054, 0.003593306, 0.21286201
51, 2460291083, -144.26254272460938, -79.45309448242188, -62.3183479309082, 0.09940953, 0.05750206, 0.2004652
52, 2460307750, -144.27334594726562, -79.45592498779297, -62.289337158203125, 0.03962189, 0.06554791, 0.17285633
53, 2460324417, -144.27865600585938, -79.4608383178711, -62.2630500793457, -0.016022205, 0.05974954, 0.12866974
54, 2460341084, -144.28321838378906, -79.46802520751953, -62.24884033203125, -0.11761998, -0.0027551884, 0.14157772
55, 2460357751, -144.277099609375, -79.48145294189453, -62.26873016357422, -0.19266261, -0.017257882, 0.18615723
56, 2460374418, -144.2451629638672, -79.50285339355469, -62.32688522338867, -0.1766978, 0.07246726, 0.19523144
57, 2460391085, -144.1657257080078, -79.53236389160156, -62.41766357421875, -0.16167311, 0.09176738, 0.20238876
58, 2460407752, -144.05801391601562, -79.56487274169922, -62.52729034423828, -0.18600528, 0.08920983, 0.19091988
59, 2460424419, -143.869384765625, -79.60276794433594, -62.70805740356445, -0.15573232, 0.019390754, 0.24918556
60, 2460441086, -143.6494598388672, -79.64559936523438, -62.930843353271484, -0.031687878, -0.06600399, 0.25989628
61, 2460457753, -143.4472198486328, -79.68878173828125, -63.14436721801758, 0.06412981, -0.058632143, 0.14134598
62, 2460474420, -143.26071166992188, -79.7297134399414, -63.34105682373047, 0.104344, -0.034475476, 0.09788895
63, 2460491087, -143.0879364013672, -79.76927947998047, -63.51768493652344, 0.072678395, 0.008567475, 0.1433258
64, 2460507754, -142.92153930664062, -79.80416107177734, -63.68702697753906, 0.07976549, -0.0012964869, 0.20589256
65, 2460524421, -142.7841339111328, -79.83811950683594, -63.84410858154297, 0.045924872, -0.0079975175, 0.1950283
66, 2460541088, -142.67669677734375, -79.87409210205078, -63.973976135253906, 0.09043105, -0.012039917, 0.167552
67, 2460557755, -142.580322265625, -79.90965270996094, -64.0831298828125, 0.081969105, -0.010587306, 0.13547611
68, 2460574422, -142.48782348632812, -79.9417724609375, -64.17344665527344, 0.0461262, -0.023513619, 0.15957451
69, 2460591089, -142.36378479003906, -79.97113037109375, -64.2926025390625, 0.03697907, -0.041724782, 0.22019958
70, 2460607756, -142.22564697265625, -79.99688720703125, -64.41986083984375, 0.04211652, -0.047874797, 0.2180624
71, 2460624423, -142.06201171875, -80.02049255371094, -64.56449890136719, 0.018789757, -0.027169788, 0.1911068
72, 2460641090, -141.88821411132812, -80.04357147216797, -64.7057876586914, -0.008195368, 0.029892847, 0.12186146
73, 2460657757, -141.68089294433594, -80.06563568115234, -64.85869598388672, -0.032760378, 0.05869344, 0.1636858
74, 2460674424, -141.44216918945312, -80.0871353149414, -65.02693176269531, -0.03702407, 0.062164318, 0.21365547
75, 2460691091, -141.18983459472656, -80.1158676147461, -65.20006561279297, -0.045135774, 0.041186675, 0.20780754
76, 2460707758, -140.9248046875, -80.15008544921875, -65.38866424560547, -0.10023746, 0.028872622, 0.18265629
77, 2460724425, -140.6402130126953, -80.18733215332031, -65.60812377929688, -0.12414848, -0.005705615, 0.19014263
78, 2460741092, -140.3406524658203, -80.22856903076172, -65.86338806152344, -0.096873954, 0.021836378, 0.22599125
79, 2460757759, -140.031494140625, -80.27405548095703, -66.14461517333984, -0.015906105, 0.09144988, 0.19759369
80, 2460774426, -139.73402404785156, -80.32646942138672, -66.41101837158203, 0.024673274, 0.13064231, 0.16036797
81, 2460791093, -139.41928100585938, -80.38308715820312, -66.68736267089844, 0.02571687, 0.12692256, 0.16107464
82, 2460807760, -139.11888122558594, -80.44233703613281, -66.94843292236328, 0.025793241, 0.08418733, 0.1764555
83, 2460824427, -138.83018493652344, -80.50282287597656, -67.20184326171875, 0.044905316, 0.0073700044, 0.21451569
84, 2460841094, -138.59063720703125, -80.56752014160156, -67.42459869384766, 0.057365537, 0.011279358, 0.20072556
85, 2460857761, -138.36953735351562, -80.63773345947266, -67.6374282836914, 0.08074119, 0.028958954, 0.11207008
86, 2460874428, -138.16456604003906, -80.70540618896484, -67.82194519042969, 0.09917619, 0.061403815, 0.08926201
87, 2460891095, -137.96824645996094, -80.77122497558594, -67.99237060546875, 0.035422586, 0.024911413, 0.19342709
88, 2460907762, -137.7945098876953, -80.84202575683594, -68.14472961425781, -0.017275233, -0.013051257, 0.24714565
89, 2460924429, -137.6267547607422, -80.92020416259766, -68.32470703125, -0.1114817, -0.03865366, 0.19366932
90, 2460941096, -137.4202880859375, -81.00180053710938, -68.55728912353516, -0.07179395, 0.031153515, 0.18735504
91, 2460957763, -137.197021484375, -81.08403015136719, -68.7987060546875, -0.07449798, 0.07687806, 0.18687916
92, 2460974430, -136.94793701171875, -81.17021179199219, -69.02095794677734, -0.035124376, 0.10435803, 0.21446323
93, 2460991097, -136.65525817871094, -81.26103973388672, -69.2492904663086, -0.037977993, 0.06166784, 0.1858635
94, 2461007764, -136.29531860351562, -81.35469055175781, -69.52561950683594, -0.12713641, 0.057119686, 0.13933563
95, 2461024431, -135.8406219482422, -81.45197296142578, -69.89108276367188, -0.21589504, 0.047350213, 0.13538456
96, 2461041098, -135.29246520996094, -81.5540542602539, -70.36231231689453, -0.26451582, 0.050492022, 0.22582722
97, 2461057765, -134.61915588378906, -81.65939331054688, -70.96527862548828, -0.2670184, 0.053011965, 0.30654907
98, 2461074432, -133.83848571777344, -81.7710952758789, -71.66895294189453, -0.17973693, 0.0697708, 0.25552177
99, 2461091099, -133.01527404785156, -81.88823699951172, -72.39864349365234, -0.041868545, 0.06750706, 0.159379
100, 2461107766, -132.16465759277344, -82.00643157958984, -73.14192199707031, 0.05494158, 0.04938977, 0.13792324
101, 2461124433, -131.29266357421875, -82.12157440185547, -73.89813995361328, 0.09721907, 0.03577431, 0.16999626
102, 2461141100, -130.44276428222656, -82.237548828125, -74.65084838867188, 0.07813402, 0.04341063, 0.19370556
103, 2461157767, -129.58555603027344, -82.35584259033203, -75.45539855957031, 0.010647431, 0.042044017, 0.16192818
104, 2461174434, -128.6511688232422, -82.47989654541016, -76.40279388427734, 0.042596776, -0.03924541, 0.16101742
105, 2461191101, -127.53184509277344, -82.61079406738281, -77.61713409423828, -0.033256143, -0.1061719, 0.22904491
106, 2461207768, -126.38292694091797, -82.73550415039062, -78.9163818359375, -0.0031626245, -0.10473057, 0.26443958
107, 2461224435, -125.21747589111328, -82.85980224609375, -80.2739028930664, 0.22220424, -0.06755377, 0.22331905
108, 2461241102, -123.89932250976562, -82.9959945678711, -81.81924438476562, 0.3294814, -0.026218126, 0.15066338
109, 2461257769, -122.61666107177734, -83.12882232666016, -83.3290023803711, 0.15589552, 0.025121907, 0.055517197
110, 2461274436, -121.45061492919922, -83.24834442138672, -84.68734741210938, 0.07604556, 0.07768696, 0.098872185
111, 2461291103, -120.27731323242188, -83.36522674560547, -86.03851318359375, 0.1239224, 0.058933605, 0.17749119
112, 2461307770, -118.92650604248047, -83.48723602294922, -87.57215118408203, 0.081516966, 0.02490968, 0.18369293
113, 2461324437, -117.6153564453125, -83.60466003417969, -89.05277252197266, 0.08728896, 2.614543E-4, 0.092531204
114, 2461341104, -116.3740463256836, -83.71318817138672, -90.4587173461914, 0.14431119, -0.061412923, 0.13282967
115, 2461357771, -115.21575927734375, -83.81182098388672, -91.77156829833984, 0.16376042, -0.07317814, 0.17721081
116, 2461374438, -114.09220123291016, -83.91040802001953, -93.0452651977539, 0.1253164, -0.061531942, 0.1691904
117, 2461391105, -113.01023864746094, -84.00596618652344, -94.26583862304688, 0.038784973, -0.05437193, 0.16062927
118, 2461407772, -111.91078186035156, -84.0894775390625, -95.49414825439453, 1.6858465E-4, -0.07678553, 0.19999695
119, 2461424439, -110.7332534790039, -84.16494750976562, -96.77317810058594, -0.013432039, -0.035943788, 0.23288631
120, 2461441106, -109.44731140136719, -84.23870849609375, -98.12239074707031, 0.026234638, -0.08731791, 0.20070839
121, 2461457773, -108.09947967529297, -84.30804443359375, -99.51878356933594, -0.054103043, -0.17542201, 0.14321041
122, 2461474440, -106.63082122802734, -84.36528778076172, -101.0560073852539, -0.049661364, -0.26270583, 0.14052868
123, 2461491107, -105.07860565185547, -84.40522003173828, -102.68619537353516, 0.09277064, -0.24478999, 0.1429863
124, 2461507774, -103.63997650146484, -84.43507385253906, -104.18399810791016, 0.35677814, -0.17752908, 0.15801525
125, 2461524441, -102.42366790771484, -84.47330474853516, -105.41433715820312, 0.6560424, -0.1461763, 0.19180775
126, 2461541108, -101.46560668945312, -84.52657318115234, -106.33808898925781, 0.87278694, -0.20347849, 0.11272144
127, 2461557775, -101.00227355957031, -84.58163452148438, -106.74505615234375, 0.77896106, -0.26744458, 0.048801422
128, 2461574442, -101.0978012084961, -84.63265228271484, -106.6134262084961, 0.6621188, -0.21389776, 0.06891823
129, 2461591109, -101.64273071289062, -84.68809509277344, -106.08212280273438, 0.58004236, 0.022570338, 0.14384174
130, 2461607776, -102.57463836669922, -84.7442855834961, -105.16452026367188, 0.5682255, -0.14326158, 0.12634945
131, 2461624443, -104.06098937988281, -84.78988647460938, -103.71121215820312, 0.5291669, -0.4194989, 0.083257675
132, 2461641110, -106.04625701904297, -84.81568145751953, -101.78522491455078, 0.64888346, -0.629355, 0.13478088
133, 2461657777, -108.67970275878906, -84.81779479980469, -99.2068099975586, 0.83377665, -0.69372344, 0.09977245
134, 2461674444, -111.90563201904297, -84.79655456542969, -95.9936294555664, 0.8833824, -0.3970306, 0.03858471
135, 2461691111, -115.47740936279297, -84.75585174560547, -92.36321258544922, 0.91337276, 0.1374385, 0.026022911
136, 2461707778, -119.1884994506836, -84.69622039794922, -88.46842193603516, 0.6290724, -0.084613904, -0.07903671
137, 2461724445, -123.19786834716797, -84.57086181640625, -84.28338623046875, 0.2045307, -0.8595095, -0.12205696
138, 2461741112, -127.83128356933594, -84.33929443359375, -79.76502990722656, 0.252004, -1.2139945, 0.121673584
139, 2461757779, -132.88673400878906, -84.03688049316406, -75.1835708618164, 0.3581262, -1.0578424, 0.3210125
140, 2461774446, -138.22315979003906, -83.69867706298828, -70.4671859741211, 0.97976077, -0.41208223, 0.14864445
141, 2461791113, -143.399658203125, -83.35860443115234, -65.88982391357422, 1.2438451, 0.631295, -0.27182102
142, 2461807780, -148.1702117919922, -82.9699935913086, -61.40708923339844, 1.4496787, 0.6775976, -0.66528416
143, 2461824447, -152.75689697265625, -82.45600128173828, -56.83848190307617, 1.6602314, -0.12976246, -0.7254667
144, 2461841114, -157.4379119873047, -81.74288177490234, -52.19391632080078, 1.5720224, -0.67500263, -0.18693447
145, 2461857781, -162.12322998046875, -80.85333251953125, -47.693511962890625, 1.9490134, -0.3726135, 0.16378307
146, 2461874448, -166.477783203125, -79.91646575927734, -43.503910064697266, 1.9103174, 0.41221365, -0.23696041
147, 2461891115, -170.3117218017578, -78.92672729492188, -39.63103103637695, 1.6302172, 0.9728239, -1.205327
148, 2461907782, -173.40444946289062, -77.7767562866211, -36.13048553466797, 1.5153602, 0.30922553, -1.6269951
149, 2461924449, -175.65609741210938, -76.49574279785156, -33.287353515625, 0.6393264, -0.29478276, -1.1265278
150, 2461941116, -177.3075714111328, -75.09136962890625, -31.075700759887695, -0.043183766, -0.92972493, -0.39729977
151, 2461957783, -178.5771942138672, -73.68970489501953, -29.42790412902832, -0.6333772, -1.5955696, -0.051140785
152, 2461974450, -179.74734497070312, -72.40328979492188, -28.236181259155273, -1.6328018, -1.1936018, 0.058903694
153, 2461991117, 179.08328247070312, -71.17168426513672, -27.29476547241211, -1.8277919, -0.5011432, -0.04559517
154, 2462007784, 177.98849487304688, -69.91179656982422, -26.517818450927734, -0.87368053, 0.03833348, -0.6791277
155, 2462024451, 177.15480041503906, -68.6468276977539, -25.992944717407227, 0.5665535, 0.03398537, -1.1524973
156, 2462041118, 176.8025360107422, -67.32474517822266, -25.592409133911133, -0.399581, 0.8485923, -0.91007614
157, 2462057785, 176.7449493408203, -65.96089172363281, -25.184127807617188, -0.49260053, 1.0633211, -0.42930126
158, 2462074452, 176.68174743652344, -64.66270446777344, -24.81981086730957, -0.8820743, 2.1039126, 1.1222162
159, 2462091119, 176.51609802246094, -63.44670104980469, -24.246055603027344, -0.28018433, 1.8127744, 1.3549185
160, 2462107786, 176.31202697753906, -62.30913162231445, -23.440813064575195, 0.2036043, 1.3881164, 0.22703362
161, 2462124453, 176.37698364257812, -61.19150161743164, -22.715152740478516, -0.7591207, 0.534027, 0.4070673
162, 2462141120, 176.6651611328125, -60.13834762573242, -22.25318717956543, -1.7305102, -0.54588693, 0.9486265
163, 2462157787, 176.5985565185547, -59.2465705871582, -21.950769424438477, -2.099061, -0.47917446, 1.1961546
164, 2462174454, 176.0149383544922, -58.484275817871094, -21.621538162231445, -1.4609579, 0.10708953, 1.1021576
165, 2462191121, 175.32318115234375, -57.77449417114258, -21.23717498779297, -0.7643907, 0.6880488, 0.7533846
166, 2462207788, 174.92340087890625, -57.09585189819336, -20.896799087524414, 0.07375081, 0.8022641, 0.049529076
167, 2462224455, 174.97695922851562, -56.449153900146484, -20.69306755065918, 0.12942554, 0.30717978, 0.17070866
168, 2462241122, 175.32135009765625, -55.872928619384766, -20.602197647094727, -1.0907718, -0.12422682, 0.9285898
169, 2462257789, 175.5366973876953, -55.32796859741211, -20.456356048583984, -1.2063217, -0.48358536, 0.49462605
170, 2462274456, 175.5746612548828, -54.7848014831543, -20.315332412719727, -0.9616332, -0.5492948, 0.5002289
171, 2462291123, 175.5946044921875, -54.32891082763672, -20.28893280029297, -0.5109849, -0.66066396, 0.80298233
172, 2462307790, 175.5040283203125, -53.96324157714844, -20.326980590820312, -0.42527553, 0.0046632625, 0.5478134
173, 2462324457, 175.3627166748047, -53.61616134643555, -20.362876892089844, 0.23217934, 0.8306633, 0.07780838
174, 2462341124, 175.5022430419922, -53.3248291015625, -20.393314361572266, 0.44887003, 1.0375162, 0.267066
175, 2462357791, 175.97021484375, -53.02540588378906, -20.33904266357422, -0.7855826, 0.29802844, 0.2591524
176, 2462374458, 176.38204956054688, -52.66949462890625, -20.22927474975586, -1.2656314, -0.6546803, 0.106292725
177, 2462391125, 176.45590209960938, -52.35466384887695, -20.234272003173828, -1.1807927, -1.1118442, 0.7811308
178, 2462407792, 176.15505981445312, -52.13983917236328, -20.342636108398438, -0.091418475, -1.2141488, 0.71448135
179, 2462424459, 175.6743927001953, -52.016204833984375, -20.450668334960938, -0.097180165, -0.2450682, 0.30472565
180, 2462441126, 175.4447021484375, -51.92170715332031, -20.596853256225586, -0.15861359, 0.316985, 0.058359146
181, 2462457793, 175.59840393066406, -51.82846450805664, -20.779253005981445, -0.33922485, 0.5546245, 0.30953884
182, 2462474460, 175.9053497314453, -51.673152923583984, -20.94970703125, -0.17492731, 0.5343337, 0.22038841
183, 2462491127, 176.1780242919922, -51.48851776123047, -21.075454711914062, 0.25089514, 0.3786106, 0.15392685
184, 2462507794, 176.38462829589844, -51.361698150634766, -21.19007682800293, 0.110409334, 0.31007573, 0.5029373
185, 2462524461, 176.53436279296875, -51.31250762939453, -21.27108383178711, -0.1148889, 0.42752954, 0.52666664
186, 2462541128, 176.7205047607422, -51.290916442871094, -21.311614990234375, -0.26328236, 0.43377188, 0.11491394
187, 2462557795, 176.9041290283203, -51.23101043701172, -21.339670181274414, -0.21144088, 0.21844792, 0.09858608
188, 2462574462, 176.8821563720703, -51.159217834472656, -21.330711364746094, -0.16771442, 0.19052294, 0.34331894
189, 2462591129, 176.63059997558594, -51.1252555847168, -21.259206771850586, -0.023261929, 0.44086942, 0.5033426
190, 2462607796, 176.38555908203125, -51.138153076171875, -21.14729118347168, 0.18076062, 0.43659237, 0.31523895
191, 2462624463, 176.27052307128906, -51.157928466796875, -20.98670196533203, -0.17394248, 0.31950724, -0.048696518
192, 2462641130, 176.24276733398438, -51.14452362060547, -20.81740951538086, -0.57054913, -0.03970618, 0.023093224
193, 2462657797, 176.20242309570312, -51.1514778137207, -20.725341796875, -0.49915013, -0.27071118, 0.6293802
194, 2462674464, 176.106201171875, -51.21110153198242, -20.686717987060547, -0.21608225, -0.3558921, 0.6903286
195, 2462691131, 175.964111328125, -51.29869079589844, -20.637542724609375, -0.22097665, -0.027048532, 0.38059235
196, 2462707798, 175.901123046875, -51.39140319824219, -20.57695198059082, -0.18540859, 0.15837938, 0.16120338
197, 2462724465, 176.05142211914062, -51.51050567626953, -20.563879013061523, -0.27290875, -0.15891749, 0.24301624
198, 2462741132, 176.2956085205078, -51.659400939941406, -20.614131927490234, -0.72133815, -0.39566833, 0.43185043
199, 2462757799, 176.41885375976562, -51.836387634277344, -20.702421188354492, -0.7260447, -0.22191651, 0.55645466
200, 2462774466, 176.41659545898438, -52.05543518066406, -20.776933670043945, -0.49234042, 0.17877504, 0.49157524
201, 2462791133, 176.4456024169922, -52.31629943847656, -20.852304458618164, -0.31793723, 0.36225414, 0.58653927
202, 2462807800, 176.5958709716797, -52.6257209777832, -20.947620391845703, -0.11990315, 0.19672108, 0.5961876
203, 2462824467, 176.72482299804688, -52.98963165283203, -21.012386322021484, -0.5812615, 0.30255178, 0.5508652
204, 2462841134, 176.75233459472656, -53.35875701904297, -21.021774291992188, -0.8067481, 0.23594134, 0.30671215
205, 2462857801, 176.71531677246094, -53.750205993652344, -21.035476684570312, -0.6896155, 0.23963729, 0.55439377
206, 2462874468, 176.6215057373047, -54.2113037109375, -21.061397552490234, -0.5757816, 0.47095555, 0.72805023
207, 2462891135, 176.549072265625, -54.74563980102539, -21.076608657836914, -0.5669724, 0.6100076, 0.74101067
208, 2462907802, 176.55816650390625, -55.33250427246094, -21.08753776550293, -0.36969566, 0.4600276, 0.55119896
209, 2462924469, 176.58853149414062, -55.948551177978516, -21.080183029174805, -0.4864531, 0.4333226, 0.48568916
210, 2462941136, 176.57321166992188, -56.582420349121094, -21.017179489135742, -0.74221843, 0.4685175, 0.37387562
211, 2462957803, 176.5320281982422, -57.2393913269043, -20.925954818725586, -0.51556116, 0.37359706, 0.35507488
212, 2462974470, 176.5073699951172, -57.962249755859375, -20.83547592163086, -0.5244485, 0.31398043, 0.5339565
213, 2462991137, 176.51251220703125, -58.753822326660156, -20.75213050842285, -0.6109293, 0.2340498, 0.5961647
214, 2463007804, 176.5767059326172, -59.578155517578125, -20.70956039428711, -0.5471914, -0.028080491, 0.47620583
215, 2463024471, 176.63755798339844, -60.43144607543945, -20.72832489013672, -0.59047, -0.28310844, 0.37843132
216, 2463041138, 176.69639587402344, -61.303550720214844, -20.77025604248047, -0.9246508, -0.24456608, 0.057106018
217, 2463057805, 176.82933044433594, -62.17952346801758, -20.880109786987305, -0.8056197, -0.22489896, 0.08423042
218, 2463074472, 177.0226287841797, -63.100738525390625, -21.114299774169922, -0.7599459, 0.06921001, 0.44813442
219, 2463091139, 177.3976593017578, -64.09578704833984, -21.475061416625977, -0.53923094, 0.21990468, 0.5582428
220, 2463107806, 178.00546264648438, -65.12661743164062, -22.001590728759766, 0.03149169, -0.3271583, 0.45831013
221, 2463124473, 178.72596740722656, -66.24485778808594, -22.672943115234375, -1.1781249, -0.3519606, 0.39713287
222, 2463141140, 179.443603515625, -67.3529052734375, -23.45311737060547, -1.5445015, -0.26006973, -0.4356203
223, 2463157807, -179.84368896484375, -68.40902709960938, -24.413578033447266, -1.0312166, 0.3047967, -0.419384
224, 2463174474, -178.94134521484375, -69.48251342773438, -25.57361602783203, -0.32192287, 0.4161076, 0.12416363
225, 2463191141, -177.62521362304688, -70.64952087402344, -26.969772338867188, 0.39277703, 0.20861526, 0.52073765
226, 2463207808, -175.8715362548828, -71.91557312011719, -28.64362335205078, -0.10538636, -0.099953316, 0.8422804
227, 2463224475, -173.93588256835938, -73.24478149414062, -30.566394805908203, -1.4750764, 0.10273952, 0.0075330734
228, 2463241142, -171.84385681152344, -74.51256561279297, -32.71186447143555, -0.9252887, 0.34348777, -1.6408691
229, 2463257809, -169.72052001953125, -75.58708953857422, -35.00311279296875, -0.14041857, 1.0590059, -1.7168655
230, 2463274476, -167.22093200683594, -76.4905776977539, -37.57914733886719, 0.408359, 0.5073906, -0.50131226
231, 2463291143, -164.31863403320312, -77.41926574707031, -40.48488998413086, 0.8250218, -0.27605817, 0.16464233
232, 2463307810, -161.34141540527344, -78.46276092529297, -43.71808624267578, 0.8743087, -0.9032459, -0.011043549
233, 2463324477, -158.16055297851562, -79.43904876708984, -47.32014846801758, -0.18389478, -0.4782519, -0.58536625
234, 2463341144, -154.7162322998047, -80.29597473144531, -51.377418518066406, 0.8898467, -0.20455782, -1.1694546
235, 2463357811, -151.171875, -80.9825439453125, -55.615577697753906, 1.6390098, 0.24744402, -0.7843561
236, 2463374478, -147.62725830078125, -81.5450439453125, -59.735469818115234, 1.8907522, 0.30117747, -0.17634964
237, 2463391145, -144.14804077148438, -82.09644317626953, -63.67720031738281, 2.1579232, 0.70570064, -0.09997654
238, 2463407812, -140.9402618408203, -82.59114837646484, -67.10469818115234, 2.400484, 0.18724535, -0.5378084
239, 2463424479, -137.97586059570312, -82.9478988647461, -70.03824615478516, 1.8946652, -0.5719303, -0.59537697
240, 2463441146, -135.4281768798828, -83.15481567382812, -72.53031921386719, 1.3497148, -1.0788145, 0.02229786
241, 2463457813, -133.49935913085938, -83.33279418945312, -74.56562042236328, 0.8431283, -1.1143905, 0.3309412
242, 2463474480, -132.1622772216797, -83.53980255126953, -76.1546401977539, 0.8921391, -0.66512275, 0.07678223
243, 2463491147, -131.0067901611328, -83.71173095703125, -77.59150695800781, 1.1537721, -0.39973354, -0.23658848
244, 2463507814, -129.8628692626953, -83.77342224121094, -78.91615295410156, 1.2471691, -0.2456788, -0.16120434
245, 2463524481, -129.26930236816406, -83.75402069091797, -79.50788879394531, 1.1260787, -0.03142894, 0.07892704
246, 2463541148, -129.52117919921875, -83.73909759521484, -79.14468383789062, 0.82806915, -0.17729193, 0.24760437
247, 2463557815, -130.17787170410156, -83.73468780517578, -78.37610626220703, 0.15961094, -0.55776453, 0.23520279
248, 2463574482, -130.6778106689453, -83.71250915527344, -77.90818786621094, -0.13737302, -0.71199524, 0.12902832
249, 2463591149, -131.03968811035156, -83.66875457763672, -77.74777221679688, -0.051411305, -0.48153967, 0.058537483
250, 2463607816, -131.57603454589844, -83.61813354492188, -77.49623107910156, 0.31981313, -0.05340127, 0.08069897
251, 2463624483, -132.42076110839844, -83.5631332397461, -76.92630767822266, 0.6092998, 0.18301705, 0.16779709
252, 2463641150, -133.4431915283203, -83.50243377685547, -76.1296157836914, 0.7510182, 0.22817823, 0.12516594
253, 2463657817, -134.4652862548828, -83.42565155029297, -75.22712707519531, 0.7619333, 0.21373834, 0.062158585
254, 2463674484, -135.37509155273438, -83.3366470336914, -74.30521392822266, 0.49935243, 0.18824312, 0.06853104
255, 2463691151, -136.097412109375, -83.24658203125, -73.4909439086914, 0.5647317, 0.32294783, 0.23381901
256, 2463707818, -136.64195251464844, -83.17073822021484, -72.7706069946289, 0.8480784, 0.41209787, 0.2381239
257, 2463724485, -137.1608123779297, -83.08035278320312, -71.92454528808594, 0.8375531, 0.1203458, 0.048121452
258, 2463741152, -137.5937042236328, -82.96714782714844, -71.02685546875, 0.56185794, -0.23062201, 0.09418106
259, 2463757819, -137.81369018554688, -82.85191345214844, -70.25733184814453, 0.005025773, -0.4207028, 0.21543121
260, 2463774486, -137.97476196289062, -82.7507553100586, -69.5369873046875, -0.72409624, -0.3701881, 0.28927898
261, 2463791153, -138.43682861328125, -82.62871551513672, -68.58045959472656, -1.4109601, 0.30734494, 0.39219666
262, 2463807820, -139.04627990722656, -82.50082397460938, -67.37803649902344, -0.69701165, 0.8805873, 0.6214571
263, 2463824487, -139.75270080566406, -82.3785400390625, -65.956787109375, -0.41303864, 0.9923422, 0.5288
264, 2463841154, -140.32351684570312, -82.28978729248047, -64.63886260986328, -0.2266381, 0.6103181, 0.34196472
265, 2463857821, -140.47586059570312, -82.27841186523438, -63.85600662231445, -0.7595452, 0.14582919, 0.06473446
266, 2463874488, -140.35154724121094, -82.32435607910156, -63.60942459106445, -1.198637, -0.43663883, -0.017233849
267, 2463891155, -139.98974609375, -82.3873062133789, -63.948631286621094, -1.201574, -0.61081713, 0.019556046
268, 2463907822, -139.48484802246094, -82.45649719238281, -64.731689453125, -0.8628457, -0.3753343, 0.09688854
269, 2463924489, -138.99957275390625, -82.5347671508789, -65.55203247070312, -0.35028368, -0.014568742, 0.24831963
270, 2463941156, -138.4062042236328, -82.65591430664062, -66.4521713256836, 0.33029252, 0.38362467, 0.3459053
271, 2463957823, -137.61703491210938, -82.80464172363281, -67.39449310302734, 0.47560468, 0.39809126, 0.0068159103
272, 2463974490, -136.93980407714844, -82.92147064208984, -68.10000610351562, 0.20134245, -0.024692537, -0.17598343
273, 2463991157, -136.5030517578125, -83.01419830322266, -68.66134643554688, 0.28015497, -0.54317594, 0.17847729
274, 2464007824, -136.0276641845703, -83.11766815185547, -69.41463470458984, -0.17168634, -0.54584396, 0.37180805
275, 2464024491, -135.54226684570312, -83.21441650390625, -70.27459716796875, -0.13407232, -0.5818343, 0.16577625
276, 2464041158, -135.14967346191406, -83.30500030517578, -71.23970031738281, 0.39890072, -0.51648474, 0.12996101
277, 2464057825, -134.6953125, -83.41879272460938, -72.35572052001953, -0.19456339, 0.06610306, 0.037722588
278, 2464074492, -134.42941284179688, -83.52574157714844, -73.0967788696289, -0.6623929, 0.3189512, -0.0693512
279, 2464091159, -134.1035614013672, -83.60364532470703, -73.86518096923828, -0.45020986, 0.566491, 0.2964325
280, 2464107826, -133.51748657226562, -83.69120788574219, -74.79170989990234, -0.1638335, 0.6381064, 0.55874634
281, 2464124493, -132.77471923828125, -83.8015365600586, -75.72107696533203, -0.06624781, 0.60096526, 0.48686028
282, 2464141160, -132.05384826660156, -83.93773651123047, -76.51780700683594, -0.16879825, 1.0074705, 0.33647633
283, 2464157827, -131.45555114746094, -84.10243225097656, -77.1044921875, 0.004749175, 0.96927285, 0.119091034
284, 2464174494, -130.89358520507812, -84.27066802978516, -77.6123275756836, -0.20980941, 0.2594293, 0.089512825
285, 2464191161, -130.3009033203125, -84.42044067382812, -78.26697540283203, -0.5327018, -0.42369273, 0.26655865
286, 2464207828, -129.734130859375, -84.55094146728516, -79.10189056396484, -0.094871275, -0.9115841, 0.31301498
287, 2464224495, -129.2993927001953, -84.6729965209961, -79.94575500488281, 0.28129885, -0.83867, 0.25762653
288, 2464241162, -129.3309783935547, -84.78485107421875, -80.29755401611328, 1.0413756, -0.4897322, 0.02751255
289, 2464257829, -130.01979064941406, -84.87237548828125, -79.78563690185547, 1.3832542, -0.17150769, -0.10390949
290, 2464274496, -131.08750915527344, -84.93070983886719, -78.61709594726562, 1.1617136, -0.06874845, -0.022136688
291, 2464291163, -132.81790161132812, -84.9537582397461, -76.66905212402344, 1.1020631, 0.13053352, -0.0600996
292, 2464307830, -135.48948669433594, -84.95663452148438, -73.84273529052734, 1.1529932, -0.052395348, -0.22685337
293, 2464324497, -139.04579162597656, -84.88308715820312, -70.25404357910156, 1.5452983, -0.42063692, -0.27896976
294, 2464341164, -143.33253479003906, -84.70572662353516, -66.00213623046875, 2.270376, -0.6543238, -0.004746437
295, 2464357831, -147.57179260253906, -84.49441528320312, -61.7629280090332, 1.5438637, -0.43930757, 0.17472172
296, 2464374498, -151.5126190185547, -84.26776885986328, -57.81148147583008, 0.75647235, -0.1316318, 0.03455925
297, 2464391165, -155.2310333251953, -84.0174560546875, -54.150386810302734, -0.0013188103, 0.34889087, -0.315444
298, 2464407832, -159.22386169433594, -83.66303253173828, -50.29195785522461, 0.53661704, -0.12497481, -0.47809982
299, 2464424499, -163.1814422607422, -83.16545867919922, -46.50443649291992, 0.73870516, -0.7033785, 0.063718796
300, 2464441166, -166.35092163085938, -82.64678192138672, -43.5245246887207, -0.21655014, -0.8924869, 0.49614906
301, 2464457833, -168.7881622314453, -82.17739868164062, -41.36160659790039, -0.4456799, -0.60067654, 0.46872902
302, 2464474500, -170.48941040039062, -81.84394836425781, -39.941707611083984, -1.0251046, 0.21836892, 0.2508974
303, 2464491167, -171.78526306152344, -81.55426788330078, -38.81789779663086, -1.292665, 0.99506515, 0.18357754
304, 2464507834, -172.7588653564453, -81.31212615966797, -37.88085174560547, -1.2488463, 1.0711056, 0.37530994
305, 2464524501, -173.6378173828125, -81.06163024902344, -36.9827880859375, -1.4561933, 0.7325494, 0.33114624
306, 2464541168, -174.6227264404297, -80.77405548095703, -36.01213836669922, -0.8561126, 0.09898137, 0.5586462
307, 2464557835, -175.5422821044922, -80.55103302001953, -35.2929573059082, -0.41045848, 0.08174249, 0.5865326
308, 2464574502, -176.638916015625, -80.34359741210938, -34.56207275390625, 0.7063535, 0.35632995, 0.3268366
309, 2464591169, -178.2769775390625, -80.07550811767578, -33.228031158447266, 1.6635075, 0.8118976, -0.37395
310, 2464607836, 179.8208465576172, -79.61724853515625, -31.278745651245117, 2.1811683, 0.680125, -0.91891384
311, 2464624503, 178.4544219970703, -78.96630859375, -29.364564895629883, 2.0993311, -0.7011215, -0.76294327
312, 2464641170, 177.83572387695312, -78.30313873291016, -28.085416793823242, 0.563874, -1.6650745, -0.32885456
313, 2464657837, 177.22454833984375, -77.60643768310547, -27.237213134765625, -0.28468728, -1.5658033, -0.025527
314, 2464674504, 176.0182647705078, -76.87692260742188, -26.307296752929688, 1.4030626, -1.1525917, -0.60582733
315, 2464691171, 174.6949005126953, -76.06732940673828, -25.312284469604492, 2.9912038, -0.49555135, -1.0740013
316, 2464707838, 174.0193328857422, -75.23014068603516, -24.549070358276367, 2.2154677, -0.40806067, -0.5844059
317, 2464724505, 174.11131286621094, -74.4292221069336, -24.24020004272461, -0.300211, -0.067544274, 0.008154869
318, 2464741172, 174.2789306640625, -73.64511108398438, -24.083826065063477, -0.55467266, -0.6306077, 0.29129314
319, 2464757839, 174.04449462890625, -72.9155502319336, -24.015716552734375, -0.5846426, -0.47514373, -0.008989334
320, 2464774506, 173.51661682128906, -72.04228210449219, -23.843416213989258, -0.5488066, -0.63344824, -0.16581535
321, 2464791173, 172.91766357421875, -71.10210418701172, -23.631317138671875, 0.19711104, -0.56320107, -0.8154545
322, 2464807840, 172.69088745117188, -70.1646728515625, -23.68534278869629, -0.3214347, 0.59668225, 0.15336323
323, 2464824507, 172.82101440429688, -69.31659698486328, -23.7661075592041, -0.3469376, 1.1313369, 0.93075466
324, 2464841174, 172.9829864501953, -68.56965637207031, -23.60175895690918, -0.67131925, 1.4565039, 0.09273434
325, 2464857841, 173.06463623046875, -67.8033676147461, -23.295808792114258, -0.64674944, 1.6056887, -0.35559082
326, 2464874508, 173.2712860107422, -66.9914779663086, -22.96327781677246, -0.6342787, 0.8587663, -0.051091194
327, 2464891175, 173.47894287109375, -66.23269653320312, -22.689109802246094, -1.4523251, 0.8137101, 0.8185797
328, 2464907842, 173.4616241455078, -65.57515716552734, -22.463516235351562, -0.89666724, 0.77810514, 1.2590113
329, 2464924509, 173.36705017089844, -65.05435943603516, -22.182723999023438, -0.6695402, 0.19642922, 1.1241646
330, 2464941176, 173.24554443359375, -64.6134262084961, -21.8769474029541, -0.9713374, -0.56918526, 0.5066767
331, 2464957843, 172.951416015625, -64.22584533691406, -21.60622787475586, -1.9916804, -0.27505627, 0.5711622
332, 2464974510, 172.4274444580078, -63.88262939453125, -21.395448684692383, -2.0040596, 0.32364127, 0.78627586
333, 2464991177, 171.8366241455078, -63.542076110839844, -21.218069076538086, -0.31144354, 0.69121623, 0.10724068
334, 2465007844, 171.49911499023438, -63.16061782836914, -21.088226318359375, 1.2408894, 0.23106769, -0.43244648
335, 2465024511, 171.58856201171875, -62.81390380859375, -20.96343231201172, 0.3443548, -0.117473826, 0.042827606
336, 2465041178, 172.00259399414062, -62.52903747558594, -20.964988708496094, -0.81914383, -0.5413967, 0.87640476
337, 2465057845, 172.49728393554688, -62.31085205078125, -21.095947265625, -0.7421835, -0.9122659, 1.1178808
338, 2465074512, 172.74546813964844, -62.12089157104492, -21.22132682800293, -1.1818033, -0.2707797, 0.6759176
339, 2465091179, 172.5912628173828, -61.82221984863281, -21.1439266204834, -1.6707594E-4, 0.092775084, -0.81577206
340, 2465107846, 172.46177673339844, -61.452720642089844, -21.08838653564453, 1.1931401, 0.03251661, -0.76815605
341, 2465124513, 172.79212951660156, -61.1995735168457, -21.282489776611328, 0.5563698, -0.3421277, 0.6948528
342, 2465141180, 173.4024200439453, -61.059364318847656, -21.59273910522461, -0.37687516, -0.77548236, 0.8759079
343, 2465157847, 173.77589416503906, -60.920780181884766, -21.784488677978516, -1.4500706, -0.42792237, 0.12654686
344, 2465174514, 173.8241424560547, -60.686851501464844, -21.951078414916992, -0.84430385, -0.36512932, -0.20136166
345, 2465191181, 173.69236755371094, -60.443058013916016, -22.1932315826416, -0.2561119, 0.12643972, 0.3793583
346, 2465207848, 173.56051635742188, -60.249637603759766, -22.51202964782715, 0.2908451, 0.5284427, 0.61196995
347, 2465224515, 173.76373291015625, -60.12940216064453, -22.82958221435547, 0.55093753, 0.6654556, 0.25277805
348, 2465241182, 174.41543579101562, -60.044898986816406, -23.165143966674805, 0.10018292, 0.15552948, 0.10156059
349, 2465257849, 175.08016967773438, -59.95832443237305, -23.44679069519043, -1.1840358, 0.092603095, 0.37187672
350, 2465274516, 175.40309143066406, -59.84965515136719, -23.66452980041504, -0.9614866, -0.054663, 0.20603657
351, 2465291183, 175.4899139404297, -59.748924255371094, -23.891799926757812, -0.51248187, 0.4376567, 0.6864042
352, 2465307850, 175.57040405273438, -59.718292236328125, -24.123689651489258, -0.015216273, 0.72945976, 0.6867924
353, 2465324517, 175.772216796875, -59.73078918457031, -24.297916412353516, 0.075158045, 0.780701, 0.42595863
354, 2465341184, 176.12832641601562, -59.81212615966797, -24.462047576904297, -0.1631029, 0.47877693, 0.53340816
355, 2465357851, 176.36387634277344, -59.925411224365234, -24.568891525268555, -0.48137584, 0.5136826, 0.5923929
356, 2465374518, 176.34262084960938, -60.01861572265625, -24.552730560302734, -0.35510206, 0.7076443, 0.3290348
357, 2465391185, 176.29510498046875, -60.0904541015625, -24.45376205444336, -0.06941403, 0.566995, 0.20418262
358, 2465407852, 176.33177185058594, -60.199710845947266, -24.372081756591797, 0.09281195, 0.30342627, 0.3914299
359, 2465424519, 176.34397888183594, -60.380401611328125, -24.323017120361328, 0.028821116, 0.28390124, 0.5755987
360, 2465441186, 176.30430603027344, -60.630252838134766, -24.247140884399414, -0.20887709, 0.4273163, 0.5105877
361, 2465457853, 176.29058837890625, -60.862335205078125, -24.136489868164062, -0.18121283, 0.13513157, 0.30860615
362, 2465474520, 176.28175354003906, -61.068538665771484, -23.984498977661133, -0.6879015, -0.16260959, 0.37510204
363, 2465491187, 176.11294555664062, -61.279659271240234, -23.77676773071289, -0.6329372, -0.04819733, 0.20992851
364, 2465507854, 175.8698272705078, -61.538516998291016, -23.642324447631836, -0.26246753, 0.3270094, 0.5326061
365, 2465524521, 175.7915496826172, -61.838134765625, -23.629138946533203, 0.120375246, 0.09152006, 0.7259178
366, 2465541188, 175.90374755859375, -62.207008361816406, -23.651487350463867, 0.11490502, -0.1611087, 0.48559284
367, 2465557855, 176.0654296875, -62.597347259521484, -23.652084350585938, -0.334803, -0.23527811, 0.08799839
368, 2465574522, 176.1464385986328, -62.96918869018555, -23.630931854248047, -0.43587086, -0.17413838, 0.11783409
369, 2465591189, 176.1398162841797, -63.33226013183594, -23.634754180908203, -0.30194694, 0.12825665, 0.30314732
370, 2465607856, 176.1610565185547, -63.731449127197266, -23.648950576782227, -0.34377196, 0.3810746, 0.5508852
371, 2465624523, 176.32400512695312, -64.18558502197266, -23.6572208404541, -0.7606443, 0.4051188, 0.5568323
372, 2465641190, 176.58554077148438, -64.70545959472656, -23.72030258178711, -0.7185687, 0.23983812, 0.4206438
373, 2465657857, 176.87765502929688, -65.29425811767578, -23.926177978515625, -0.336696, 0.10959913, 0.70256615
374, 2465674524, 177.04867553710938, -65.95172882080078, -24.177005767822266, -0.64102626, 0.16272648, 0.7945957
375, 2465691191, 177.112548828125, -66.65426635742188, -24.360620498657227, -1.0029422, 0.2521537, 0.23311806
376, 2465707858, 177.16445922851562, -67.3640365600586, -24.56348991394043, -0.604762, 0.2573395, 0.002465248
377, 2465724525, 177.3508758544922, -68.07691192626953, -24.839584350585938, -0.7907458, 0.2688739, 0.19898987
378, 2465741192, 177.68289184570312, -68.84896087646484, -25.187265396118164, -0.40758, 0.20451659, 0.17770672
379, 2465757859, 178.16580200195312, -69.75001525878906, -25.684818267822266, 0.32859126, 0.25078925, 0.37784672
380, 2465774526, 178.9674530029297, -70.66060638427734, -26.344667434692383, -0.36056316, 0.3795868, 0.48746967
381, 2465791193, 179.93698120117188, -71.53543853759766, -26.960983276367188, -1.2373124, 0.22736844, -0.4005022
382, 2465807860, -179.10025024414062, -72.3322982788086, -27.55632781982422, -0.90569663, 0.30436027, -0.91142464
383, 2465824527, -177.86244201660156, -73.06771087646484, -28.336442947387695, -0.50666624, 0.19542465, -0.062337875
384, 2465841194, -175.97373962402344, -73.8759536743164, -29.570737838745117, 0.011355185, -0.5896082, 0.8468237
385, 2465857861, -173.54652404785156, -74.90552520751953, -31.491188049316406, 1.3216927, -1.6953098, 0.7898102
386, 2465874528, -171.01007080078125, -75.95630645751953, -34.00375747680664, -1.472574, -0.5811888, 0.17362785
387, 2465891195, -168.59019470214844, -76.85245513916016, -36.5583610534668, -2.0729554, -1.3726351, -1.5956211
388, 2465907862, -166.52590942382812, -77.60528564453125, -39.142696380615234, 0.4691297, -0.35682318, -1.8416204
389, 2465924529, -164.28868103027344, -78.17473602294922, -41.94298553466797, 0.36538458, -0.19271204, -0.23195362
390, 2465941196, -161.5050506591797, -78.79934692382812, -45.3494873046875, 0.1221025, -0.040337384, 0.9574404
391, 2465957863, -158.23109436035156, -79.59550476074219, -49.338741302490234, 0.78727335, 0.5690281, 0.21710777
392, 2465974530, -154.91488647460938, -80.32803344726562, -53.33557891845703, 1.8343639, 0.6708452, -0.87367344
393, 2465991197, -152.0055389404297, -80.87036895751953, -56.80655288696289, 2.4374194, 1.062668, -1.2444849
394, 2466007864, -149.69482421875, -81.20619201660156, -59.441253662109375, 2.4581356, 0.8155407, -0.880291
395, 2466024531, -148.0502471923828, -81.41642761230469, -61.174747467041016, 1.8943508, 0.60157126, 0.15119743
396, 2466041198, -146.68020629882812, -81.6540756225586, -62.437957763671875, 1.692557, 0.38578516, 0.6511345
397, 2466057865, -145.5609893798828, -81.94090270996094, -63.30875778198242, 1.7182515, -0.32123795, 0.024633408
398, 2466074532, -144.3677520751953, -82.15235137939453, -64.13029479980469, 0.93138236, -1.424848, -0.6725702
399, 2466091199, -143.4304656982422, -82.22012329101562, -64.79993438720703, 0.34957582, -1.2379483, -0.34177208
400, 2466107866, -143.2100067138672, -82.22055053710938, -64.86520385742188, 0.41115528, -0.64414793, 0.32913303
401, 2466124533, -143.39169311523438, -82.2395248413086, -64.49691009521484, 0.82421637, 0.09488941, 0.7410698
402, 2466141200, -143.3968048095703, -82.2512435913086, -64.1778793334961, 0.8656567, 0.2187371, 0.19155788
403, 2466157867, -143.23776245117188, -82.19110870361328, -63.932674407958984, 0.77840114, -0.08855298, -0.23717976
404, 2466174534, -143.33607482910156, -82.0851058959961, -63.474369049072266, 0.38773438, -0.34431857, -0.053117752
405, 2466191201, -143.7922821044922, -81.99877166748047, -62.80816650390625, -0.11688599, -0.41408715, 0.27439213
406, 2466207868, -144.4307098388672, -81.92314147949219, -62.10817337036133, -0.3168159, -0.4506486, 0.20325184
407, 2466224535, -145.06088256835938, -81.84303283691406, -61.526973724365234, -0.18853474, -0.29491842, 0.06397915
408, 2466241202, -145.7154541015625, -81.74883270263672, -60.93940734863281, 0.086195596, -0.0696886, 0.08381176
409, 2466257869, -146.327880859375, -81.6712875366211, -60.336517333984375, -4.9083447E-4, 0.3370383, 0.10344219
410, 2466274536, -146.90541076660156, -81.6213607788086, -59.684078216552734, -0.2158973, 0.67064667, 0.044926643
411, 2466291203, -147.40380859375, -81.58282470703125, -59.019283294677734, -0.42485917, 0.5023822, 0.12237549
412, 2466307870, -147.8224334716797, -81.55401611328125, -58.448543548583984, -0.76080537, 0.091965415, 0.29820824
413, 2466324537, -148.12081909179688, -81.55835723876953, -58.1278190612793, -0.9845521, -0.26600075, 0.44116402
414, 2466341204, -148.20529174804688, -81.60504150390625, -58.195465087890625, -1.0302731, -0.17796974, 0.41146183
415, 2466357871, -148.09613037109375, -81.691162109375, -58.557594299316406, -0.5475018, 0.16463271, 0.27565575
416, 2466374538, -147.83380126953125, -81.78764343261719, -59.01717758178711, -0.18701608, 0.38034955, 0.16446495
417, 2466391205, -147.47311401367188, -81.8713150024414, -59.4395866394043, 0.10572262, 0.47384474, 0.22228146
418, 2466407872, -147.06883239746094, -81.94902038574219, -59.76341247558594, 0.37314963, 0.42450178, 0.32382488
419, 2466424539, -146.6597900390625, -82.03053283691406, -59.96820068359375, 0.36792222, 0.10298505, 0.2607441
420, 2466441206, -146.31541442871094, -82.1094970703125, -60.07002639770508, 0.099663615, -0.18645948, 0.012477875
421, 2466457873, -146.08816528320312, -82.16799926757812, -60.087646484375, 0.26621583, -0.25918433, -0.013210297
422, 2466474540, -145.92478942871094, -82.20336151123047, -60.07006072998047, 0.2965332, -0.26129955, 0.12330341
423, 2466491207, -145.7944793701172, -82.2192153930664, -60.01485061645508, 0.11038165, -0.24632178, 0.22533035
424, 2466507874, -145.6313018798828, -82.23330688476562, -59.97584915161133, -0.113995545, -0.08566665, 0.27518559
425, 2466524541, -145.35995483398438, -82.26305389404297, -60.03461837768555, -0.51006687, 0.1041268, 0.23797703
426, 2466541208, -145.00479125976562, -82.30767059326172, -60.173789978027344, -0.5761421, 0.11897997, 0.17624664
427, 2466557875, -144.51490783691406, -82.36467742919922, -60.46153259277344, -0.6043737, 0.227378, 0.27284908
428, 2466574542, -143.8152618408203, -82.45430755615234, -60.96603012084961, -0.698446, 0.24271809, 0.34217548
429, 2466591209, -142.8792724609375, -82.57974243164062, -61.727596282958984, -0.718793, 0.1807675, 0.2657833
430, 2466607876, -141.74826049804688, -82.73796081542969, -62.799293518066406, -0.4191102, 0.013386303, 0.26870823
431, 2466624543, -140.3046875, -82.92529296875, -64.32754516601562, -0.507465, 0.041962266, 0.24838448
432, 2466641210, -138.6375274658203, -83.13007354736328, -66.13358306884766, -0.5226277, 0.06522711, 0.18164349
433, 2466657877, -136.76199340820312, -83.35276794433594, -68.22062683105469, -0.07895034, -0.04304893, 0.1534357
434, 2466674544, -134.71640014648438, -83.5776138305664, -70.55170440673828, -0.034462612, 0.06781355, 0.077246666
435, 2466691211, -132.65234375, -83.7815170288086, -72.90057373046875, 0.067238525, -0.035089243, 0.0793829
436, 2466707878, -130.59205627441406, -83.95613098144531, -75.23480987548828, 0.23134188, -0.120768465, 0.15738964
437, 2466724545, -128.61114501953125, -84.10991668701172, -77.46100616455078, 0.4868243, -0.15449451, 0.19971561
438, 2466741212, -126.86286926269531, -84.23816680908203, -79.42434692382812, 0.6335853, -0.25716513, 0.04314518
439, 2466757879, -125.39012908935547, -84.35472106933594, -81.22418975830078, 0.87385565, -0.30172557, 0.024757385
440, 2466774546, -124.29955291748047, -84.47547149658203, -82.69112396240234, 0.8068376, -0.010346023, -0.15461922
441, 2466791213, -123.61151885986328, -84.59691619873047, -83.72527313232422, 1.0001161, -0.28417096, -0.21185493
442, 2466807880, -123.59746551513672, -84.66696166992188, -84.08169555664062, 0.017778387, -1.2473512, -0.0895977
443, 2466824547, -123.624755859375, -84.68658447265625, -84.69554138183594, -1.3152186, -1.2985905, 0.33285713
444, 2466841214, -123.20774841308594, -84.70513153076172, -86.04531860351562, -1.2741551, -0.43554607, 0.56582546
445, 2466857881, -122.428466796875, -84.76250457763672, -87.73438262939453, 0.17861639, 0.7493702, 0.2926464
446, 2466874548, -121.79627990722656, -84.8202133178711, -88.86605834960938, 1.3799438, 1.1679662, 0.015224457
447, 2466891215, -121.58941650390625, -84.83214569091797, -89.06940460205078, 1.7478812, 0.9534419, 0.02819252
448, 2466907882, -122.2171630859375, -84.81144714355469, -88.18209838867188, 1.9749951, 0.30333054, 0.18414211
449, 2466924549, -124.455322265625, -84.7587661743164, -85.71902465820312, 2.2406688, -0.78727895, 0.1459589
450, 2466941216, -127.83151245117188, -84.67387390136719, -82.23489379882812, 1.3167295, -1.7170211, -0.13175678
451, 2466957883, -131.67181396484375, -84.51073455810547, -78.49188232421875, 0.17920001, -1.6182482, -0.31864548
452, 2466974550, -135.2700958251953, -84.31877136230469, -75.2564468383789, -0.498626, -0.5833894, -0.15189934
453, 2466991217, -139.08282470703125, -84.08274841308594, -71.93753051757812, 0.55444825, 0.07893014, -0.07127094
454, 2467007884, -143.37522888183594, -83.750732421875, -68.0553970336914, 1.8524522, 0.29637936, 0.17868328
455, 2467024551, -148.281494140625, -83.26143646240234, -63.265899658203125, 2.7680323, 0.28231436, 0.3187313
456, 2467041218, -152.8909454345703, -82.67434692382812, -58.37318801879883, 2.5423393, 0.26280943, 0.17652893
457, 2467057885, -156.45172119140625, -82.10099029541016, -54.205562591552734, 0.48353273, 0.37544146, -0.3833828
458, 2467074552, -159.3924560546875, -81.57028198242188, -50.625675201416016, -1.5871954, 0.5655221, -0.7053518
459, 2467091219, -162.22897338867188, -81.01029968261719, -47.519493103027344, -1.9805738, 0.3417198, -0.53888416
460, 2467107886, -165.1251220703125, -80.38487243652344, -44.89059829711914, -0.59624165, -0.13736625, 0.43038654
461, 2467124553, -167.87368774414062, -79.74740600585938, -42.590946197509766, 0.55298626, -0.03761421, 0.99346447
462, 2467141220, -170.3206329345703, -79.14900970458984, -40.430145263671875, 1.1962575, 0.08780986, 0.44490337
463, 2467157887, -172.4131622314453, -78.61590576171875, -38.328102111816406, 0.6779201, 0.73583955, -0.4629507
464, 2467174554, -174.281494140625, -78.03498077392578, -36.15568161010742, -0.27927738, 1.0031635, -0.9045973
465, 2467191221, -175.9685516357422, -77.37511444091797, -33.999385833740234, -0.38622588, 0.42225564, -0.49680805
466, 2467207888, -177.36585998535156, -76.68238830566406, -32.1921272277832, -0.69140774, -0.47219157, 0.22144318
467, 2467224555, -178.5483856201172, -75.9650650024414, -30.830650329589844, -0.08933472, -1.1335953, 0.762784
468, 2467241222, -179.44473266601562, -75.3143081665039, -29.9184627532959, 0.49424642, -1.4214554, 0.009817123
469, 2467257889, 179.7929229736328, -74.68365478515625, -29.247690200805664, -0.046416406, -0.6082335, -0.4857359
470, 2467274556, 178.92507934570312, -74.02110290527344, -28.504446029663086, -0.10090515, 0.07686242, -0.58182144
471, 2467291223, 177.99917602539062, -73.31269073486328, -27.684167861938477, -0.45799282, 0.8627086, -0.29777908
472, 2467307890, 177.1473846435547, -72.55252075195312, -26.85783576965332, 0.2622602, 0.38150662, -0.12148476
473, 2467324557, 176.45635986328125, -71.81815338134766, -26.15755844116211, -0.2863606, -0.040903542, -0.038303375
474, 2467341224, 175.7845001220703, -71.06340789794922, -25.554203033447266, -0.35715485, -0.16699278, -0.1724472
475, 2467357891, 175.04945373535156, -70.30359649658203, -24.951852798461914, 0.4156806, 0.14031686, -0.29080296
476, 2467374558, 174.39181518554688, -69.6028823852539, -24.30794906616211, 0.1712504, 0.7073346, 0.18600082
477, 2467391225, 173.93789672851562, -68.87894439697266, -23.615476608276367, 0.1196217, 0.119576864, 0.047275543
478, 2467407892, 173.61341857910156, -68.08564758300781, -22.9516658782959, -1.3747636, 0.64344686, -0.083683014
479, 2467424559, 173.34707641601562, -67.19583892822266, -22.40565299987793, -0.72108185, 0.092640534, -0.48756504
480, 2467441226, 173.12713623046875, -66.23912811279297, -21.960994720458984, 0.12623358, -0.17269886, -0.66310215
481, 2467457893, 172.85186767578125, -65.2675552368164, -21.50657844543457, -0.6141682, 0.5083412, 0.36037827
482, 2467474560, 172.5487823486328, -64.3440933227539, -20.977880477905273, 0.72383475, -0.28328657, 0.7049351
483, 2467491227, 172.35922241210938, -63.53984451293945, -20.485626220703125, -0.03021381, -0.014825167, 0.73842907
484, 2467507894, 172.4016876220703, -62.81620407104492, -20.090885162353516, -0.0121400785, -0.7667281, -0.0111866
485, 2467524561, 172.5022735595703, -62.13029861450195, -19.866199493408203, -1.5978242, 0.022871299, 0.16892147
486, 2467541228, 172.52857971191406, -61.4500732421875, -19.84389877319336, -0.9363766, -0.14829771, 0.8095989
487, 2467557895, 172.4156036376953, -60.812255859375, -19.79845428466797, -0.6962832, -0.004160694, 0.81542397
488, 2467574562, 172.27572631835938, -60.20600128173828, -19.786033630371094, 0.47564697, -0.40103006, 0.6095457
489, 2467591229, 172.1450653076172, -59.724212646484375, -19.805267333984375, 0.07543141, 0.020850295, 0.68406487
490, 2467607896, 171.99600219726562, -59.35981369018555, -19.842082977294922, -0.25041983, 0.4073194, 0.5755625
491, 2467624563, 171.9385528564453, -59.03755187988281, -19.853086471557617, -0.74786633, 0.7732218, 0.48269653
492, 2467641230, 172.05325317382812, -58.70026397705078, -19.898178100585938, -0.662467, 0.62497026, 0.3677969
493, 2467657897, 172.17608642578125, -58.34974670410156, -19.934751510620117, -0.6281532, 0.48610994, 0.4766264
494, 2467674564, 172.13812255859375, -58.030216217041016, -19.906265258789062, -0.19137752, 0.18952155, 0.430768
495, 2467691231, 172.08627319335938, -57.807533264160156, -19.91400718688965, -0.32648453, 0.21307178, 0.9032345
496, 2467707898, 172.13633728027344, -57.676937103271484, -19.966064453125, -0.46014002, 0.260155, 0.6268158
497, 2467724565, 172.1545867919922, -57.54036331176758, -19.921144485473633, -0.43999016, 0.27177587, -0.13849258
498, 2467741232, 172.21864318847656, -57.37662887573242, -19.88606071472168, -0.3994634, 0.06425495, 0.21625423
499, 2467757899, 172.27577209472656, -57.23538589477539, -19.930274963378906, -0.2420328, -0.25036412, 0.6285057
500, 2467774566, 172.15316772460938, -57.12872314453125, -19.936676025390625, 0.029608231, -0.27582896, 0.35596085
501, 2467791233, 172.01568603515625, -57.093162536621094, -19.94147491455078, -0.32858217, 0.20147581, 0.4511385
502, 2467807900, 171.92974853515625, -57.07283020019531, -19.94231605529785, -0.36983946, 0.31503972, 0.122823715
503, 2467824567, 171.90769958496094, -57.01642608642578, -19.938777923583984, -0.08381448, 0.33758336, -0.07468891
504, 2467841234, 171.9590606689453, -56.947242736816406, -19.95850372314453, -0.0047830376, 0.44080967, 0.16755009
505, 2467857901, 172.05601501464844, -56.90134811401367, -19.974151611328125, -0.14107604, 0.21883605, 0.56037235
506, 2467874568, 172.06700134277344, -56.87512969970703, -19.926780700683594, -0.2507642, 0.17583182, 0.24542141
507, 2467891235, 172.06101989746094, -56.86626434326172, -19.868976593017578, -0.3613935, 0.017341252, 0.101662636
508, 2467907902, 172.04534912109375, -56.87529373168945, -19.84821891784668, -0.32880765, -0.19997168, 0.3021183
509, 2467924569, 171.9459228515625, -56.88208770751953, -19.847320556640625, -0.34091195, -0.40396434, 0.15394402
510, 2467941236, 171.8565216064453, -56.87781524658203, -19.879398345947266, -0.2818216, -0.6614284, 0.021341324
511, 2467957903, 171.83648681640625, -56.887454986572266, -20.011856079101562, -0.41244614, -0.8491724, 0.34391403
512, 2467974570, 171.76832580566406, -56.91960906982422, -20.215055465698242, -0.13321607, -0.5779047, 0.26678467
513, 2467991237, 171.74951171875, -56.96120834350586, -20.45351791381836, 0.0136556355, -0.18867667, 0.07575226
514, 2468007904, 171.9843292236328, -56.983123779296875, -20.742494583129883, -0.33992496, -0.17043959, 0.14812279
515, 2468024571, 172.2271270751953, -56.97968673706055, -21.034818649291992, -0.304081, 0.10298527, 0.08016205
516, 2468041238, 172.4396514892578, -56.976539611816406, -21.32501792907715, 0.4263419, 0.27898675, 0.10033035
517, 2468057905, 172.7787322998047, -56.9993896484375, -21.632463455200195, 0.23182462, 0.11655698, 0.374238
518, 2468074572, 173.1371307373047, -57.02695846557617, -21.913583755493164, -0.14206529, -0.28762317, 0.25802326
519, 2468091239, 173.3372344970703, -57.05563735961914, -22.169748306274414, -0.4350318, -0.179729, 0.113134384
520, 2468107906, 173.38404846191406, -57.092533111572266, -22.435258865356445, -0.22780247, 0.14228141, 0.2666397
521, 2468124573, 173.34254455566406, -57.1458740234375, -22.682861328125, -0.10837138, 0.4063735, 0.39409256
522, 2468141240, 173.36033630371094, -57.21111297607422, -22.92257308959961, 0.30212417, 0.5024985, 0.31046295
523, 2468157907, 173.49620056152344, -57.30256271362305, -23.150726318359375, 0.33726814, 0.761476, 0.20659065
524, 2468174574, 173.75328063964844, -57.39528274536133, -23.309974670410156, -0.022301717, 0.55208564, 0.10255909
525, 2468191241, 173.972412109375, -57.47672653198242, -23.391756057739258, 0.07111637, 0.49672222, 0.14103413
526, 2468207908, 174.180419921875, -57.5882568359375, -23.46621322631836, -0.026102863, 0.6152838, 0.38538265
527, 2468224575, 174.4032440185547, -57.71643829345703, -23.4726619720459, -0.29072654, 0.6958132, 0.30921745
528, 2468241242, 174.5375213623047, -57.86198425292969, -23.380895614624023, -0.24097538, 0.79550767, 0.29564667
529, 2468257909, 174.65589904785156, -58.04573440551758, -23.261926651000977, -0.33677366, 0.6912705, 0.5938215
530, 2468274576, 174.7309112548828, -58.288902282714844, -23.100419998168945, -0.2312664, 0.37441382, 0.650733
531, 2468291243, 174.72801208496094, -58.59327697753906, -22.912574768066406, -0.3304213, 0.28784558, 0.62773514
532, 2468307910, 174.7315673828125, -58.952327728271484, -22.715839385986328, -0.9390243, 0.33882016, 0.6819477
533, 2468324577, 174.7201385498047, -59.3294677734375, -22.52027130126953, -0.7852902, 0.33400568, 0.16584206
534, 2468341244, 174.72406005859375, -59.70181655883789, -22.367279052734375, -0.3476353, 0.31622323, 0.2521162
535, 2468357911, 174.81927490234375, -60.129661560058594, -22.28957748413086, -0.03378767, 0.19994172, 0.86462784
536, 2468374578, 175.09625244140625, -60.6678581237793, -22.259672164916992, -0.52208155, -0.34983712, 0.73323154
537, 2468391245, 175.43182373046875, -61.297855377197266, -22.28217315673828, -0.83378744, -0.5328773, 0.36376476
538, 2468407912, 175.79754638671875, -61.94209289550781, -22.452272415161133, -1.5529313, -0.17017002, 0.65442085
539, 2468424579, 176.11618041992188, -62.57712173461914, -22.68978500366211, -1.6908497, -0.07977714, 0.18616962
540, 2468441246, 176.28224182128906, -63.19182586669922, -22.9373836517334, -0.87259257, 0.26492834, -0.06798172
541, 2468457913, 176.6046142578125, -63.84817123413086, -23.306177139282227, 0.44749844, 0.23178098, 0.6187115
542, 2468474580, 177.30178833007812, -64.67256164550781, -23.93912124633789, 1.3541301, -0.19152568, 1.1062775
543, 2468491247, 178.4059600830078, -65.72647094726562, -24.837915420532227, 0.2007221, -0.3520253, 1.3673172
544, 2468507914, 179.67459106445312, -66.84310913085938, -25.826797485351562, -2.7412555, 0.06989094, 0.3178997
545, 2468524581, -179.4796905517578, -67.77740478515625, -26.64986801147461, -2.9035883, 0.19566213, -1.8370285
546, 2468541248, -179.25119018554688, -68.49098205566406, -27.1900691986084, -1.3897797, 0.5874776, -1.5516491
547, 2468557915, -178.98643493652344, -69.20313262939453, -27.870054244995117, -0.33387676, 0.42246485, 0.847785
548, 2468574582, -178.04269409179688, -70.29043579101562, -29.153108596801758, 2.3649976, -0.65884894, 2.0348988
549, 2468591249, -176.64520263671875, -71.64842224121094, -30.91803741455078, 0.34032908, 1.0877969, 1.5497627
550, 2468607916, -174.72381591796875, -72.90924835205078, -32.78645706176758, -1.7451824, -0.18766785, -1.6136665
551, 2468624583, -173.36460876464844, -74.00823974609375, -34.41916275024414, -0.28720522, 0.70690536, -3.1439657
552, 2468641250, -172.17666625976562, -74.95630645751953, -35.9769172668457, 0.56934005, 0.38048637, -0.9825096
553, 2468657917, -169.91885375976562, -76.07977294921875, -38.536502838134766, 0.94534826, -0.60300833, 1.9843235
554, 2468674584, -166.8483428955078, -77.53865814208984, -42.40774917602539, 1.8682947, -1.05983, 1.5555906
555, 2468691251, -163.81935119628906, -78.66050720214844, -46.1419677734375, -1.118416, 0.15481368, -1.7507439
556, 2468707918, -161.7030792236328, -79.51187133789062, -48.90302276611328, 0.7259302, 0.9135623, -3.043592
557, 2468724585, -160.66000366210938, -79.93451690673828, -50.42332458496094, 3.2189171, 1.5195341, -1.6748838
558, 2468741252, -159.81707763671875, -80.08551025390625, -50.93353271484375, 2.584759, 0.24667789, 0.8981552
559, 2468757919, -158.3432159423828, -80.46450805664062, -51.45104217529297, 2.1875541, -0.011650613, 2.3082485
560, 2468774586, -155.419677734375, -81.08447265625, -53.12697982788086, 1.3476156, -0.90699625, 0.16819
561, 2468791253, -152.06463623046875, -81.53921508789062, -55.35479736328125, 0.39709094, -1.1107324, -1.5889187
562, 2468807920, -149.82362365722656, -81.63571166992188, -56.821014404296875, 0.3683845, -1.2313613, -1.4170942
563, 2468824587, -149.8866729736328, -81.53455352783203, -56.41797637939453, -0.24716356, -1.2501447, 0.3951292
564, 2468841254, -150.25717163085938, -81.5625991821289, -55.96160888671875, -0.43500295, -0.8864848, 1.5454893
565, 2468857921, -149.235107421875, -81.7537841796875, -57.02109909057617, -0.314527, -0.5017137, 0.5779619
566, 2468874588, -147.32740783691406, -81.9348373413086, -58.97019577026367, 0.15006465, -0.24783659, -0.6432619
567, 2468891255, -145.69595336914062, -82.00724029541016, -60.543479919433594, 0.46731922, 0.3678929, -0.7470932
568, 2468907922, -145.0123291015625, -82.00760650634766, -61.020206451416016, 0.3890613, 0.78916997, -0.03824711
569, 2468924589, -144.66647338867188, -82.03398132324219, -61.06283950805664, 0.099975444, 0.64957464, 0.45876598
570, 2468941256, -143.88682556152344, -82.13104248046875, -61.48169708251953, -0.0833101, 0.051793594, 0.37550068
571, 2468957923, -142.65908813476562, -82.24774932861328, -62.4428825378418, -0.7054464, -0.3495908, 0.07726097
572, 2468974590, -141.4359130859375, -82.353271484375, -63.55950927734375, -0.9810338, -0.49367815, 0.09948921
573, 2468991257, -140.22972106933594, -82.45985412597656, -64.81682586669922, -0.82911474, -0.28002217, 0.37114048
574, 2469007924, -138.91468811035156, -82.57942199707031, -66.23786163330078, -0.46897063, -0.022974394, 0.54452324
575, 2469024591, -137.32220458984375, -82.7137451171875, -67.90322875976562, 0.05478223, 0.1529526, 0.32322025
576, 2469041258, -135.49066162109375, -82.8384017944336, -69.70111083984375, 0.5289509, 0.21012062, -0.014862061
577, 2469057925, -133.67425537109375, -82.93431091308594, -71.37010192871094, 0.6921078, 0.06871542, -0.16548443
578, 2469074592, -132.1598663330078, -83.00142669677734, -72.69465637207031, 0.53841335, -0.10270152, -0.034861565
579, 2469091259, -130.89036560058594, -83.05200958251953, -73.77924346923828, 0.4199483, -0.1668503, 0.24163532
580, 2469107926, -129.60049438476562, -83.09712219238281, -74.91630554199219, 0.5362206, -0.23496889, 0.30497742
581, 2469124593, -128.46871948242188, -83.12459564208984, -75.94229125976562, 0.6503646, -0.2085567, 0.16322899
582, 2469141260, -127.60047912597656, -83.13416290283203, -76.73538208007812, 0.67111355, -0.26930544, -0.03905487
583, 2469157927, -127.10166931152344, -83.12710571289062, -77.1681900024414, 0.5669822, -0.10747392, -0.04216194
584, 2469174594, -126.88555908203125, -83.11689758300781, -77.31104278564453, 0.40030187, -0.083757065, 0.084251404
585, 2469191261, -126.85423278808594, -83.1031494140625, -77.27536010742188, 0.20132433, -0.12292397, 0.1416874
586, 2469207928, -126.90939331054688, -83.0868148803711, -77.18365478515625, 0.032553826, -0.14142413, 0.14288998
587, 2469224595, -127.01753234863281, -83.07327270507812, -77.05286407470703, 0.0051708184, -0.0857926, 0.08035374
588, 2469241262, -127.16334533691406, -83.06553649902344, -76.89698791503906, 0.02772262, -0.03633119, 0.03286457
589, 2469257929, -127.35188293457031, -83.05118560791016, -76.72470092773438, -0.07586295, 0.042883474, 0.16761875
590, 2469274596, -127.5251235961914, -83.03572845458984, -76.58568572998047, -0.18030827, 0.20346965, 0.3341055
591, 2469291263, -127.6465072631836, -83.03553771972656, -76.48258972167969, -0.16622692, 0.29887286, 0.33747578
592, 2469307930, -127.69950103759766, -83.05093383789062, -76.4139175415039, -0.059377544, 0.23803174, 0.18494606
593, 2469324597, -127.77523040771484, -83.0691909790039, -76.30081939697266, -0.00817046, 0.07077716, 0.10095215
594, 2469341264, -127.82366180419922, -83.08344268798828, -76.2078628540039, -0.041105665, -0.0270354, 0.17945671
595, 2469357931, -127.84011840820312, -83.10169982910156, -76.17251586914062, -0.0918121, -0.101950295, 0.24591732
596, 2469374598, -127.82857513427734, -83.12348175048828, -76.19972229003906, -0.11612772, -0.16257438, 0.16476727
597, 2469391265, -127.78509521484375, -83.13907623291016, -76.26473999023438, 0.0036036714, -0.116775855, 0.12251854
598, 2469407932, -127.72184753417969, -83.14537048339844, -76.32360076904297, 0.20278682, -0.04418745, 0.16462898
599, 2469424599, -127.70211029052734, -83.14694213867188, -76.29588317871094, 0.32084772, 0.020110913, 0.171175
600, 2469441266, -127.7670669555664, -83.15186309814453, -76.13481140136719, 0.34865007, -0.01085228, 0.06380558
601, 2469457933, -127.96134185791016, -83.15034484863281, -75.83309173583984, 0.22327387, -0.10515804, 0.017168999
602, 2469474600, -128.17831420898438, -83.1339340209961, -75.5311050415039, 0.0491094, -0.14871474, 0.14147854
603, 2469491267, -128.41156005859375, -83.1129150390625, -75.25495147705078, -0.065438055, -0.14920378, 0.26419926
604, 2469507934, -128.6541290283203, -83.0970687866211, -75.01544952392578, -0.07556161, -0.08329439, 0.22518158
605, 2469524601, -128.91746520996094, -83.08329772949219, -74.78132629394531, -0.025024105, -0.012990965, 0.15850163
606, 2469541268, -129.16976928710938, -83.06986999511719, -74.54219818115234, 0.028211204, 0.061788816, 0.17191696
607, 2469557935, -129.41197204589844, -83.06005096435547, -74.29198455810547, 0.04117131, 0.07821344, 0.2038145
608, 2469574602, -129.68324279785156, -83.0538101196289, -74.00821685791016, 0.023105204, 0.03132601, 0.18776321
609, 2469591269, -129.9806365966797, -83.04774475097656, -73.71614074707031, -0.029495118, -0.04134576, 0.14643478
610, 2469607936, -130.24142456054688, -83.0376205444336, -73.4927978515625, -0.011927391, -0.08149685, 0.16096115
611, 2469624603, -130.44100952148438, -83.02680969238281, -73.36064910888672, 0.033564158, -0.09442931, 0.20597172
612, 2469641270, -130.6435089111328, -83.01416015625, -73.2558822631836, 0.042715617, -0.17662787, 0.18057442
613, 2469657937, -130.93763732910156, -82.99685668945312, -73.0986328125, 0.12711737, -0.2031416, 0.14839077
614, 2469674604, -131.28591918945312, -82.97083282470703, -72.91497039794922, 0.16147238, -0.14429058, 0.12742138
615, 2469691271, -131.7027587890625, -82.93683624267578, -72.65669250488281, 0.2537232, -0.07274436, 0.15199089
616, 2469707938, -132.124755859375, -82.89847564697266, -72.35240173339844, 0.31254503, -0.071708545, 0.14311981
617, 2469724605, -132.63421630859375, -82.8517837524414, -71.94615936279297, 0.20225748, -0.12554142, 0.14517784
618, 2469741272, -133.2342987060547, -82.79805755615234, -71.4560317993164, 0.0820779, -0.14161848, 0.16073227
619, 2469757939, -133.84852600097656, -82.74069213867188, -70.96988677978516, 0.030618886, -0.092544705, 0.20078945
620, 2469774606, -134.4595489501953, -82.67908477783203, -70.48847198486328, 0.03031991, -0.0235277, 0.17558193
621, 2469791273, -135.0620880126953, -82.61759185791016, -69.99176025390625, 0.04277968, 0.017990334, 0.15218353
622, 2469807940, -135.57501220703125, -82.55171203613281, -69.56050872802734, -0.004063773, 0.0046220245, 0.21009731
623, 2469824607, -136.04437255859375, -82.4853744506836, -69.14183807373047, -0.0788616, 0.03065441, 0.31299686
624, 2469841274, -136.43177795410156, -82.42866516113281, -68.77935028076172, -0.06953388, 0.02082459, 0.25097084
625, 2469857941, -136.7852020263672, -82.3731918334961, -68.44206237792969, -0.09729504, 0.039688636, 0.19809628
626, 2469874608, -137.13136291503906, -82.31829833984375, -68.11056518554688, -0.15835477, 0.03696055, 0.13739872
627, 2469891275, -137.4407196044922, -82.27229309082031, -67.80008697509766, -0.09088422, 0.11933005, 0.1406002
628, 2469907942, -137.6790313720703, -82.23448944091797, -67.5517807006836, -0.08185058, 0.11370009, 0.1760416
629, 2469924609, -137.8405303955078, -82.20109558105469, -67.36576080322266, -0.18995681, 0.08813412, 0.2674532
630, 2469941276, -137.99005126953125, -82.18074035644531, -67.19271087646484, -0.23537104, 0.08560792, 0.24069118
631, 2469957943, -138.11050415039062, -82.17261505126953, -67.05137634277344, -0.26640946, 0.095434554, 0.17463589
632, 2469974610, -138.15188598632812, -82.17870330810547, -66.98729705810547, -0.23750749, 0.14423901, 0.11840725
633, 2469991277, -138.1313934326172, -82.19023895263672, -66.97505187988281, -0.2811907, 0.14400174, 0.13136005
634, 2470007944, -138.00794982910156, -82.2131118774414, -67.04109191894531, -0.34801784, 0.13285041, 0.20616531
635, 2470024611, -137.7862091064453, -82.2502212524414, -67.20581817626953, -0.39604053, 0.13305737, 0.23360157
636, 2470041278, -137.45895385742188, -82.29991912841797, -67.44952392578125, -0.3493788, 0.104580425, 0.18487549
637, 2470057945, -137.04608154296875, -82.35404205322266, -67.74200439453125, -0.21548955, 0.12608522, 0.16157627
638, 2470074612, -136.55233764648438, -82.41590118408203, -68.080078125, -0.11965941, 0.11182364, 0.18217564
639, 2470091279, -135.9962615966797, -82.48412322998047, -68.463623046875, -0.14124325, 0.0650872, 0.14390278
640, 2470107946, -135.3875732421875, -82.55776977539062, -68.910400390625, -0.22828218, 0.008519643, 0.13763428
641, 2470124613, -134.74623107910156, -82.63276672363281, -69.42788696289062, -0.2689165, -0.067520864, 0.1544323
642, 2470141280, -134.015625, -82.71067810058594, -70.05329132080078, -0.11863362, -0.06935339, 0.19124413
643, 2470157947, -133.2086944580078, -82.79448699951172, -70.77485656738281, -0.056827456, -0.089442454, 0.15945148
644, 2470174614, -132.34359741210938, -82.87666320800781, -71.56202697753906, -0.09441669, -0.041426226, 0.21722412
645, 2470191281, -131.42649841308594, -82.96480560302734, -72.41089630126953, 0.055584405, 0.011888263, 0.26364803
646, 2470207948, -130.47059631347656, -83.07147979736328, -73.3694839477539, 0.19942586, 0.010037688, 0.23235798
647, 2470224615, -129.50848388671875, -83.18370056152344, -74.3931884765625, 0.06320818, -0.07179069, 0.13380814
648, 2470241282, -128.58291625976562, -83.3030014038086, -75.51897430419922, 0.23337604, -0.2898108, 0.06151867
649, 2470257949, -127.69801330566406, -83.40528106689453, -76.7200927734375, 0.05098674, -0.360363, 0.067445755
650, 2470274616, -126.88919067382812, -83.48741912841797, -77.91847229003906, -0.12536465, -0.3613891, 0.19713306
651, 2470291283, -125.82026672363281, -83.5933609008789, -79.60476684570312, 0.46649277, -0.70420486, 0.32382774
652, 2470307950, -124.90398406982422, -83.68962860107422, -81.30381774902344, 0.16881078, -0.42239502, -0.017787933
653, 2470324617, -124.65638732910156, -83.74452209472656, -82.22109985351562, 0.39592353, -0.2574543, -0.2995224
654, 2470341284, -124.84476470947266, -83.75926971435547, -82.53631591796875, 0.69449973, -0.01633198, -0.06735039
655, 2470357951, -125.03516387939453, -83.78511047363281, -82.66409301757812, 0.058099512, 0.06444901, 0.26307392
656, 2470374618, -125.1436538696289, -83.84049987792969, -82.8741683959961, -0.9218127, -0.045630503, 0.28123188
657, 2470391285, -125.27468872070312, -83.91362762451172, -83.23402404785156, -1.4279553, -0.28534758, 0.24793243
658, 2470407952, -125.57584381103516, -83.95928192138672, -83.7271728515625, -1.0970588, -0.24461414, 0.29711342
659, 2470424619, -125.94926452636719, -83.98643493652344, -84.26522827148438, -0.42671737, -0.060858555, 0.45818996
660, 2470441286, -126.21542358398438, -84.01765441894531, -84.76123046875, 0.16613688, 0.4577286, 0.52778625
661, 2470457953, -126.39791107177734, -84.0822525024414, -84.98655700683594, 0.30259144, 1.1530273, 0.50106907
662, 2470474620, -126.65513610839844, -84.19420623779297, -84.73665618896484, 0.5063219, 1.2580885, 0.030511856
663, 2470491287, -127.36510467529297, -84.31438446044922, -83.77713775634766, 0.3283469, 0.8168259, -0.27935886
664, 2470507954, -128.17324829101562, -84.40553283691406, -82.6795425415039, 0.09440271, 0.20060846, 0.06660843
665, 2470524621, -129.0297088623047, -84.47224426269531, -81.6436767578125, 0.20541674, -0.39890358, 0.5891428
666, 2470541288, -130.01467895507812, -84.54177856445312, -80.59756469726562, 0.5604374, -0.6242939, 0.6083126
667, 2470557955, -131.5478973388672, -84.59575653076172, -79.10469055175781, 0.8386159, -0.24068534, 0.24259663
668, 2470574622, -133.85316467285156, -84.61897277832031, -76.80658721923828, 1.4858028, 0.40015423, -0.2766857
669, 2470591289, -136.53762817382812, -84.62403869628906, -73.86599731445312, 1.2462778, -0.09613996, -0.5866146
670, 2470607956, -139.39071655273438, -84.58101654052734, -70.71478271484375, 0.24236955, -0.56804466, -0.320755
671, 2470624623, -142.6654815673828, -84.46070098876953, -67.39778137207031, 0.13381223, -0.8811253, 0.31509495
672, 2470641290, -146.4015350341797, -84.26800537109375, -63.85481262207031, 0.50942475, -0.95815444, 0.43232346
673, 2470657957, -150.92291259765625, -83.99622344970703, -59.61182403564453, 0.73841816, -0.2647654, 0.171134
674, 2470674624, -155.6712188720703, -83.6374282836914, -54.97866439819336, 1.3135915, 0.34064728, -0.3509636
675, 2470691291, -159.71298217773438, -83.22514343261719, -50.7071418762207, 1.0352408, -0.16055651, -0.4330225
676, 2470707958, -163.05918884277344, -82.76483917236328, -47.0693473815918, -0.0036227817, -0.037605494, -0.31124306
677, 2470724625, -166.423828125, -82.22880554199219, -43.582496643066406, 0.27833626, -0.19911763, 0.04087448
678, 2470741292, -170.33555603027344, -81.54434204101562, -39.67131423950195, 1.4154437, 0.14683142, -0.12901306
679, 2470757959, -173.86424255371094, -80.68022918701172, -35.90635681152344, 2.0351925, -0.17421807, -0.27272892
680, 2470774626, -176.326171875, -79.77118682861328, -32.99187469482422, 1.6142842, -0.60739213, -0.5418558
681, 2470791293, -177.99853515625, -78.88004302978516, -30.8734073638916, 0.7114507, -0.94350326, -0.7468538
682, 2470807960, -179.45648193359375, -78.0130615234375, -29.242286682128906, 0.05625522, -0.6862156, -0.46233654
683, 2470824627, 178.9514923095703, -77.07499694824219, -27.75276756286621, 0.5648226, -0.59091777, -0.2933464
684, 2470841294, 177.39614868164062, -76.03730773925781, -26.4064884185791, 1.3495125, -0.38537478, -0.59984493
685, 2470857961, 176.2795867919922, -74.95895385742188, -25.326662063598633, 1.3691854, -0.37041909, -0.72765255
686, 2470874628, 175.68649291992188, -73.96672821044922, -24.603578567504883, 0.4638811, 0.21698906, -0.3468008
687, 2470891295, 175.39422607421875, -73.0112075805664, -24.05278778076172, -0.2571201, 0.22812223, 0.24039078
688, 2470907962, 175.06886291503906, -72.12357330322266, -23.47024917602539, -0.665561, 0.011309644, -0.24485207
689, 2470924629, 174.60777282714844, -71.15663146972656, -22.92428970336914, -1.0428668, 0.118947, -0.14951229
690, 2470941296, 174.1980743408203, -70.17285919189453, -22.479068756103516, -0.3966968, -0.28345007, 0.6743612
691, 2470957963, 173.93148803710938, -69.30345916748047, -22.24339485168457, -0.82113075, 0.28141746, 0.80115986
692, 2470974630, 173.89224243164062, -68.52601623535156, -22.167177200317383, -0.19183567, 0.15308402, 0.7048483
693, 2470991297, 173.96136474609375, -67.85830688476562, -22.105052947998047, -0.2969892, 0.3237897, -0.0021619797
694, 2471007964, 174.1270751953125, -67.14905548095703, -22.07051658630371, -0.76197207, 0.07962392, 0.024023056
695, 2471024631, 174.19515991210938, -66.4637222290039, -21.976333618164062, -1.1025777, -0.05401213, 0.09070587
696, 2471041298, 174.21728515625, -65.80622863769531, -21.98576545715332, -0.7897199, -0.27384415, 0.6047106
697, 2471057965, 174.29248046875, -65.20223236083984, -22.12438201904297, -0.6190736, -0.3402675, 0.8122835
698, 2471074632, 174.4797821044922, -64.67646789550781, -22.318517684936523, -0.6170758, -0.94668967, 0.022878647
699, 2471091299, 174.5841522216797, -64.19831085205078, -22.592241287231445, -0.41753033, -0.4633523, -0.28346157
700, 2471107966, 174.59898376464844, -63.747802734375, -22.94157600402832, -0.29208794, 0.34335455, 0.40538502
701, 2471124633, 174.60594177246094, -63.29322052001953, -23.245729446411133, 0.046660062, 0.45686865, 0.49157333
702, 2471141300, 174.7158966064453, -62.803890228271484, -23.45528793334961, 0.30427545, 0.11049788, -0.22457027
703, 2471157967, 174.99038696289062, -62.27078628540039, -23.64824676513672, 0.022104118, -0.14452615, -0.47757435
704, 2471174634, 175.36805725097656, -61.75952911376953, -23.955778121948242, -0.4385207, -0.17845173, 0.5399513
705, 2471191301, 175.577392578125, -61.367645263671875, -24.33949851989746, -0.3560126, 0.26705933, 1.1950521
706, 2471207968, 175.73162841796875, -61.033409118652344, -24.740211486816406, 0.13414454, 0.523862, 0.73491096
707, 2471224635, 176.07115173339844, -60.705013275146484, -25.057880401611328, -0.17389736, 0.587229, 0.02812004
708, 2471241302, 176.46678161621094, -60.31367111206055, -25.234182357788086, -0.7340207, 0.37500054, -0.53512573
709, 2471257969, 176.7745819091797, -59.880855560302734, -25.44407081604004, -0.7493218, 0.16437836, 0.13637352
710, 2471274636, 176.9900665283203, -59.50352096557617, -25.7548885345459, -0.34456658, 0.16401, 1.1182137
711, 2471291303, 177.12765502929688, -59.21125030517578, -26.104196548461914, 0.5763353, -0.16654319, 0.8915653
712, 2471307970, 177.37155151367188, -59.02665328979492, -26.4736270904541, -0.34276372, 0.1757697, 0.9810333
713, 2471324637, 177.60479736328125, -58.853214263916016, -26.65789794921875, -0.8400335, -0.13212197, -0.43768024
714, 2471341304, 177.5340118408203, -58.53204345703125, -26.638643264770508, -1.1122998, 0.6295074, -0.9886198
715, 2471357971, 177.53866577148438, -58.151084899902344, -26.70187759399414, -0.28401405, 0.30048668, 0.115130424
716, 2471374638, 177.65296936035156, -57.86233139038086, -26.84630012512207, -0.08624289, 0.17880209, 1.015439
717, 2471391305, 177.75607299804688, -57.67185592651367, -27.024681091308594, -0.34490672, 0.34597504, 1.1072359
718, 2471407972, 177.8734130859375, -57.53373718261719, -27.157527923583984, -0.18042348, 0.34311876, 0.49678898
719, 2471424639, 178.01695251464844, -57.36481475830078, -27.20369529724121, -0.09707542, 0.231592, -0.15815067
720, 2471441306, 178.10232543945312, -57.153751373291016, -27.172414779663086, -0.45422822, 0.16353549, -0.2273941
721, 2471457973, 178.08969116210938, -56.95505142211914, -27.10846519470215, -0.89293844, 0.3533922, 0.2841444
722, 2471474640, 178.01356506347656, -56.803855895996094, -27.079750061035156, -0.55405617, 0.5430399, 0.6955519
723, 2471491307, 178.00247192382812, -56.7082405090332, -27.083038330078125, -0.1170666, 0.463136, 0.66486263
724, 2471507974, 178.09628295898438, -56.65800094604492, -27.084814071655273, -0.31710592, 0.28661692, 0.7368393
725, 2471524641, 178.22689819335938, -56.63736343383789, -27.056060791015625, -0.70185786, -0.015713073, 0.66495514
726, 2471541308, 178.27798461914062, -56.624534606933594, -27.001802444458008, -0.8188861, 0.011721467, 0.43632412
727, 2471557975, 178.29547119140625, -56.63322830200195, -26.97569465637207, -0.64210486, 4.5384307E-4, 0.292531
728, 2471574642, 178.3367156982422, -56.68257141113281, -27.01384162902832, -0.6388032, -0.13463147, 0.46655178
729, 2471591309, 178.35076904296875, -56.79640579223633, -27.09015655517578, -0.6259288, -0.13379955, 0.60972214
730, 2471607976, 178.33197021484375, -56.96998977661133, -27.195737838745117, -0.45675603, 0.19677153, 0.61909866
731, 2471624643, 178.3938446044922, -57.17779541015625, -27.300168991088867, -0.412428, 0.24987407, 0.5691643
732, 2471641310, 178.52566528320312, -57.41436767578125, -27.36241340637207, -0.68509245, 0.35465863, 0.68965626
733, 2471657977, 178.635986328125, -57.68471908569336, -27.390460968017578, -0.6928642, 0.45743272, 0.6946993
734, 2471674644, 178.6889190673828, -58.000335693359375, -27.387256622314453, -0.392379, 0.3425198, 0.47080994
735, 2471691311, 178.68423461914062, -58.37266159057617, -27.359893798828125, -0.55255073, 0.469826, 0.5160408
736, 2471707978, 178.65589904785156, -58.80581283569336, -27.327415466308594, -0.6843643, 0.4768506, 0.6826372
737, 2471724645, 178.6239471435547, -59.31968307495117, -27.30254554748535, -0.5794374, 0.4724246, 0.77052975
738, 2471741312, 178.58642578125, -59.882808685302734, -27.253786087036133, -0.58216804, 0.48470014, 0.7051506
739, 2471757979, 178.522705078125, -60.50858688354492, -27.15627098083496, -1.0573425, 0.5697995, 0.73950577
740, 2471774646, 178.42327880859375, -61.18281173706055, -27.033296585083008, -1.016306, 0.66109794, 0.63234425
741, 2471791313, 178.3565673828125, -61.898834228515625, -26.934349060058594, -0.6095864, 0.63220686, 0.44073677
742, 2471807980, 178.4274444580078, -62.68779754638672, -26.86733055114746, -0.6256927, 0.38162547, 0.54527664
743, 2471824647, 178.6866912841797, -63.56513595581055, -26.882497787475586, -1.0198874, 0.0069160494, 0.68826485
744, 2471841314, 179.03866577148438, -64.50932312011719, -27.021547317504883, -1.280091, -0.030415978, 0.6647234
745, 2471857981, 179.4684295654297, -65.46990203857422, -27.294404983520508, -0.80393606, -0.55595094, 0.14335632
746, 2471874648, 179.96121215820312, -66.46261596679688, -27.709747314453125, -1.1502336, -0.337732, 0.12818146
747, 2471891315, -179.40235900878906, -67.47833251953125, -28.36283302307129, -1.0187513, -0.06518822, 0.053333282
748, 2471907982, -178.4500732421875, -68.50422668457031, -29.310518264770508, -0.37102127, -0.07201755, -0.0305624
749, 2471924649, -177.2047576904297, -69.53514099121094, -30.418357849121094, -0.39274243, -0.07651329, -0.13122559
750, 2471941316, -175.7322540283203, -70.56440734863281, -31.65486717224121, -0.31158072, -0.089941055, -0.11938
751, 2471957983, -173.93438720703125, -71.60127258300781, -33.15665817260742, -0.5934892, -0.16290663, 0.06611824
752, 2471974650, -171.9456329345703, -72.68062591552734, -34.972591400146484, -0.87748563, -0.2970295, -9.317398E-4
753, 2471991317, -169.8363800048828, -73.77507781982422, -37.0764274597168, -1.0172323, -0.03385618, -0.42678642
754, 2472007984, -167.64149475097656, -74.82107543945312, -39.424312591552734, -0.64605457, 0.065116145, -0.47686386
755, 2472024651, -165.04171752929688, -75.85205078125, -42.236175537109375, -0.5452152, 0.13483799, -0.3310671
756, 2472041318, -162.05384826660156, -76.92507934570312, -45.50357437133789, -0.25698, 0.5742272, -0.34690094
757, 2472057985, -158.78648376464844, -78.01791381835938, -49.168861389160156, 0.1323685, 0.842424, -0.5287447
758, 2472074652, -155.30194091796875, -79.08175659179688, -53.128570556640625, 1.166542, 0.58298224, -0.48041058
759, 2472091319, -151.80303955078125, -80.03433227539062, -57.14919662475586, 1.5625561, 0.5708139, -0.7107229
760, 2472107986, -148.20132446289062, -80.83209228515625, -61.131961822509766, 1.8450364, 0.49139872, -0.9029856
761, 2472124653, -144.40451049804688, -81.51677703857422, -65.1033706665039, 1.7965133, 0.036784813, -0.75643253
762, 2472141320, -140.2344207763672, -82.12837219238281, -69.32072448730469, 1.2938944, -0.70049816, -0.34875488
763, 2472157987, -135.86187744140625, -82.67750549316406, -73.82545471191406, 0.5275386, -1.1831044, -0.077233315
764, 2472174654, -131.34364318847656, -83.14079284667969, -78.71560668945312, 0.27718267, -1.1448026, 0.011981964
765, 2472191321, -126.44824981689453, -83.50113677978516, -84.09840393066406, 0.786494, -0.8014985, -0.012085915
766, 2472207988, -121.76663208007812, -83.72583770751953, -89.02574157714844, 1.5218, -0.20694667, -0.11452961
767, 2472224655, -117.75604248046875, -83.85063171386719, -92.91818237304688, 2.245449, -0.14425665, 0.006155014
768, 2472241322, -114.77774810791016, -83.900146484375, -95.50037384033203, 2.5562925, -0.30360535, 0.10686684
769, 2472257989, -113.25932312011719, -83.913818359375, -96.37408447265625, 3.0582774, -0.81605107, 0.05124569
770, 2472274656, -113.31879425048828, -83.91069793701172, -95.64324188232422, 2.3897195, -1.2868012, -0.11688042
771, 2472291323, -114.64482116699219, -83.8647689819336, -93.84503936767578, 1.1134433, -1.3339744, -0.0900259
772, 2472307990, -116.57552337646484, -83.78710174560547, -91.68810272216797, 0.3072472, -0.90169734, 0.026714325
773, 2472324657, -118.7300796508789, -83.71569061279297, -89.49663543701172, -0.1677647, -0.18867299, 0.10065174
774, 2472341324, -120.75689697265625, -83.64686584472656, -87.46041870117188, -0.39515093, 0.3610542, 0.13070583
775, 2472357991, -122.45030975341797, -83.5926513671875, -85.6657943725586, -0.5102018, 0.78346866, 0.1530714
776, 2472374658, -123.73585510253906, -83.56550598144531, -84.15662384033203, -0.65336347, 0.809688, 0.22720432
777, 2472391325, -124.53034973144531, -83.56778717041016, -83.08769226074219, -0.86656153, 0.544606, 0.31800365
778, 2472407992, -124.81671905517578, -83.59235382080078, -82.56664276123047, -0.9982139, 0.0053162556, 0.19536209
779, 2472424659, -124.74520874023438, -83.61831665039062, -82.5474853515625, -0.9977216, -0.21914797, 0.19945621
780, 2472441326, -124.40105438232422, -83.63668823242188, -82.94403076171875, -0.71161264, -0.1743468, 0.36324406
781, 2472457993, -123.77481842041016, -83.66181945800781, -83.63849639892578, 0.03539839, 0.12535807, 0.4019842
782, 2472474660, -123.09600830078125, -83.69709014892578, -84.29531860351562, 0.71121573, 0.23936506, 0.16298199
783, 2472491327, -122.72970581054688, -83.71456146240234, -84.52481842041016, 0.8855327, 0.09239741, 0.027708054
784, 2472507994, -122.6922607421875, -83.70698547363281, -84.33889770507812, 0.7227115, -0.09826507, 0.18404293
785, 2472524661, -122.83859252929688, -83.6883544921875, -83.90522766113281, 0.47149953, -0.2868844, 0.38251877
786, 2472541328, -123.16081237792969, -83.67832946777344, -83.33174133300781, 0.1283139, -0.3319236, 0.26524544
787, 2472557995, -123.62762451171875, -83.67637634277344, -82.73084259033203, -0.3172966, -0.2318458, 0.039420128
788, 2472574662, -123.98103332519531, -83.67215728759766, -82.3433609008789, -0.59436643, -0.10739669, -0.005707741
789, 2472591329, -124.02093505859375, -83.66243743896484, -82.32015991210938, -0.66503924, 0.044474553, 0.12201023
790, 2472607996, -123.79324340820312, -83.6670150756836, -82.59966278076172, -0.54616284, 0.14370541, 0.22113419
791, 2472624663, -123.39973449707031, -83.69398498535156, -83.05619049072266, -0.26197138, 0.16233154, 0.25914478
792, 2472641330, -122.78863525390625, -83.75045013427734, -83.73562622070312, 0.11019799, 0.09902775, 0.22151756
793, 2472657997, -121.99929809570312, -83.8174057006836, -84.6051254272461, 0.26045185, -0.15765107, 0.07394028
794, 2472674664, -121.53607177734375, -83.86646270751953, -85.20321655273438, 0.068087995, -0.3912871, -0.06957626
795, 2472691331, -121.41577911376953, -83.89424133300781, -85.56060028076172, -0.033936474, -0.43578908, 0.029716492
796, 2472707998, -121.44334411621094, -83.90941619873047, -85.8283462524414, 0.028691575, -0.2591953, 0.29566193
797, 2472724665, -121.4700698852539, -83.93656921386719, -86.1160659790039, 0.099091426, -0.15421987, 0.3081379
798, 2472741332, -121.48253631591797, -83.96414947509766, -86.42533874511719, 0.17722389, -0.20299894, 0.1737032
799, 2472757999, -121.53358459472656, -83.9768295288086, -86.703857421875, 0.1817019, -0.252727, 0.10176182
800, 2472774666, -121.62413024902344, -83.9718246459961, -86.94003295898438, 0.09028183, -0.26152998, 0.100382805
801, 2472791333, -121.74815368652344, -83.96142578125, -87.12244415283203, -0.011679418, -0.13450138, 0.12413311
802, 2472808000, -121.73709869384766, -83.947509765625, -87.41011047363281, -0.18499748, 0.09733721, 0.15961266
803, 2472824667, -121.52179718017578, -83.9230728149414, -87.85743713378906, -0.32138336, 0.16239087, 0.2751751
804, 2472841334, -121.13523864746094, -83.88890838623047, -88.38182067871094, -0.38129988, 0.33202833, 0.33502102
805, 2472858001, -120.63421630859375, -83.86946868896484, -88.90642547607422, -0.124522336, 0.32447404, 0.25347328
806, 2472874668, -120.0604248046875, -83.85921478271484, -89.39276885986328, -0.13424766, 0.22628123, 0.13291073
807, 2472891335, -119.40843200683594, -83.8524169921875, -89.89285278320312, -0.26940367, 0.06498516, 0.13190746
808, 2472908002, -118.67754364013672, -83.84339904785156, -90.49331665039062, -0.26060393, -0.15025401, 0.22206879
809, 2472924669, -117.87741088867188, -83.82902526855469, -91.26236724853516, -0.1024708, -0.31043872, 0.28845882
810, 2472941336, -117.11617279052734, -83.80834197998047, -92.10112762451172, 0.13072647, -0.30434218, 0.18239594
811, 2472958003, -116.6510009765625, -83.78176879882812, -92.69110870361328, 0.4097185, -0.16952899, 0.07274437
812, 2472974670, -116.49419403076172, -83.7454605102539, -92.94581604003906, 0.6763683, 0.0059891413, 0.15746975
813, 2472991337, -116.59703826904297, -83.70309448242188, -92.8496322631836, 0.78751904, 0.08584881, 0.19446087
814, 2473008004, -116.97648620605469, -83.66593933105469, -92.37601470947266, 0.6840629, 0.11291288, 0.13486195
815, 2473024671, -117.59217071533203, -83.63758087158203, -91.59590911865234, 0.4151689, 0.05559622, 0.05153942
816, 2473041338, -118.3106918334961, -83.60411071777344, -90.68366241455078, 0.24860765, 0.01260574, 0.07845688
817, 2473058005, -119.03494262695312, -83.5597152709961, -89.74510955810547, 0.071674824, 0.028848035, 0.13663387
818, 2473074672, -119.81322479248047, -83.5128173828125, -88.75418853759766, -0.16514699, 0.01782784, 0.2336359
819, 2473091339, -120.54580688476562, -83.47481536865234, -87.84539031982422, -0.3025979, 0.0019672492, 0.32557297
820, 2473108006, -121.08816528320312, -83.44821166992188, -87.18781280517578, -0.36593807, 5.358723E-4, 0.22151947
821, 2473124673, -121.42601013183594, -83.43006134033203, -86.78688049316406, -0.23799652, -0.041961875, 0.115950584
822, 2473141340, -121.6610107421875, -83.41587829589844, -86.50603485107422, -0.24446604, 0.07901077, 0.105994225
823, 2473158007, -121.78250885009766, -83.40109252929688, -86.30571746826172, -0.17422147, 0.096684046, 0.21382236
824, 2473174674, -121.72196197509766, -83.38378143310547, -86.21528625488281, -0.09211553, -0.02020423, 0.31567383
825, 2473191341, -121.53872680664062, -83.36035919189453, -86.16759490966797, 0.019455545, -0.3525862, 0.259449
826, 2473208008, -121.38811492919922, -83.33049774169922, -86.06281280517578, 0.11389122, -0.6200682, 0.13576603
827, 2473224675, -121.38339233398438, -83.28490447998047, -85.78276824951172, 0.3811454, -0.19296354, 0.12585926
828, 2473241342, -121.51427459716797, -83.24382019042969, -85.25186157226562, 0.7270069, 0.5963574, 0.15557194
829, 2473258009, -121.88367462158203, -83.2217025756836, -84.29077911376953, 0.7350154, 0.98122287, 0.14908695
830, 2473274676, -122.4887924194336, -83.21432495117188, -83.0428237915039, 0.2398903, 0.79425085, 0.1642704
831, 2473291343, -123.2298355102539, -83.20701599121094, -81.83121490478516, -0.25840825, 0.1611477, 0.21475601
832, 2473308010, -124.05470275878906, -83.2070541381836, -80.86470031738281, -0.4410838, -0.5375364, 0.2751646
833, 2473324677, -124.87793731689453, -83.22737884521484, -80.27684783935547, -0.43645108, -0.6965528, 0.24630642
834, 2473341344, -125.75563049316406, -83.2565689086914, -79.84671020507812, -0.16734256, -0.4113661, 0.039500237
835, 2473358011, -126.6906509399414, -83.2757339477539, -79.33769226074219, 0.27814004, 0.11421774, -0.0357399
836, 2473374678, -127.68302154541016, -83.28221130371094, -78.59768676757812, 0.37230504, 0.64808226, 0.02883339
837, 2473391345, -128.5862274169922, -83.28752899169922, -77.69332885742188, 0.24648684, 0.79035085, 0.1598177
838, 2473408012, -129.34384155273438, -83.3057861328125, -76.71952819824219, -0.119176015, 0.3800342, 0.204772
839, 2473424679, -129.98707580566406, -83.34012603759766, -75.85047149658203, -0.58249694, -0.18718232, 0.2643366
840, 2473441346, -130.37205505371094, -83.36972045898438, -75.36384582519531, -0.742564, -0.69173723, 0.36855698
841, 2473458013, -130.4302978515625, -83.40159606933594, -75.40691375732422, -0.79359776, -0.7125689, 0.39466476
842, 2473474680, -130.33372497558594, -83.44249725341797, -75.71942138671875, -0.28177282, -0.36883873, 0.28517532
843, 2473491347, -130.29449462890625, -83.49009704589844, -76.0186767578125, 0.3712921, 0.22586621, 0.13309193
844, 2473508014, -130.35009765625, -83.54104614257812, -76.1465072631836, 0.4397916, 0.53849024, 0.07595253
845, 2473524681, -130.56690979003906, -83.6016845703125, -75.97077178955078, 0.22036804, 0.4650339, 0.10699272
846, 2473541348, -131.10577392578125, -83.67281341552734, -75.46643829345703, 0.07741204, 0.44946176, 0.21981525
847, 2473558015, -132.04470825195312, -83.75238800048828, -74.63597869873047, 0.33459923, 0.31399286, 0.2612028
848, 2473574682, -133.3220977783203, -83.82642364501953, -73.5138931274414, 0.4656855, 0.069247276, 0.1586523
849, 2473591349, -134.9053955078125, -83.89241027832031, -72.05343627929688, 0.6932585, 0.15153027, 0.07053661
850, 2473608016, -136.876708984375, -83.93799591064453, -70.11088562011719, 1.080566, 0.07102672, -0.038274765
851, 2473624683, -139.27259826660156, -83.96272277832031, -67.66780853271484, 0.8674026, -0.03376437, -0.10399628
852, 2473641350, -142.1183319091797, -83.93257141113281, -64.66800689697266, 0.8221382, -0.5863231, -0.12716484
853, 2473658017, -145.5041961669922, -83.8094482421875, -61.12765121459961, 1.0499662, -0.8477996, 0.013926506
854, 2473674684, -149.01544189453125, -83.62351989746094, -57.55637741088867, 0.8698348, -0.8455519, -0.03311062
855, 2473691351, -152.55670166015625, -83.36466217041016, -54.06636047363281, 0.5735048, -0.9830455, -0.23281002
856, 2473708018, -156.03097534179688, -83.0284423828125, -50.80561828613281, 0.4749666, -1.1737419, -0.254982
857, 2473724685, -159.1732177734375, -82.65802001953125, -48.1454963684082, -0.040622864, -0.963428, -0.03944397
858, 2473741352, -162.00927734375, -82.21427154541016, -45.994232177734375, -0.034667306, -1.2096186, 0.030349731
859, 2473758019, -164.6773681640625, -81.6811294555664, -44.16630935668945, 0.59646946, -1.0574083, 0.12389946
860, 2473774686, -167.25733947753906, -81.12181854248047, -42.48596954345703, 0.6124351, -0.26978585, -0.026654243
861, 2473791353, -169.68179321289062, -80.51453399658203, -40.801883697509766, 0.91245043, 0.44358096, -0.41666603
862, 2473808020, -172.0150909423828, -79.83794403076172, -38.9334602355957, 1.4548327, 0.7054515, -0.64447784
863, 2473824687, -174.2091827392578, -79.05443572998047, -36.88975524902344, 1.5428116, 0.40087143, -0.3132925
864, 2473841354, -176.02610778808594, -78.24461364746094, -34.98228073120117, 0.53316504, 0.34456155, 0.09018326
865, 2473858021, -177.4929962158203, -77.41817474365234, -33.2899284362793, -0.22600777, -0.021303914, -0.13086796
866, 2473874688, -178.82025146484375, -76.58834075927734, -31.828168869018555, -0.5329872, -0.15974896, -0.20928097
867, 2473891355, 179.97007751464844, -75.79802703857422, -30.62842559814453, -0.7175981, -0.27028617, 0.064736366
868, 2473908022, 178.92947387695312, -75.02584838867188, -29.65570831298828, -0.95246357, -0.25505364, 0.11723518
869, 2473924689, 177.95364379882812, -74.25916290283203, -28.872907638549805, -0.13272102, -0.14842457, -0.16163921
870, 2473941356, 177.07106018066406, -73.44400787353516, -28.184356689453125, 0.94340336, 0.46348396, -0.36934853
871, 2473958023, 176.44830322265625, -72.58859252929688, -27.41286849975586, 1.106081, 0.3450519, -0.411129
872, 2473974690, 176.1873016357422, -71.73049926757812, -26.693403244018555, -0.28506032, 0.22163925, -0.029949188
873, 2473991357, 176.02285766601562, -70.92707061767578, -26.105260848999023, -1.5123358, 0.1559926, 0.59323597
874, 2474008024, 175.67092895507812, -70.18550872802734, -25.6495418548584, -1.3482227, 0.2993662, 0.38648605
875, 2474024691, 175.1645050048828, -69.46312713623047, -25.284473419189453, -0.08992038, 0.15589303, -0.22472191
876, 2474041358, 174.789794921875, -68.7330322265625, -24.95124053955078, 0.13696428, -0.34124136, -0.22139835
877, 2474058025, 174.61476135253906, -68.04155731201172, -24.779342651367188, -1.1192533, -0.15691984, 0.5979986
878, 2474074692, 174.45713806152344, -67.42190551757812, -24.705291748046875, -1.0863907, 0.088188045, 0.947361
879, 2474091359, 174.18653869628906, -66.86293029785156, -24.589614868164062, 0.05144444, 0.10020577, 0.32230663
880, 2474108026, 174.02865600585938, -66.36128234863281, -24.45484161376953, 0.23450105, -0.042642582, -0.20700836
881, 2474124693, 174.0111541748047, -65.87216186523438, -24.365283966064453, -1.0204468, 0.63870424, 0.25597095
882, 2474141360, 174.05113220214844, -65.39318084716797, -24.312095642089844, -1.1138451, 0.8365199, 0.70998573
883, 2474158027, 174.2565155029297, -64.95977783203125, -24.261445999145508, -0.8132968, 0.22686163, 0.558403
884, 2474174694, 174.5640106201172, -64.52363586425781, -24.25925064086914, -0.4312289, -0.27404243, 0.0411644
885, 2474191361, 174.86349487304688, -64.11227416992188, -24.359477996826172, -0.86463684, -0.3487371, 0.41292858
886, 2474208028, 174.9929656982422, -63.78628921508789, -24.471599578857422, -1.7608103, 0.12215486, 1.1893063
887, 2474224695, 174.9528045654297, -63.527801513671875, -24.55708885192871, -0.7268847, 0.26274148, 0.6664829
888, 2474241362, 174.94241333007812, -63.32286834716797, -24.720243453979492, -0.039769173, 0.66406924, 0.447958
889, 2474258029, 175.0071563720703, -63.1265983581543, -24.890878677368164, 0.63761634, 0.79656416, 0.4279003
890, 2474274696, 175.17855834960938, -62.95576095581055, -24.964754104614258, 0.078467935, 0.5726625, 0.45632172
891, 2474291363, 175.44313049316406, -62.80550765991211, -24.991182327270508, -0.4421424, -0.06850761, 0.40976334
892, 2474308030, 175.70639038085938, -62.69268035888672, -25.086559295654297, -0.6231892, -0.2606314, 0.6310005
893, 2474324697, 175.84542846679688, -62.65476608276367, -25.22951316833496, -0.5024616, -0.3579321, 0.6991358
894, 2474341364, 175.74853515625, -62.64698028564453, -25.31370735168457, -0.50038975, -0.11736543, 0.118870735
895, 2474358031, 175.63916015625, -62.60653305053711, -25.409238815307617, -0.21059768, 0.28015316, -0.2060566
896, 2474374698, 175.70187377929688, -62.54171371459961, -25.55842399597168, 0.470535, 0.3533626, -0.06637001
897, 2474391365, 175.92864990234375, -62.49091720581055, -25.67585563659668, 0.22534873, 0.22442053, 0.22122669
898, 2474408032, 176.22080993652344, -62.43966293334961, -25.733686447143555, -0.21344392, -0.1434657, 0.18048096
899, 2474424699, 176.40390014648438, -62.35190200805664, -25.722335815429688, -0.45369115, -0.013925415, -0.13171482
900, 2474441366, 176.41404724121094, -62.23329544067383, -25.715728759765625, -0.06169885, 0.13390237, -0.0011129379
901, 2474458033, 176.38560485839844, -62.13779067993164, -25.757654190063477, 0.37157825, 0.033162504, 0.44365025
902, 2474474700, 176.40536499023438, -62.10139083862305, -25.81299591064453, 0.48908916, 0.012576738, 0.5024681
903, 2474491367, 176.55416870117188, -62.10250473022461, -25.871883392333984, 0.0752783, 0.13466589, 0.34930134
904, 2474508034, 176.62557983398438, -62.08551025390625, -25.840333938598633, -0.0948233, 0.37056497, 0.03750515
905, 2474524701, 176.5703582763672, -62.01055145263672, -25.69076919555664, -0.24943599, 0.4174239, -0.27132607
906, 2474541368, 176.47955322265625, -61.89155578613281, -25.524585723876953, 0.0075376253, 0.30522522, 0.0021324158
907, 2474558035, 176.42100524902344, -61.81349182128906, -25.40812873840332, 0.26135242, 0.123572044, 0.31868553
908, 2474574702, 176.38121032714844, -61.80254364013672, -25.310157775878906, 0.11923368, 0.044389226, 0.53283405
909, 2474591369, 176.34097290039062, -61.81733703613281, -25.17739486694336, -0.032540552, 0.12631577, 0.41040134
910, 2474608036, 176.26031494140625, -61.81224822998047, -24.985742568969727, -0.23833986, 0.21241084, 0.048202515
911, 2474624703, 176.1136932373047, -61.769439697265625, -24.743202209472656, -0.17759442, 0.21762797, -0.07623291
912, 2474641370, 175.91427612304688, -61.73652267456055, -24.501375198364258, -0.23524183, 0.36632478, 0.32452774
913, 2474658037, 175.71974182128906, -61.742984771728516, -24.27435874938965, -0.047447275, 0.30011442, 0.5148716
914, 2474674704, 175.61422729492188, -61.78832244873047, -24.045082092285156, -0.32738635, 0.2941882, 0.397377
915, 2474691371, 175.57969665527344, -61.85503387451172, -23.840402603149414, -0.48706478, 0.031637922, 0.41375446
916, 2474708038, 175.5321044921875, -61.938690185546875, -23.66176414489746, -0.62040603, -0.25786433, 0.50075245
917, 2474724705, 175.37481689453125, -62.030364990234375, -23.500816345214844, -0.60341156, -0.26682797, 0.53631306
918, 2474741372, 175.1094207763672, -62.14738082885742, -23.3205509185791, -0.3785069, -0.051424406, 0.45985317
919, 2474758039, 174.8623046875, -62.297821044921875, -23.148937225341797, -0.30403817, 0.22965431, 0.44470215
920, 2474774706, 174.77865600585938, -62.48727798461914, -23.00941276550293, -0.38843688, 0.18839975, 0.44940662
921, 2474791373, 174.81214904785156, -62.71072769165039, -22.911544799804688, -0.3607533, 0.07642444, 0.41520023
922, 2474808040, 174.8949737548828, -62.96721267700195, -22.85837745666504, -0.47689596, -0.048768517, 0.3597355
923, 2474824707, 174.89369201660156, -63.225006103515625, -22.825885772705078, -0.51656383, -0.11060181, 0.4937868
924, 2474841374, 174.74288940429688, -63.513648986816406, -22.748027801513672, -0.36685356, 0.19308367, 0.3563099
925, 2474858041, 174.57984924316406, -63.815399169921875, -22.643461227416992, -0.04774442, 0.4290917, 0.15222931
926, 2474874708, 174.53977966308594, -64.15713500976562, -22.54237937927246, -0.06820373, 0.48124182, 0.4601574
927, 2474891375, 174.62185668945312, -64.58031463623047, -22.432395935058594, -0.17871334, 0.38118392, 0.6489401
928, 2474908042, 174.73605346679688, -65.04824829101562, -22.316879272460938, -0.31897295, 0.29586858, 0.5398159
929, 2474924709, 174.7476043701172, -65.5393295288086, -22.151248931884766, -0.72612596, 0.18926205, 0.2703247
930, 2474941376, 174.68499755859375, -66.02999877929688, -21.934093475341797, -0.9707144, 0.00793281, -0.061178207
931, 2474958043, 174.60227966308594, -66.50706481933594, -21.760822296142578, -0.86508846, 0.09429017, 0.10751724
932, 2474974710, 174.59622192382812, -67.02167510986328, -21.692989349365234, -0.39536834, 0.10561669, 0.4836893
933, 2474991377, 174.77857971191406, -67.60543823242188, -21.709447860717773, -0.2531976, 0.1516161, 0.61560535
934, 2475008044, 175.18453979492188, -68.24320983886719, -21.814350128173828, -0.4044845, 0.21526913, 0.5939684
935, 2475024711, 175.82192993164062, -68.93064880371094, -22.033998489379883, -0.60216165, -0.18175526, 0.4219761
936, 2475041378, 176.56922912597656, -69.64216613769531, -22.348478317260742, -1.2589339, -0.43471214, -0.008641243
937, 2475058045, 177.3316650390625, -70.34832763671875, -22.80571174621582, -1.2059724, -0.6363515, -0.32532597
938, 2475074712, 178.2055206298828, -71.06481170654297, -23.556562423706055, -0.96325177, -0.5044682, 0.06983948
939, 2475091379, 179.36749267578125, -71.82727813720703, -24.663965225219727, -0.7557888, -0.22810738, 0.5688877
940, 2475108046, -179.1282501220703, -72.6347427368164, -26.0568904876709, -0.4843158, 0.123703584, 0.53985786
941, 2475124713, -177.26309204101562, -73.43238067626953, -27.61404800415039, -0.2494769, 0.07010428, 0.058904648
942, 2475141380, -175.15028381347656, -74.19143676757812, -29.290386199951172, -0.047030672, -0.17072411, -0.28628826
943, 2475158047, -172.95997619628906, -74.95124816894531, -31.119338989257812, -0.30685028, -0.54436874, -0.3928547
944, 2475174714, -170.7832489013672, -75.780029296875, -33.26736068725586, -1.1088355, -0.42637298, -0.36363888
945, 2475191381, -168.61878967285156, -76.63318634033203, -35.70951843261719, -0.93077534, 0.12947033, -0.30248833
946, 2475208048, -166.4923858642578, -77.46428680419922, -38.25027084350586, 0.39678755, 0.45764288, -0.44398975
947, 2475224715, -164.3597412109375, -78.25039672851562, -40.79351806640625, 1.0811481, 0.8233023, -0.33379364
948, 2475241382, -162.06497192382812, -78.93883514404297, -43.354591369628906, 1.503518, 0.55224735, -0.45647812
949, 2475258049, -159.72091674804688, -79.53194427490234, -45.793277740478516, 1.4744002, 0.3066554, -0.44798088
950, 2475274716, -157.45761108398438, -80.08139038085938, -48.11994171142578, 1.0938939, 0.13831104, -0.28702736
951, 2475291383, -155.4649200439453, -80.61988830566406, -50.278873443603516, 0.819391, -0.30770653, -0.25573158
952, 2475308050, -153.67098999023438, -81.13417053222656, -52.37628173828125, 0.5152149, -0.47014278, -0.23693371
953, 2475324717, -152.08546447753906, -81.57298278808594, -54.410621643066406, 0.6682175, -0.55748665, -0.005918503
954, 2475341384, -150.51841735839844, -81.94246673583984, -56.47407531738281, 0.6380018, -0.21885897, 0.28699207
955, 2475358051, -148.9158935546875, -82.2529067993164, -58.418067932128906, 1.0440351, -0.1196157, 0.22044373
956, 2475374718, -147.23117065429688, -82.51515197753906, -60.21125411987305, 1.1252949, 0.003545586, 0.11395645
957, 2475391385, -145.57852172851562, -82.73606872558594, -61.76533126831055, 0.6612505, -0.014760125, 0.012939453
958, 2475408052, -143.947265625, -82.92549133300781, -63.17100524902344, -0.052041613, -0.17557289, 0.017893791
959, 2475424719, -142.1661376953125, -83.08179473876953, -64.67675018310547, -0.559309, -0.26588452, 0.3704157
960, 2475441386, -140.0569610595703, -83.22894287109375, -66.50520324707031, -0.40185335, -0.31184193, 0.48415375
961, 2475458053, -137.72862243652344, -83.3542709350586, -68.68614196777344, 0.2555747, -0.16094324, 0.2062006
962, 2475474720, -135.403564453125, -83.44315338134766, -70.93814086914062, 0.95514137, -0.16169938, -0.1494112
963, 2475491387, -133.34381103515625, -83.48407745361328, -72.93488311767578, 1.4668925, -0.49162167, -0.40745354
964, 2475508054, -132.18788146972656, -83.47441864013672, -74.1458969116211, 1.5320989, -0.96842575, -0.3941822
965, 2475524721, -131.75364685058594, -83.40263366699219, -74.87242889404297, 1.1528898, -1.0368539, -0.061107635
966, 2475541388, -131.94232177734375, -83.30607604980469, -75.13530731201172, 0.7727914, -0.7350727, 0.28225517
967, 2475558055, -132.6439971923828, -83.23493957519531, -74.9029541015625, 0.50881135, -0.15206927, 0.2628231
968, 2475574722, -133.57876586914062, -83.17085266113281, -74.31261444091797, 0.32034877, 0.4298978, 0.095695496
969, 2475591389, -134.3574981689453, -83.10266876220703, -73.66166687011719, 0.09950586, 0.75386715, 0.04879284
970, 2475608056, -134.99864196777344, -83.04718017578125, -72.93885803222656, -0.25568065, 0.6046111, 0.13858318
971, 2475624723, -135.5482177734375, -83.01624298095703, -72.24385070800781, -0.67278016, 0.20476492, 0.3106861
972, 2475641390, -135.80062866210938, -83.00244140625, -71.91339874267578, -0.9557023, -0.053737096, 0.40811348
973, 2475658057, -135.6658477783203, -82.99503326416016, -72.0570068359375, -0.8042434, 0.0028217393, 0.32829094
974, 2475674724, -135.36322021484375, -82.99005889892578, -72.40203857421875, -0.3937364, 0.18057886, 0.1399746
975, 2475691391, -134.95704650878906, -82.9820556640625, -72.8004379272461, 0.059366968, 0.34179983, 0.059372902
976, 2475708058, -134.49685668945312, -82.96890258789062, -73.17214965820312, 0.3132486, 0.25909862, 0.104063034
977, 2475724725, -134.1180419921875, -82.95401763916016, -73.38426971435547, 0.3687187, 0.055124946, 0.14542961
978, 2475741392, -133.8900146484375, -82.94047546386719, -73.41883850097656, 0.30761093, -0.122395694, 0.117461205
979, 2475758059, -133.72622680664062, -82.92313385009766, -73.44181060791016, 0.0427188, -0.22533743, 0.19129753
980, 2475774726, -133.58221435546875, -82.9071273803711, -73.5111312866211, -0.15002944, -0.28072003, 0.40409946
981, 2475791393, -133.4376220703125, -82.90593719482422, -73.65160369873047, -0.053275988, -0.2124865, 0.36929417
982, 2475808060, -133.4055938720703, -82.91033172607422, -73.74198913574219, 0.098741375, -0.16524582, 0.1261692
983, 2475824727, -133.4081268310547, -82.90270233154297, -73.8069839477539, 0.08888306, -0.055524416, 0.008943558
984, 2475841394, -133.40463256835938, -82.88550567626953, -73.8621597290039, 0.055156935, -0.015261185, 0.11608124
985, 2475858061, -133.42129516601562, -82.86809539794922, -73.90050506591797, -0.058356076, -0.027745446, 0.18519402
986, 2475874728, -133.4197540283203, -82.85405731201172, -73.9819107055664, -0.21426737, -0.039963, 0.1420641
987, 2475891395, -133.36289978027344, -82.8404312133789, -74.11781311035156, -0.18000655, -0.022842186, 0.10278988
988, 2475908062, -133.2319793701172, -82.82994079589844, -74.3094253540039, -0.060753588, -0.0013353782, 0.19563961
989, 2475924729, -133.05819702148438, -82.82069396972656, -74.53272247314453, -0.019801125, -0.06235084, 0.2693205
990, 2475941396, -132.8715362548828, -82.8101806640625, -74.7640609741211, 0.01802755, -0.059203386, 0.20537853
991, 2475958063, -132.72747802734375, -82.79764556884766, -74.94989013671875, 0.049458414, -0.04310397, 0.13128471
992, 2475974730, -132.6450653076172, -82.77450561523438, -75.06167602539062, 0.07136523, -0.034997713, 0.15888119
993, 2475991397, -132.5777130126953, -82.7412338256836, -75.116455078125, 0.1731209, 0.020756755, 0.2136879
994, 2476008064, -132.49526977539062, -82.70085144042969, -75.12176513671875, 0.25135154, 0.013267171, 0.19850063
995, 2476024731, -132.464599609375, -82.65359497070312, -75.00688171386719, 0.23429467, -0.012178215, 0.1731329
996, 2476041398, -132.4796142578125, -82.60700225830078, -74.8083724975586, 0.143211, 0.0016348297, 0.12584496
997, 2476058065, -132.5780029296875, -82.56230163574219, -74.52983856201172, 0.01444486, 0.019791234, 0.07481861
998, 2476074732, -132.7117919921875, -82.51431274414062, -74.22987365722656, -0.098386355, 0.019291962, 0.091560364
999, 2476091399, -132.84521484375, -82.46151733398438, -73.95710754394531, -0.11724791, -0.014336457, 0.2413702
1000, 2476108066, -132.93594360351562, -82.40113067626953, -73.77195739746094, -0.2298702, -0.1798402, 0.3356638
1001, 2476124733, -132.9605255126953, -82.34383392333984, -73.70250701904297, -0.33605137, -0.22311589, 0.2846594
1002, 2476141400, -132.88555908203125, -82.30825805664062, -73.77203369140625, -0.19003507, -0.039685506, 0.15007687
1003, 2476158067, -132.8359832763672, -82.27607727050781, -73.83550262451172, 0.009135952, 0.06547019, 0.03857422
1004, 2476174734, -132.78131103515625, -82.22905731201172, -73.85936737060547, 0.08274379, 0.10205524, 0.17555141
1005, 2476191401, -132.6769256591797, -82.18257141113281, -73.88700866699219, 0.008415515, 0.10776001, 0.3058424
1006, 2476208068, -132.5421142578125, -82.14642333984375, -73.92425537109375, -0.053129505, -0.016796831, 0.24939823
1007, 2476224735, -132.38406372070312, -82.11285400390625, -73.98047637939453, -0.09987176, -0.0701121, 0.15787792
1008, 2476241402, -132.1882781982422, -82.08168029785156, -74.04989624023438, -0.0428388, 0.011131951, 0.1239357
1009, 2476258069, -131.93214416503906, -82.05648803710938, -74.13917541503906, -0.012197228, 0.13529642, 0.15135479
1010, 2476274736, -131.66448974609375, -82.03205871582031, -74.2280502319336, -0.07485343, 0.11393674, 0.1891489
1011, 2476291403, -131.3960723876953, -82.0051498413086, -74.31798553466797, -0.15185614, 0.03821429, 0.17149162
1012, 2476308070, -131.0777130126953, -81.98185729980469, -74.44190979003906, -0.11670866, 0.035966698, 0.1691351
1013, 2476324737, -130.73387145996094, -81.96571350097656, -74.58016967773438, -0.0780563, 0.026811386, 0.14761448
1014, 2476341404, -130.36920166015625, -81.95509338378906, -74.72434997558594, -0.052558444, -5.184383E-4, 0.15731812
1015, 2476358071, -129.9966278076172, -81.9449234008789, -74.89366912841797, -0.05948687, -0.009841443, 0.14240551
1016, 2476374738, -129.622802734375, -81.93016815185547, -75.0981216430664, -0.07522002, -0.0464822, 0.16340065
1017, 2476391405, -129.23130798339844, -81.91091918945312, -75.34546661376953, -0.07184743, -0.044156045, 0.22125626
1018, 2476408072, -128.86570739746094, -81.89700317382812, -75.58168029785156, 0.0034050522, -0.049141504, 0.19412231
1019, 2476424739, -128.52174377441406, -81.88860321044922, -75.79810333251953, 0.099782415, -0.0060670357, 0.14287186
1020, 2476441406, -128.2135009765625, -81.87977600097656, -75.9747543334961, 0.09666607, -0.033722404, 0.12238312
1021, 2476458073, -127.94950866699219, -81.86530303955078, -76.12920379638672, -0.009016946, -0.104102835, 0.12817574
1022, 2476474740, -127.71280670166016, -81.85028076171875, -76.29908752441406, -0.08528468, -0.07098772, 0.13430882
1023, 2476491407, -127.48086547851562, -81.83951568603516, -76.48937225341797, 0.019786233, 0.012489568, 0.17598343
1024, 2476508074, -127.27911376953125, -81.8326187133789, -76.64342498779297, 0.16262281, 0.112977415, 0.21774483
1025, 2476524741, -127.12322235107422, -81.82752227783203, -76.73558044433594, 0.16847585, 0.103366695, 0.1831522
1026, 2476541408, -127.0006103515625, -81.82771301269531, -76.79717254638672, 0.079849936, 0.04762849, 0.120162964
1027, 2476558075, -126.93162536621094, -81.83177185058594, -76.8469009399414, -0.08162063, -0.13561162, 0.034478188
1028, 2476574742, -126.89576721191406, -81.82906341552734, -76.93487548828125, -0.19547944, -0.19073969, 0.02048111
1029, 2476591409, -126.86283874511719, -81.81884765625, -77.07716369628906, -0.17575993, -0.14711578, 0.089365005
1030, 2476608076, -126.8225326538086, -81.81021881103516, -77.24269104003906, -0.055117875, 0.023758197, 0.16405964
1031, 2476624743, -126.75902557373047, -81.80496978759766, -77.40354919433594, 0.0038490747, 0.11958485, 0.23940563
1032, 2476641410, -126.6309585571289, -81.80492401123047, -77.58647918701172, 0.00855732, 0.0993704, 0.22289562
1033, 2476658077, -126.46404266357422, -81.80782318115234, -77.78910064697266, 0.02059113, 0.07567936, 0.23686123
1034, 2476674744, -126.33026885986328, -81.8135757446289, -77.95075988769531, 0.008233561, 0.002583698, 0.22005463
1035, 2476691411, -126.19660186767578, -81.81664276123047, -78.10671997070312, 0.049057055, -0.027359439, 0.22659397
1036, 2476708078, -126.09112548828125, -81.81539916992188, -78.23563385009766, 0.058977317, -0.034329075, 0.18098831
1037, 2476724745, -126.00943756103516, -81.81583404541016, -78.34468841552734, 0.060869087, -0.03140279, 0.13921738
1038, 2476741412, -125.95738983154297, -81.81695556640625, -78.42510986328125, 0.06636232, 0.004832071, 0.122265816
1039, 2476758079, -125.93195343017578, -81.8163833618164, -78.48471069335938, 0.057719607, 0.02476775, 0.17796612
1040, 2476774746, -125.91922760009766, -81.81542205810547, -78.54776763916016, 0.0702724, 0.039793354, 0.23911095
1041, 2476791413, -125.93846893310547, -81.81420135498047, -78.58074951171875, 0.11513531, 0.036212284, 0.23606682
1042, 2476808080, -126.00016021728516, -81.81472778320312, -78.56719207763672, 0.1434195, 0.00576317, 0.19331646
1043, 2476824747, -126.10382843017578, -81.815185546875, -78.50205993652344, 0.090674356, -0.06571493, 0.1344471
1044, 2476841414, -126.22501373291016, -81.81422424316406, -78.41463470458984, 0.009790035, -0.06555909, 0.1227684
1045, 2476858081, -126.33892822265625, -81.8106460571289, -78.32835388183594, -0.11710019, -0.05738924, 0.1271801
1046, 2476874748, -126.38491821289062, -81.80821228027344, -78.29513549804688, -0.18515442, 0.023101907, 0.17152023
1047, 2476891415, -126.36336517333984, -81.80792236328125, -78.3179931640625, -0.15368351, 0.060784347, 0.18765354
1048, 2476908082, -126.27613067626953, -81.81026458740234, -78.39691162109375, -0.12262629, 0.04154653, 0.1863308
1049, 2476924749, -126.13985443115234, -81.81295013427734, -78.52709197998047, -0.059687305, -0.012139101, 0.18946552
1050, 2476941416, -125.99054718017578, -81.81734466552734, -78.68395233154297, -0.04234611, -0.03383271, 0.22091007
1051, 2476958083, -125.83551025390625, -81.82584381103516, -78.85752868652344, 0.024752188, -0.041236464, 0.20260048
1052, 2476974750, -125.73534393310547, -81.83280944824219, -78.98714447021484, 0.0708331, -0.009013942, 0.14261818
1053, 2476991417, -125.69319915771484, -81.83812713623047, -79.06088256835938, 0.081206836, -0.0072346115, 0.13691711
1054, 2477008084, -125.67555236816406, -81.8420181274414, -79.11050415039062, 0.050051033, 0.009916711, 0.17315769
1055, 2477024751, -125.66928100585938, -81.85040283203125, -79.15462493896484, -0.017527299, 0.016162334, 0.20740223
1056, 2477041418, -125.6678466796875, -81.85859680175781, -79.20063781738281, -0.026637519, 0.0284361, 0.20785046
1057, 2477058085, -125.66374969482422, -81.86737823486328, -79.25101470947266, -0.028455602, 0.051367022, 0.19338703
1058, 2477074752, -125.64602661132812, -81.87752532958984, -79.30191802978516, -0.013431536, 0.049824838, 0.20318413
