sep=,
DeviceTag:,femurLeft,,,,,,,,,,,,,,,,,
FirmwareVersion:,1.6.0,,,,,,,,,,,,,,,,,
AppVersion:,1.1,,,,,,,,,,,,,,,,,
SyncStatus:,Synced,,,,,,,,,,,,,,,,,
OutputRate:,60Hz,,,,,,,,,,,,,,,,,
FilterProfile:,General,,,,,,,,,,,,,,,,,
Measurement Mode:,Sensor fusion Mode - Complete (Euler),,,,,,,,,,,,,,,,,
StartTime:,2021-03-17 16:46:03.572 +0800,,,,,,,,,,,,,,,,,
© Xsens Technologies B. V. 2005-2021,,,,,,,,,,,,,,,,,,,

PacketCounter,SampleTimeFine,Euler_X,Euler_Y,Euler_Z,FreeAcc_X,FreeAcc_Y,FreeAcc_Z
1, 191960173, 15.520875930786133, -15.867082595825195, -165.96578979492188, 0.046279795, 0.05493109, 0.04819584
2, 191976840, 15.521994590759277, -15.86845588684082, -165.9647216796875, 0.027694456, 0.061383866, 0.057401657
3, 191993507, 15.523163795471191, -15.868889808654785, -165.96656799316406, 0.05976067, 0.045420486, 0.07404423
4, 192010174, 15.528945922851562, -15.869244575500488, -165.9634246826172, 0.079367146, 0.03105422, 0.06327438
5, 192026841, 15.532283782958984, -15.869022369384766, -165.96115112304688, 0.086682856, -0.010148262, 0.044477463
6, 192043508, 15.531929016113281, -15.86754035949707, -165.9583282470703, 0.084996514, -0.026227163, 0.05475235
7, 192060175, 15.53133773803711, -15.86837387084961, -165.95928955078125, 0.07499629, -0.036931925, 0.047024727
8, 192076842, 15.529507637023926, -15.870000839233398, -165.96054077148438, 0.07412856, -0.008862051, 0.054748535
9, 192093509, 15.525870323181152, -15.871661186218262, -165.96185302734375, 0.059029885, 0.010262416, 0.053355217
10, 192110176, 15.524572372436523, -15.87236213684082, -165.96298217773438, 0.047815345, 0.012884335, 0.05368328
11, 192126843, 15.525982856750488, -15.871156692504883, -165.96304321289062, 0.03578103, 0.03190797, 0.060832977
12, 192143510, 15.52058219909668, -15.868324279785156, -165.9652557373047, 0.025820874, 0.029331563, 0.04708767
13, 192160177, 15.514270782470703, -15.8666353225708, -165.96502685546875, 0.057240997, 0.03354773, 0.04841423
14, 192176844, 15.51034164428711, -15.865795135498047, -165.9652862548828, 0.07495585, 0.038832318, 0.058398247
15, 192193511, 15.510570526123047, -15.864179611206055, -165.9639892578125, 0.065409094, 0.06417825, 0.057789803
16, 192210178, 15.512664794921875, -15.862370491027832, -165.96200561523438, 0.049736746, 0.046157114, 0.06529331
17, 192226845, 15.514421463012695, -15.860180854797363, -165.9569091796875, 0.037728973, 0.038359586, 0.06352329
18, 192243512, 15.51874828338623, -15.858118057250977, -165.95294189453125, 0.0614757, 0.007339788, 0.06999493
19, 192260179, 15.527509689331055, -15.85887622833252, -165.9542694091797, 0.06547308, -0.021866413, 0.05965233
20, 192276846, 15.529024124145508, -15.859046936035156, -165.9542694091797, 0.0640082, -0.050782505, 0.05203724
21, 192293513, 15.527349472045898, -15.857687950134277, -165.95602416992188, 0.08337015, -0.054809164, 0.071653366
22, 192310180, 15.526606559753418, -15.855977058410645, -165.95745849609375, 0.0776287, -0.009871435, 0.039712906
23, 192326847, 15.519095420837402, -15.85340690612793, -165.95657348632812, 0.06384563, 0.022268288, 0.05597973
24, 192343514, 15.513137817382812, -15.850512504577637, -165.955078125, 0.062102333, 0.014076189, 0.061917305
25, 192360181, 15.506942749023438, -15.849433898925781, -165.95542907714844, 0.06274988, 0.015697664, 0.0680666
26, 192376848, 15.50619125366211, -15.849885940551758, -165.9561004638672, 0.07413696, 0.02072799, 0.07313919
27, 192393515, 15.509973526000977, -15.85191822052002, -165.9597930908203, 0.056982253, 0.010971902, 0.052858353
28, 192410182, 15.509716987609863, -15.852240562438965, -165.96267700195312, 0.045817304, 0.013379122, 0.041635513
29, 192426849, 15.505590438842773, -15.84981918334961, -165.9611358642578, 0.051119633, 0.049626064, 0.02775383
30, 192443516, 15.502422332763672, -15.845277786254883, -165.95977783203125, 0.042624634, 0.058234904, 0.050387383
31, 192460183, 15.506020545959473, -15.843692779541016, -165.958251953125, 0.04672889, 0.030480476, 0.061076164
32, 192476850, 15.511393547058105, -15.843332290649414, -165.95477294921875, 0.047091093, 0.051716387, 0.05130005
33, 192493517, 15.509509086608887, -15.84139633178711, -165.94886779785156, 0.062001333, 0.003822714, 0.06966972
34, 192510184, 15.507331848144531, -15.838447570800781, -165.9411163330078, 0.06532155, 0.006746948, 0.050543785
35, 192526851, 15.504799842834473, -15.835539817810059, -165.93478393554688, 0.04833064, -0.013791531, 0.052028656
36, 192543518, 15.504871368408203, -15.834665298461914, -165.9345245361328, 0.07607354, -0.024504969, 0.07936287
37, 192560185, 15.506701469421387, -15.837629318237305, -165.93960571289062, 0.09171084, -0.054412205, 0.076743126
38, 192576852, 15.505456924438477, -15.839642524719238, -165.9446258544922, 0.07370998, -0.0495369, 0.06247425
39, 192593519, 15.504057884216309, -15.838828086853027, -165.95155334472656, 0.062475644, -0.007304166, 0.049907684
40, 192610186, 15.501672744750977, -15.83669662475586, -165.95669555664062, 0.049678843, 0.048463408, 0.042627335
41, 192626853, 15.499970436096191, -15.834376335144043, -165.95846557617188, 0.043895375, 0.053718407, 0.039696693
42, 192643520, 15.496231079101562, -15.831941604614258, -165.95716857910156, 0.04849636, 0.04851755, 0.0655241
43, 192660187, 15.495442390441895, -15.829556465148926, -165.95455932617188, 0.065220915, 0.07932054, 0.058401108
44, 192676854, 15.500163078308105, -15.828707695007324, -165.95101928710938, 0.033043876, 0.056202024, 0.06495762
45, 192693521, 15.50607967376709, -15.826723098754883, -165.9469757080078, 0.043760944, 0.039663784, 0.05986309
46, 192710188, 15.511885643005371, -15.826519966125488, -165.94290161132812, 0.04845022, 0.014582236, 0.06540203
47, 192726855, 15.51646900177002, -15.82737922668457, -165.94183349609375, 0.053955734, -0.051726, 0.0630703
48, 192743522, 15.515447616577148, -15.826142311096191, -165.94552612304688, 0.058734007, -0.08257046, 0.049593925
49, 192760189, 15.511228561401367, -15.825852394104004, -165.94679260253906, 0.06880703, -0.06050852, 0.064665794
50, 192776856, 15.508190155029297, -15.827112197875977, -165.9485321044922, 0.086526446, -0.06651171, 0.073493004
51, 192793523, 15.50400161743164, -15.827662467956543, -165.951171875, 0.08860591, -0.057039946, 0.043902397
52, 192810190, 15.495356559753418, -15.827457427978516, -165.9538116455078, 0.06186048, -0.0014222688, 0.060040474
53, 192826857, 15.488456726074219, -15.82834529876709, -165.95614624023438, 0.059669018, 0.035784286, 0.07000351
54, 192843524, 15.482831954956055, -15.8287992477417, -165.9570770263672, 0.040060226, 0.039321728, 0.047979355
55, 192860191, 15.479578971862793, -15.82702350616455, -165.9568634033203, 0.029649315, 0.06613216, 0.056173325
56, 192876858, 15.477237701416016, -15.827569961547852, -165.95680236816406, 0.040371343, 0.03902968, 0.070581436
57, 192893525, 15.472878456115723, -15.826655387878418, -165.95675659179688, 0.038674403, 0.039012287, 0.028749466
58, 192910192, 15.46953010559082, -15.823895454406738, -165.95361328125, 0.041934676, 0.039983016, 0.030673027
59, 192926859, 15.4732027053833, -15.821952819824219, -165.95068359375, 0.04197642, 0.024259662, 0.068556786
60, 192943526, 15.481226921081543, -15.81997013092041, -165.94964599609375, 0.04438928, -0.017230473, 0.0489769
61, 192960193, 15.48476505279541, -15.818553924560547, -165.94839477539062, 0.06605857, -0.057020154, 0.06583786
62, 192976860, 15.483977317810059, -15.817519187927246, -165.9476776123047, 0.067144886, -0.06220649, 0.065434456
63, 192993527, 15.483560562133789, -15.8179292678833, -165.95045471191406, 0.059180308, -0.048977863, 0.05444908
64, 193010194, 15.480581283569336, -15.817304611206055, -165.95518493652344, 0.060895223, -0.008997807, 0.052357674
65, 193026861, 15.477526664733887, -15.814811706542969, -165.95843505859375, 0.04912844, 0.008100319, 0.0488739
66, 193043528, 15.473824501037598, -15.813920021057129, -165.95970153808594, 0.03643469, 0.038603287, 0.071593285
67, 193060195, 15.47309398651123, -15.81356143951416, -165.96279907226562, 0.025807392, 0.072988994, 0.06699848
68, 193076862, 15.47227954864502, -15.811094284057617, -165.9650115966797, 0.02419856, 0.083640754, 0.03860569
69, 193093529, 15.474326133728027, -15.810064315795898, -165.96568298339844, 0.03812459, 0.07266476, 0.050308228
70, 193110196, 15.48083782196045, -15.80684757232666, -165.96543884277344, 0.040161617, 0.06040404, 0.040499687
71, 193126863, 15.487568855285645, -15.802385330200195, -165.96067810058594, 0.054509766, 0.027448704, 0.05017948
72, 193143530, 15.495302200317383, -15.798712730407715, -165.95745849609375, 0.0587123, -0.032981347, 0.07737827
73, 193160197, 15.50080394744873, -15.798835754394531, -165.9549560546875, 0.075814396, -0.083409995, 0.054268837
74, 193176864, 15.502022743225098, -15.799481391906738, -165.9537353515625, 0.074963644, -0.09117455, 0.05626583
75, 193193531, 15.49984073638916, -15.800220489501953, -165.95486450195312, 0.08088058, -0.08180779, 0.06764507
76, 193210198, 15.4951171875, -15.800129890441895, -165.95758056640625, 0.055779308, -0.07600235, 0.040091515
77, 193226865, 15.480239868164062, -15.795649528503418, -165.9615020751953, 0.06695625, -0.022495126, 0.04835415
78, 193243532, 15.469162940979004, -15.793539047241211, -165.96559143066406, 0.06793523, 0.04081894, 0.06420994
79, 193260199, 15.470699310302734, -15.794585227966309, -165.96742248535156, 0.060101558, 0.066491835, 0.051052094
80, 193276866, 15.472735404968262, -15.79581356048584, -165.96685791015625, 0.04582503, 0.045278303, 0.047754288
81, 193293533, 15.470990180969238, -15.795541763305664, -165.96585083007812, 0.031922497, 0.04920501, 0.07750893
82, 193310200, 15.46923828125, -15.794913291931152, -165.96572875976562, 0.03156154, 0.043756977, 0.03684616
83, 193326867, 15.470722198486328, -15.795072555541992, -165.96583557128906, 0.03768715, 0.004797887, 0.058294296
84, 193343534, 15.470059394836426, -15.79504108428955, -165.96694946289062, 0.034639172, -0.041419704, 0.024980545
85, 193360201, 15.464815139770508, -15.791359901428223, -165.96829223632812, 0.023356127, -0.03562844, 0.03491783
86, 193376868, 15.464868545532227, -15.787324905395508, -165.9683837890625, 0.030707886, 0.0014395771, 0.06203842
87, 193393535, 15.46495246887207, -15.785048484802246, -165.96693420410156, 0.0474013, 0.007199492, 0.059892654
88, 193410202, 15.462151527404785, -15.784345626831055, -165.96438598632812, 0.055297762, 7.908587E-4, 0.052253723
89, 193426869, 15.45879077911377, -15.783004760742188, -165.96214294433594, 0.07930174, -0.0017913586, 0.059783936
90, 193443536, 15.456274032592773, -15.782296180725098, -165.9617156982422, 0.058083795, 0.0033632834, 0.05917263
91, 193460203, 15.453277587890625, -15.781328201293945, -165.9612274169922, 0.048941683, 0.0061781495, 0.0630579
92, 193476870, 15.449551582336426, -15.780369758605957, -165.9635772705078, 0.04086032, 0.034041386, 0.050253868
93, 193493537, 15.448460578918457, -15.778535842895508, -165.9666748046875, 0.0370845, 0.040183116, 0.06177616
94, 193510204, 15.45293140411377, -15.7763032913208, -165.9697265625, 0.04366616, 0.039381083, 0.06658268
95, 193526871, 15.458090782165527, -15.774042129516602, -165.97093200683594, 0.031143723, 0.04130349, 0.061306953
96, 193543538, 15.465140342712402, -15.77161693572998, -165.9702606201172, 0.04159583, 0.016912472, 0.06497288
97, 193560205, 15.472256660461426, -15.769993782043457, -165.9652862548828, 0.042175468, -0.017004754, 0.06563568
98, 193576872, 15.475647926330566, -15.769197463989258, -165.96058654785156, 0.070133545, -0.031889696, 0.04982853
99, 193593539, 15.476645469665527, -15.76630687713623, -165.9571990966797, 0.054744873, -0.04972275, 0.041905403
100, 193610206, 15.475461959838867, -15.762628555297852, -165.95616149902344, 0.06987207, -0.042195935, 0.07075691
101, 193626873, 15.472108840942383, -15.760364532470703, -165.95738220214844, 0.05690489, -0.052980967, 0.05774975
102, 193643540, 15.466529846191406, -15.759739875793457, -165.958740234375, 0.06327249, -0.050692696, 0.05306053
103, 193660207, 15.459785461425781, -15.757813453674316, -165.96047973632812, 0.06481834, 0.0020331577, 0.054793358
104, 193676874, 15.454314231872559, -15.756545066833496, -165.9612274169922, 0.05246377, 0.004941634, 0.060046196
105, 193693541, 15.449994087219238, -15.755364418029785, -165.96234130859375, 0.0325826, 0.03238788, 0.06536865
106, 193710208, 15.448395729064941, -15.754340171813965, -165.96206665039062, 0.03145192, 0.048847567, 0.046832085
107, 193726875, 15.448009490966797, -15.751877784729004, -165.96066284179688, 0.04137331, 0.035884768, 0.065629005
108, 193743542, 15.45297908782959, -15.749067306518555, -165.9594268798828, 0.024302425, 0.057460863, 0.043478966
109, 193760209, 15.458209037780762, -15.74625015258789, -165.9603729248047, -0.0024141495, 0.025086591, 0.061704636
110, 193776876, 15.463942527770996, -15.745329856872559, -165.96112060546875, 0.055583175, 0.01580002, 0.07309151
111, 193793543, 15.472444534301758, -15.744891166687012, -165.96229553222656, 0.048403755, -0.030637536, 0.0470438
112, 193810210, 15.472475051879883, -15.741560935974121, -165.9629364013672, 0.053658698, -0.034710124, 0.0641489
113, 193826877, 15.473310470581055, -15.740635871887207, -165.9625244140625, 0.06543789, -0.019089626, 0.060001373
114, 193843544, 15.47528076171875, -15.740368843078613, -165.9593048095703, 0.06399806, -0.010669572, 0.037938118
115, 193860211, 15.476537704467773, -15.739665985107422, -165.9553680419922, 0.07189956, -0.0360133, 0.06266594
116, 193876878, 15.472768783569336, -15.739748001098633, -165.95330810546875, 0.0693473, -0.054265272, 0.079722404
117, 193893545, 15.470351219177246, -15.73951530456543, -165.9521484375, 0.069140926, -0.022982402, 0.064126015
118, 193910212, 15.467988014221191, -15.739856719970703, -165.95176696777344, 0.05034505, -0.0030029526, 0.0531559
119, 193926879, 15.465322494506836, -15.738381385803223, -165.9502716064453, 0.026562475, 0.002204634, 0.04451084
120, 193943546, 15.463469505310059, -15.735596656799316, -165.94805908203125, 0.032871407, -0.023174815, 0.048563004
121, 193960213, 15.459759712219238, -15.733170509338379, -165.94908142089844, 0.032115027, -0.0054696416, 0.07700539
122, 193976880, 15.458943367004395, -15.73386001586914, -165.95367431640625, 0.037372135, -0.018050265, 0.06282616
123, 193993547, 15.456634521484375, -15.73426342010498, -165.9567413330078, 0.03372538, -0.027461333, 0.05108738
124, 194010214, 15.453798294067383, -15.73343276977539, -165.9582977294922, 0.060993418, 0.011622646, 0.049015045
125, 194026881, 15.449393272399902, -15.732060432434082, -165.95974731445312, 0.060891535, 0.02385428, 0.059436798
126, 194043548, 15.444239616394043, -15.730025291442871, -165.9590301513672, 0.04272006, 0.020500427, 0.055610657
127, 194060215, 15.440461158752441, -15.729034423828125, -165.958984375, 0.03848269, 0.029733341, 0.054968834
128, 194076882, 15.43798828125, -15.726051330566406, -165.95877075195312, 0.033330463, 0.04494871, 0.04878235
129, 194093549, 15.440085411071777, -15.723081588745117, -165.95741271972656, 0.033106964, 0.04505577, 0.067881584
130, 194110216, 15.447689056396484, -15.720571517944336, -165.95736694335938, 0.026820187, 0.016228313, 0.08318615
131, 194126883, 15.455792427062988, -15.720882415771484, -165.9590606689453, 0.034998357, -0.010211189, 0.06573868
132, 194143550, 15.460502624511719, -15.721789360046387, -165.9617919921875, 0.046037298, -0.016403798, 0.055191994
133, 194160217, 15.463248252868652, -15.720564842224121, -165.96185302734375, 0.040534034, -0.013523051, 0.042980194
134, 194176884, 15.463136672973633, -15.717928886413574, -165.96092224121094, 0.031102639, -0.0062285517, 0.054471016
135, 194193551, 15.466113090515137, -15.714998245239258, -165.95928955078125, 0.055294465, -0.0077042403, 0.055226326
136, 194210218, 15.463499069213867, -15.711392402648926, -165.95652770996094, 0.036735542, -0.022355765, 0.052581787
137, 194226885, 15.464847564697266, -15.70963191986084, -165.95396423339844, 0.048574086, -0.031232107, 0.05739498
138, 194243552, 15.466029167175293, -15.709619522094727, -165.95443725585938, 0.050770115, -0.032753307, 0.07069969
139, 194260219, 15.46658992767334, -15.710040092468262, -165.9557647705078, 0.05754211, -0.0518433, 0.0613451
140, 194276886, 15.462981224060059, -15.711262702941895, -165.95721435546875, 0.048927125, -0.026290642, 0.07679939
141, 194293553, 15.457022666931152, -15.711190223693848, -165.95753479003906, 0.038091637, -0.0041882694, 0.057374954
142, 194310220, 15.453289985656738, -15.709444046020508, -165.95533752441406, 0.043030575, 0.009800484, 0.059282303
143, 194326887, 15.453953742980957, -15.70840072631836, -165.9536895751953, 0.0649726, -0.0071942117, 0.056035995
144, 194343554, 15.4491605758667, -15.706971168518066, -165.95423889160156, 0.042883515, -0.03508596, 0.05449581
145, 194360221, 15.442769050598145, -15.70654296875, -165.95492553710938, 0.02610303, -0.018313395, 0.06312847
146, 194376888, 15.437469482421875, -15.706727027893066, -165.95599365234375, 0.037132207, 0.021076238, 0.058315277
147, 194393555, 15.434616088867188, -15.7079496383667, -165.95677185058594, 0.022919899, 0.030745799, 0.043644905
148, 194410222, 15.430869102478027, -15.707301139831543, -165.95751953125, 0.0029837722, 0.05334486, 0.042547226
149, 194426889, 15.428669929504395, -15.704141616821289, -165.95834350585938, 0.017053774, 0.08036657, 0.045511246
150, 194443556, 15.42956829071045, -15.705002784729004, -165.95899963378906, 0.02479277, 0.058252364, 0.06393337
151, 194460223, 15.435629844665527, -15.705778121948242, -165.96229553222656, 0.045726743, 0.03225022, 0.060037613
152, 194476890, 15.444459915161133, -15.706201553344727, -165.9632568359375, 0.043446254, 0.018814035, 0.055937767
153, 194493557, 15.453994750976562, -15.703089714050293, -165.96255493164062, 0.040292934, 0.017590959, 0.041394234
154, 194510224, 15.46093463897705, -15.701054573059082, -165.9593048095703, 0.03135297, 0.013499862, 0.05102825
155, 194526891, 15.463425636291504, -15.69806957244873, -165.95794677734375, 0.03357285, -0.014841065, 0.06311035
156, 194543558, 15.464424133300781, -15.694897651672363, -165.95570373535156, 0.04087827, -0.017307097, 0.044511795
157, 194560225, 15.46805477142334, -15.693135261535645, -165.95510864257812, 0.042003784, -0.043726075, 0.090530396
158, 194576892, 15.475580215454102, -15.693753242492676, -165.95608520507812, 0.025985518, -0.061221275, 0.06644344
159, 194593559, 15.477116584777832, -15.693476676940918, -165.95790100097656, 0.044572435, -0.06517699, 0.038871765
160, 194610226, 15.473281860351562, -15.693161964416504, -165.9590606689453, 0.071238734, -0.04283746, 0.044794083
161, 194626893, 15.46681022644043, -15.6927490234375, -165.95840454101562, 0.06595755, -0.014392418, 0.069241524
162, 194643560, 15.456975936889648, -15.69277286529541, -165.95396423339844, 0.06436002, -0.03206313, 0.04346943
163, 194660227, 15.44384479522705, -15.689992904663086, -165.95155334472656, 0.05082004, -0.026412861, 0.07671738
164, 194676894, 15.437559127807617, -15.690746307373047, -165.9513397216797, 0.045408487, 0.015134733, 0.07950878
165, 194693561, 15.436517715454102, -15.6937837600708, -165.9523468017578, 0.03806948, -0.0013735569, 0.0687561
166, 194710228, 15.437402725219727, -15.695487976074219, -165.95602416992188, 0.04205716, -0.0057161204, 0.053996086
167, 194726895, 15.436128616333008, -15.694911003112793, -165.9586181640625, 0.010441617, -0.01350869, 0.039403915
168, 194743562, 15.429261207580566, -15.69436264038086, -165.95932006835938, 0.012530164, 0.017640704, 0.050718307
169, 194760229, 15.424034118652344, -15.692778587341309, -165.96090698242188, -0.0025591676, 0.053114936, 0.06511116
170, 194776896, 15.42251968383789, -15.692962646484375, -165.96176147460938, 0.014049452, 0.05547386, 0.06180477
171, 194793563, 15.424003601074219, -15.691776275634766, -165.9635772705078, 0.029628485, 0.035799775, 0.05153656
172, 194810230, 15.426669120788574, -15.690433502197266, -165.96432495117188, 0.018807022, 0.017952658, 0.05988884
173, 194826897, 15.431434631347656, -15.690300941467285, -165.96728515625, 0.02536759, 0.015534709, 0.05744362
174, 194843564, 15.436320304870605, -15.689655303955078, -165.9720001220703, 0.032937344, 0.029657418, 0.05266285
175, 194860231, 15.44310188293457, -15.688565254211426, -165.97471618652344, 0.048499685, 0.0013557319, 0.06872749
176, 194876898, 15.45061206817627, -15.686158180236816, -165.9747314453125, 0.025830932, -0.0071033672, 0.057271004
177, 194893565, 15.457599639892578, -15.684464454650879, -165.97377014160156, 0.02382922, -0.006573474, 0.040128708
178, 194910232, 15.461451530456543, -15.683053970336914, -165.9701385498047, 0.030377338, -0.030775402, 0.05819702
179, 194926899, 15.4581937789917, -15.68033218383789, -165.96563720703125, 0.03674422, -0.05390695, 0.04592228
180, 194943566, 15.452197074890137, -15.67872142791748, -165.96002197265625, 0.051570978, -0.058648404, 0.047260284
181, 194960233, 15.447427749633789, -15.677083969116211, -165.95880126953125, 0.05349654, -0.07311696, 0.0661993
182, 194976900, 15.443144798278809, -15.676746368408203, -165.9598388671875, 0.0378351, -0.05938802, 0.07770252
183, 194993567, 15.439189910888672, -15.677799224853516, -165.96176147460938, 0.043896295, 0.0054346477, 0.04746151
184, 195010234, 15.437381744384766, -15.678384780883789, -165.96568298339844, 0.039430466, 0.0053318175, 0.048496246
185, 195026901, 15.4414644241333, -15.67833423614502, -165.9687957763672, 0.017522326, 0.0049151336, 0.054512024
186, 195043568, 15.444500923156738, -15.6777982711792, -165.97216796875, 0.01861226, 0.03907505, 0.055924416
187, 195060235, 15.44428539276123, -15.678084373474121, -165.97332763671875, 0.024241433, 0.027653778, 0.053131104
188, 195076902, 15.445354461669922, -15.676902770996094, -165.97132873535156, 0.039286915, 0.050892323, 0.046741486
189, 195093569, 15.448399543762207, -15.674649238586426, -165.96588134765625, 0.02246628, 0.030989094, 0.049554825
190, 195110236, 15.445825576782227, -15.670903205871582, -165.9581756591797, 0.032852564, 0.019031277, 0.06878853
191, 195126903, 15.444252967834473, -15.667651176452637, -165.95469665527344, 0.026962563, 0.008131639, 0.07866001
192, 195143570, 15.448641777038574, -15.666975021362305, -165.95291137695312, 0.02771826, 0.012080233, 0.06540966
193, 195160237, 15.455601692199707, -15.667692184448242, -165.95309448242188, 0.020326184, 0.005205505, 0.041012764
194, 195176904, 15.462430000305176, -15.668741226196289, -165.9537353515625, 0.01627479, -0.038264733, 0.055091858
195, 195193571, 15.46830940246582, -15.66818904876709, -165.95542907714844, 0.025672782, -0.06593857, 0.054163933
196, 195210238, 15.467733383178711, -15.666853904724121, -165.9564971923828, 0.035934094, -0.045118365, 0.045279503
197, 195226905, 15.461146354675293, -15.66340446472168, -165.955810546875, 0.041866325, -0.029795073, 0.050130844
198, 195243572, 15.456564903259277, -15.663111686706543, -165.95443725585938, 0.05423469, -0.030023672, 0.070376396
199, 195260239, 15.451875686645508, -15.662337303161621, -165.9537353515625, 0.04548177, -0.024954664, 0.075107574
200, 195276906, 15.44931411743164, -15.663121223449707, -165.95504760742188, 0.032494508, 0.012768527, 0.061694145
201, 195293573, 15.451798439025879, -15.66334342956543, -165.95513916015625, 0.045567587, 0.027272059, 0.034992218
202, 195310240, 15.454240798950195, -15.662935256958008, -165.9542999267578, 0.030680995, 0.024494687, 0.04502678
203, 195326907, 15.454805374145508, -15.661818504333496, -165.9547119140625, 0.027062766, -0.01711855, 0.06581974
204, 195343574, 15.45253849029541, -15.659981727600098, -165.95571899414062, 0.02429748, -0.021532623, 0.058960915
205, 195360241, 15.45118236541748, -15.66070556640625, -165.95655822753906, 0.030261992, -0.011476007, 0.08193493
206, 195376908, 15.449579238891602, -15.662105560302734, -165.95709228515625, 0.02606995, -0.021117393, 0.07188702
207, 195393575, 15.444056510925293, -15.660945892333984, -165.95944213867188, 0.026183747, -0.022504514, 0.049221992
208, 195410242, 15.443327903747559, -15.659584999084473, -165.9622802734375, 0.04175986, -0.007669847, 0.061545372
209, 195426909, 15.441973686218262, -15.659811973571777, -165.9647216796875, 0.026113046, 0.010741446, 0.034980774
210, 195443576, 15.440585136413574, -15.658785820007324, -165.96658325195312, 0.033277977, 0.017933255, 0.0524683
211, 195460243, 15.438111305236816, -15.657303810119629, -165.96946716308594, 0.044229038, -0.014924617, 0.072203636
212, 195476910, 15.43587589263916, -15.658000946044922, -165.9718780517578, 0.029839497, -0.0041722325, 0.07231617
213, 195493577, 15.432201385498047, -15.661628723144531, -165.9772186279297, 0.019521886, 0.0065117287, 0.052660942
214, 195510244, 15.431465148925781, -15.663559913635254, -165.98117065429688, 0.02044776, -0.028538847, 0.03835869
215, 195526911, 15.429513931274414, -15.66469955444336, -165.98703002929688, 0.042067472, -0.049486175, 0.060790062
216, 195543578, 15.427779197692871, -15.663406372070312, -165.98802185058594, 0.04945344, -0.014096767, 0.058059692
217, 195560245, 15.424370765686035, -15.663265228271484, -165.98802185058594, 0.054720707, -0.012690926, 0.05866146
218, 195576912, 15.42176342010498, -15.662477493286133, -165.99075317382812, 0.016534148, -0.07982824, 0.040953636
219, 195593579, 15.416382789611816, -15.661704063415527, -165.9997100830078, -0.039227657, -0.14261761, 0.070801735
220, 195610246, 15.416985511779785, -15.662363052368164, -166.01715087890625, -0.043875497, -0.12899919, 0.09374523
221, 195626913, 15.426165580749512, -15.663058280944824, -166.04293823242188, 0.009321119, -0.050229356, 0.073797226
222, 195643580, 15.435439109802246, -15.660820007324219, -166.0702667236328, 0.042366058, -0.059250854, 0.036816597
223, 195660247, 15.440876007080078, -15.658221244812012, -166.1012420654297, -0.014399123, -0.3020497, 0.052880287
224, 195676914, 15.431456565856934, -15.654776573181152, -166.14816284179688, -0.11125809, -0.57857335, 0.1142025
225, 195693581, 15.413026809692383, -15.654396057128906, -166.23117065429688, -0.20136158, -0.6393433, 0.13453579
226, 195710248, 15.384478569030762, -15.658842086791992, -166.36129760742188, -0.13420582, -0.540587, 0.07401943
227, 195726915, 15.343056678771973, -15.662120819091797, -166.51515197753906, -0.027404295, -0.37000075, 0.022659302
228, 195743582, 15.23265552520752, -15.669761657714844, -166.66351318359375, 0.012528348, -0.41142473, -0.057427406
229, 195760249, 15.037578582763672, -15.670022010803223, -166.7975311279297, -0.21905173, -0.4641671, 0.17258644
230, 195776916, 14.776250839233398, -15.694260597229004, -166.94827270507812, -0.33029935, -0.17870983, 0.056046486
231, 195793583, 14.52242374420166, -15.689697265625, -167.07606506347656, -0.11315957, 0.002098591, -0.1005106
232, 195810250, 14.347355842590332, -15.652413368225098, -167.1672821044922, 0.103702314, 0.14291269, 0.057865143
233, 195826917, 14.187098503112793, -15.628913879394531, -167.23944091796875, 0.06791192, -0.0024710055, 0.17887402
234, 195843584, 13.987467765808105, -15.626656532287598, -167.30120849609375, 0.002020152, -0.14266764, 0.10510731
235, 195860251, 13.804856300354004, -15.615795135498047, -167.36109924316406, 0.06731267, 0.030563204, -0.013627052
236, 195876918, 13.622495651245117, -15.589242935180664, -167.41575622558594, 0.12434692, 0.15084419, -0.043546677
237, 195893585, 13.438106536865234, -15.561725616455078, -167.47662353515625, 0.20871712, 0.24234772, 0.024368286
238, 195910252, 13.283642768859863, -15.539355278015137, -167.53607177734375, 0.3249142, 0.25398028, -0.0349226
239, 195926919, 13.14274787902832, -15.512596130371094, -167.58108520507812, 0.41458678, 0.16034104, -0.04122162
240, 195943586, 12.986173629760742, -15.48403549194336, -167.61900329589844, 0.285599, 0.09936451, -0.049839973
241, 195960253, 12.814026832580566, -15.457913398742676, -167.65826416015625, 0.17941894, 0.028717462, 0.009971619
242, 195976920, 12.623228073120117, -15.440070152282715, -167.71096801757812, 0.15921344, 0.06573928, 0.05199337
243, 195993587, 12.449419975280762, -15.420904159545898, -167.776611328125, 0.15296112, 0.11008868, 0.082325935
244, 196010254, 12.294438362121582, -15.400246620178223, -167.8448944091797, 0.1316696, 0.16264403, 0.10655403
245, 196026921, 12.14865493774414, -15.376883506774902, -167.91351318359375, 0.123600245, 0.24085309, 0.042835236
246, 196043588, 12.007875442504883, -15.351509094238281, -167.9794921875, 0.060211807, 0.43277884, 0.026908875
247, 196060255, 11.874957084655762, -15.333609580993652, -168.03677368164062, 0.023606502, 0.50116354, 0.09081268
248, 196076922, 11.762567520141602, -15.325554847717285, -168.08966064453125, -0.052504282, 0.41337764, 0.06350994
249, 196093589, 11.67629337310791, -15.310853004455566, -168.13653564453125, -0.13041145, 0.382441, 0.049238205
250, 196110256, 11.610048294067383, -15.286767959594727, -168.18199157714844, -0.123771876, 0.40506503, 0.09274769
251, 196126923, 11.552526473999023, -15.256308555603027, -168.2227020263672, -0.10826727, 0.4372133, 0.06919956
252, 196143590, 11.506392478942871, -15.22502326965332, -168.2529754638672, -0.03816144, 0.4319389, 0.023822784
253, 196160257, 11.48530387878418, -15.188597679138184, -168.27301025390625, 0.026926592, 0.3336609, -0.043236732
254, 196176924, 11.47353744506836, -15.139777183532715, -168.28611755371094, 0.027962072, 0.25182033, -0.0169096
255, 196193591, 11.462279319763184, -15.09043025970459, -168.30319213867188, -0.03690681, 0.15964025, 0.10497761
256, 196210258, 11.436479568481445, -15.053731918334961, -168.33779907226562, -0.12504779, 0.053058594, 0.17698097
257, 196226925, 11.392492294311523, -15.030099868774414, -168.3797607421875, -0.115200795, 0.05214722, 0.10534668
258, 196243592, 11.363070487976074, -15.004425048828125, -168.41104125976562, -0.014710799, 0.12133338, 0.010936737
259, 196260259, 11.350105285644531, -14.970504760742188, -168.43016052246094, 0.05581299, 0.0860031, -0.018799782
260, 196276926, 11.348923683166504, -14.93050479888916, -168.45220947265625, 0.032194834, -0.06494131, 0.04238701
261, 196293593, 11.358539581298828, -14.889023780822754, -168.4871063232422, 0.021820216, -0.14267015, 0.07500839
262, 196310260, 11.367737770080566, -14.852535247802734, -168.52996826171875, 0.071971044, -0.07923963, 0.07157421
263, 196326927, 11.372025489807129, -14.817651748657227, -168.5666046142578, 0.10302838, -0.05644455, 0.09225464
264, 196343594, 11.363837242126465, -14.793238639831543, -168.5946044921875, 0.07396384, -0.1184726, 0.16074562
265, 196360261, 11.345888137817383, -14.775678634643555, -168.62278747558594, -0.010865998, -0.16984148, 0.08126545
266, 196376928, 11.31161880493164, -14.754190444946289, -168.6536102294922, 0.029495329, -0.23416348, 0.024038315
267, 196393595, 11.277261734008789, -14.73011589050293, -168.69020080566406, 0.067578, -0.2207409, 0.04826832
268, 196410262, 11.22537612915039, -14.714753150939941, -168.73287963867188, 0.08904467, -0.07778108, 0.059732437
269, 196426929, 11.15953254699707, -14.706746101379395, -168.76954650878906, 0.11580253, 0.029852243, 0.09478855
270, 196443596, 11.093560218811035, -14.699287414550781, -168.7946014404297, 0.10063258, 0.10352976, 0.058300972
271, 196460263, 11.033490180969238, -14.683233261108398, -168.8095245361328, 0.04894708, 0.11932136, 0.09144974
272, 196476930, 10.981843948364258, -14.673028945922852, -168.82444763183594, 0.014921062, 0.10625525, 0.08193016
273, 196493597, 10.934504508972168, -14.666316986083984, -168.84165954589844, 0.03960586, 0.116143644, 0.09476471
274, 196510264, 10.89070987701416, -14.669732093811035, -168.85479736328125, 0.13282184, 0.16193749, 0.1111536
275, 196526931, 10.863715171813965, -14.676348686218262, -168.86212158203125, 0.14761059, 0.22825812, 0.043442726
276, 196543598, 10.841748237609863, -14.676277160644531, -168.8689727783203, 0.10177783, 0.18478878, 0.09218216
277, 196560265, 10.809876441955566, -14.680124282836914, -168.87884521484375, -0.03531539, 0.09900329, 0.14987373
278, 196576932, 10.773699760437012, -14.687710762023926, -168.88575744628906, -0.085999414, 0.1013674, 0.072029114
279, 196593599, 10.749785423278809, -14.691144943237305, -168.8812713623047, -0.054359112, 0.16531022, -0.0048303604
280, 196610266, 10.74452018737793, -14.689252853393555, -168.86712646484375, 0.01725833, 0.23139606, -0.0040245056
281, 196626933, 10.743967056274414, -14.689102172851562, -168.8551025390625, 0.03529142, 0.16696219, 0.050849915
282, 196643600, 10.739364624023438, -14.691909790039062, -168.84864807128906, 0.013698215, 0.061169572, 0.08398533
283, 196660267, 10.734101295471191, -14.693063735961914, -168.84605407714844, -0.015585453, 0.064668976, 0.049930573
284, 196676934, 10.735112190246582, -14.697381973266602, -168.84327697753906, 0.08050773, 0.12694335, 0.052838326
285, 196693601, 10.750279426574707, -14.704051971435547, -168.83433532714844, 0.08069569, 0.10447946, 0.12943554
286, 196710268, 10.759655952453613, -14.713582038879395, -168.8317413330078, -2.6388498E-5, -0.07961369, 0.112457275
287, 196726935, 10.752856254577637, -14.724129676818848, -168.8411102294922, -0.06907572, -0.19641644, 0.061437607
288, 196743602, 10.735755920410156, -14.734922409057617, -168.86228942871094, -0.044848923, -0.21235606, -0.017315865
289, 196760269, 10.710403442382812, -14.736706733703613, -168.89114379882812, -0.033450305, -0.10952832, -0.03745556
290, 196776936, 10.68923282623291, -14.726558685302734, -168.92140197753906, -0.01718117, 0.023955643, -0.046753883
291, 196793603, 10.687146186828613, -14.69891357421875, -168.94830322265625, 0.07423284, 0.14993063, 0.03522396
292, 196810270, 10.693794250488281, -14.672415733337402, -168.97830200195312, 0.12193886, 0.138322, 0.17940998
293, 196826937, 10.705289840698242, -14.659423828125, -169.02040100097656, 0.09800248, 0.124772444, 0.20290661
294, 196843604, 10.715987205505371, -14.659867286682129, -169.0803985595703, 0.09975377, 0.20429367, 0.096279144
295, 196860271, 10.751053810119629, -14.655267715454102, -169.15037536621094, 0.14446054, 0.31816936, 0.019159317
296, 196876938, 10.813702583312988, -14.64681625366211, -169.22215270996094, 0.14172852, 0.40486404, 0.04776287
297, 196893605, 10.882070541381836, -14.639618873596191, -169.27732849121094, 0.14288354, 0.42708787, 0.10204029
298, 196910272, 10.949239730834961, -14.64236831665039, -169.30157470703125, 0.14069137, 0.46533626, 0.070884705
299, 196926939, 11.030207633972168, -14.636212348937988, -169.29791259765625, 0.10165784, 0.32931235, 0.08540058
300, 196943606, 11.11737060546875, -14.627053260803223, -169.27569580078125, -0.015092013, 0.17226726, 0.08434677
301, 196960273, 11.208237648010254, -14.623771667480469, -169.2425537109375, -0.097815804, 0.1156837, 0.07011318
302, 196976940, 11.310460090637207, -14.618758201599121, -169.2023468017578, -0.11441119, 0.10323322, 0.057816505
303, 196993607, 11.430169105529785, -14.616405487060547, -169.14620971679688, -0.03188563, 0.09656359, 0.086304665
304, 197010274, 11.57640266418457, -14.615138053894043, -169.07150268554688, -0.051754884, 0.06973495, 0.1573515
305, 197026941, 11.739978790283203, -14.615575790405273, -168.98208618164062, -0.17032945, -0.03203227, 0.174963
306, 197043608, 11.88149356842041, -14.623303413391113, -168.8750762939453, -0.21137045, -0.20899272, 0.17572594
307, 197060275, 12.003504753112793, -14.636881828308105, -168.7510223388672, -0.16565375, -0.07986782, 0.15637016
308, 197076942, 12.13210678100586, -14.646085739135742, -168.63401794433594, -0.09091392, 0.1459397, 0.11758232
309, 197093609, 12.26742935180664, -14.68310546875, -168.55374145507812, -0.09239267, 0.26800832, 0.006464958
310, 197110276, 12.373880386352539, -14.736404418945312, -168.5078887939453, -0.25813702, 0.41254222, -0.16727352
311, 197126943, 12.459708213806152, -14.74761962890625, -168.459228515625, -0.33790314, 0.32566386, -0.28796005
312, 197143610, 12.549344062805176, -14.673186302185059, -168.3887481689453, -0.19022462, -0.08021831, -0.1272955
313, 197160277, 12.626323699951172, -14.559962272644043, -168.31283569335938, 0.054869663, -0.22475657, 0.27825928
314, 197176944, 12.618374824523926, -14.497247695922852, -168.2832489013672, 0.21029617, -0.30264595, 0.573863
315, 197193611, 12.536192893981934, -14.527158737182617, -168.3276824951172, 0.39994502, -0.19880393, 0.4955473
316, 197210278, 12.506205558776855, -14.598215103149414, -168.4113311767578, 0.44902214, 0.33916092, 0.24061203
317, 197226945, 12.587784767150879, -14.64725399017334, -168.49713134765625, 0.39866087, 0.4520054, 0.3568983
318, 197243612, 12.747166633605957, -14.680996894836426, -168.58670043945312, 0.17869416, -0.061733272, 0.37646866
319, 197260279, 12.828798294067383, -14.758748054504395, -168.6642608642578, 0.054304652, -0.15588713, -0.22838306
320, 197276946, 12.8045015335083, -14.865116119384766, -168.6991729736328, 0.2775181, 0.045259908, -0.94599533
321, 197293613, 12.769144058227539, -14.95867919921875, -168.67686462402344, 0.5370034, 0.03557852, -1.344451
322, 197310280, 12.743084907531738, -15.018617630004883, -168.57997131347656, 0.7531167, -0.1397913, -0.036646843
323, 197326947, 12.636697769165039, -15.087295532226562, -168.46368408203125, -0.701526, -0.7681122, 0.806468
324, 197343614, 12.465680122375488, -15.210214614868164, -168.35855102539062, -1.217387, -0.8684483, -0.39038563
325, 197360281, 12.242040634155273, -15.258879661560059, -168.2518768310547, -0.37522456, 0.00811623, -0.32131672
326, 197376948, 12.096879005432129, -15.328008651733398, -168.20335388183594, -0.39224306, 0.26531044, -0.25357628
327, 197393615, 12.066193580627441, -15.369027137756348, -168.1825408935547, -0.58182913, -0.3254332, 0.1910696
328, 197410282, 12.121225357055664, -15.365569114685059, -168.20851135253906, -0.79011416, -0.5081814, 0.5637579
329, 197426949, 12.269484519958496, -15.311196327209473, -168.32049560546875, -0.6223129, -0.46541977, 0.6586075
330, 197443616, 12.483192443847656, -15.247808456420898, -168.5162811279297, -0.17030282, -0.4597542, 0.4395647
331, 197460283, 12.731427192687988, -15.203237533569336, -168.74227905273438, 0.46707928, -0.59752953, 0.19420147
332, 197476950, 12.928427696228027, -15.207995414733887, -168.97140502929688, 0.1755513, -1.1543069, 0.14733315
333, 197493617, 13.052197456359863, -15.24234390258789, -169.22402954101562, -0.47881302, -1.5635347, 0.22711563
334, 197510284, 13.111021995544434, -15.317709922790527, -169.52955627441406, -0.9245627, -1.1674132, -0.034872055
335, 197526951, 13.131622314453125, -15.410257339477539, -169.85989379882812, -0.5355301, -0.5353575, -0.3800888
336, 197543618, 13.104275703430176, -15.472434997558594, -170.14952087402344, 0.29848436, -0.09873141, -0.12114239
337, 197560285, 13.00204086303711, -15.511503219604492, -170.3756866455078, 1.1464758, 0.12981988, 0.53209305
338, 197576952, 12.84714412689209, -15.595941543579102, -170.55169677734375, 1.6052352, 0.51214063, 0.4673977
339, 197593619, 12.68416976928711, -15.7393159866333, -170.6719970703125, 1.7827783, 1.3884423, -0.36267185
340, 197610286, 12.312909126281738, -16.002201080322266, -170.730224609375, 2.3393934, 1.987034, -0.73643875
341, 197626953, 11.861132621765137, -16.2908935546875, -170.74319458007812, 4.2458777, 1.7535535, -0.45744896
342, 197643620, 11.855886459350586, -16.69925308227539, -170.81048583984375, 4.798745, 0.92740595, 0.7310085
343, 197660287, 10.472949028015137, -17.09646987915039, -170.96160888671875, 2.5108936, 0.023685804, -2.9997587
344, 197676954, 9.22998332977295, -17.587739944458008, -171.13449096679688, 2.0912535, 4.3122907, -0.024456978
345, 197693621, 8.840198516845703, -18.092700958251953, -171.3424072265625, 1.1545801, 3.2277997, -1.9002094
346, 197710288, 8.971681594848633, -18.570785522460938, -171.6803436279297, 1.2273915, 1.2691616, 1.9301863
347, 197726955, 9.045583724975586, -19.23176383972168, -171.98257446289062, -0.5316843, -2.0513601, 1.591444
348, 197743622, 9.113704681396484, -20.022294998168945, -172.2000274658203, -1.6510639, -0.8662393, 1.3471899
349, 197760289, 9.383626937866211, -20.9447078704834, -172.50547790527344, -1.0694739, 0.600645, 0.6134834
350, 197776956, 9.791138648986816, -21.916397094726562, -172.76345825195312, 0.12639885, -0.7743507, 1.1601667
351, 197793623, 10.155180931091309, -22.970928192138672, -172.9902801513672, -0.022672169, -1.6715778, 1.3073416
352, 197810290, 10.468911170959473, -24.15436363220215, -173.2068634033203, 0.39533836, -1.3899604, 0.853961
353, 197826957, 10.685199737548828, -25.397794723510742, -173.4441375732422, 0.024437238, -0.7064582, 0.6303663
354, 197843624, 10.88864803314209, -26.73078155517578, -173.7025604248047, -0.23744774, 0.07211144, 0.7764149
355, 197860291, 11.085330963134766, -28.118844985961914, -173.8955841064453, -1.0269388, 1.0466785, 0.58447456
356, 197876958, 11.368404388427734, -29.519739151000977, -173.9912567138672, -0.9400887, 1.2429749, 0.24344921
357, 197893625, 11.781681060791016, -30.877628326416016, -174.01820373535156, -0.92942566, 0.92419744, 0.15006447
358, 197910292, 12.290855407714844, -32.250423431396484, -174.03367614746094, -0.91501933, 0.18723549, 0.46246338
359, 197926959, 12.781551361083984, -33.694305419921875, -174.0647735595703, -0.8453429, -1.049108, 0.5166931
360, 197943626, 13.248132705688477, -35.193302154541016, -174.1144561767578, -1.0963118, -1.3998766, 0.38332367
361, 197960293, 13.709433555603027, -36.71962356567383, -174.16650390625, -1.0412621, -1.3966297, -0.13220406
362, 197976960, 14.201489448547363, -38.24734878540039, -174.22109985351562, -0.61132103, -0.9835197, -0.2657547
363, 197993627, 14.761651039123535, -39.75160598754883, -174.30735778808594, -0.35888273, -0.79019135, -0.09901619
364, 198010294, 15.388165473937988, -41.254024505615234, -174.48524475097656, -0.2107797, -1.0290378, -0.1899805
365, 198026961, 16.07258415222168, -42.730621337890625, -174.7301483154297, 0.07124167, -0.771767, -0.33071327
366, 198043628, 16.726341247558594, -44.2054557800293, -174.97103881835938, -0.14049745, -0.7243306, -0.47176456
367, 198060295, 17.31035041809082, -45.689491271972656, -175.18948364257812, -0.23021941, 0.013642142, -0.37423038
368, 198076962, 17.847946166992188, -47.182193756103516, -175.4114990234375, -0.0016302895, 0.21992068, -0.29333115
369, 198093629, 18.3928279876709, -48.64091110229492, -175.6426239013672, -0.045231186, 0.5057992, -0.1344204
370, 198110296, 18.981040954589844, -50.069252014160156, -175.89883422851562, -0.18447646, 0.76940936, -0.30084705
371, 198126963, 19.672788619995117, -51.4955940246582, -176.199951171875, 0.0012922122, 1.0461113, -0.36768246
372, 198143630, 20.436595916748047, -52.9488639831543, -176.5274658203125, -1.7839127E-5, 0.71256626, -0.34324932
373, 198160297, 21.20903205871582, -54.40272903442383, -176.8269805908203, -0.28794473, 0.57280034, -0.32261086
374, 198176964, 21.95551300048828, -55.829524993896484, -177.09832763671875, -0.11346392, 0.4503368, -0.13103199
375, 198193631, 22.730077743530273, -57.21500778198242, -177.3811798095703, 0.14297993, 0.13849343, -0.118270874
376, 198210298, 23.517074584960938, -58.59664535522461, -177.69744873046875, 0.49725842, 0.31188914, 0.0093278885
377, 198226965, 24.34783363342285, -59.9626350402832, -178.02102661132812, 0.31975877, 0.6561477, -0.24012947
378, 198243632, 25.25845718383789, -61.29426956176758, -178.33999633789062, 0.5574838, 0.65045756, -0.3544159
379, 198260299, 26.255294799804688, -62.59410858154297, -178.65817260742188, 0.6552131, 0.36454013, -0.4733038
380, 198276966, 27.301694869995117, -63.9103889465332, -178.99781799316406, 0.6849324, -0.110712335, -0.260005
381, 198293633, 28.3505802154541, -65.2109375, -179.36984252929688, 0.3227493, -0.3730723, -0.13650703
382, 198310300, 29.370845794677734, -66.46345520019531, -179.7352294921875, -0.22168897, -0.3078222, -0.06816387
383, 198326967, 30.46821403503418, -67.73585510253906, 179.7886199951172, -0.013618281, -0.43054116, 0.20566559
384, 198343634, 31.65807342529297, -68.9900131225586, 179.2113494873047, -0.5209477, -0.30912405, 0.22087002
385, 198360301, 32.91276550292969, -70.2564697265625, 178.61476135253906, -1.432278, 0.27140048, -0.2011509
386, 198376968, 34.26564025878906, -71.51009368896484, 178.01666259765625, -1.2281216, 0.19442499, -0.22056198
387, 198393635, 35.7746467590332, -72.72113800048828, 177.28033447265625, -0.8572948, -0.6024931, 0.25025082
388, 198410302, 37.38602066040039, -73.88302612304688, 176.30703735351562, -0.7852865, -0.9586586, 0.43251514
389, 198426969, 39.15074157714844, -75.03015899658203, 174.96681213378906, -0.7761549, -0.9031345, 0.1384058
390, 198443636, 41.00133514404297, -76.15731048583984, 173.42446899414062, -0.71806407, -0.28998134, 0.104691505
391, 198460303, 42.76374816894531, -77.2399673461914, 171.94500732421875, -0.6351382, 0.39091232, 0.36993408
392, 198476970, 44.6848030090332, -78.24652862548828, 170.35617065429688, -1.0797744, 0.40189976, 0.31586838
393, 198493637, 46.954803466796875, -79.19097900390625, 168.46237182617188, -0.11294744, -0.045552053, 0.38358974
394, 198510304, 49.362571716308594, -80.09315490722656, 166.39849853515625, -0.35732543, -0.420991, 0.11580372
395, 198526971, 51.698707580566406, -80.89908599853516, 164.31982421875, 0.11644597, -0.3146642, 0.35037518
396, 198543638, 53.91755676269531, -81.63118743896484, 162.3054962158203, -0.28187028, -0.011480408, 0.61678696
397, 198560305, 56.42118835449219, -82.31068420410156, 159.9773406982422, -0.6238404, 0.25393072, 0.34988403
398, 198576972, 59.35532760620117, -82.95121765136719, 157.21583557128906, -0.8502104, -0.33057085, -0.077445984
399, 198593639, 62.71989822387695, -83.57389831542969, 154.0124969482422, -0.66172606, -0.6166463, -0.1380024
400, 198610306, 66.18282318115234, -84.15910339355469, 150.6567840576172, -0.68374413, -0.87087655, 0.12647915
401, 198626973, 69.82130432128906, -84.70210266113281, 147.04103088378906, -0.39565557, -0.8981544, 0.5547533
402, 198643640, 74.2064437866211, -85.20719146728516, 142.6179962158203, -0.5122702, -0.54858977, 0.54760456
403, 198660307, 79.2964859008789, -85.66423797607422, 137.4747314453125, -0.63267094, -0.5686221, 0.31191063
404, 198676974, 84.37770080566406, -86.04557037353516, 132.3180694580078, -0.092760555, -0.58694446, 0.29296875
405, 198693641, 89.06328582763672, -86.36600494384766, 127.54205322265625, 0.13629815, -0.15271087, 0.3063488
406, 198710308, 93.54569244384766, -86.63233184814453, 122.99998474121094, 0.2066199, 0.24071005, 0.47794724
407, 198726975, 96.91121673583984, -86.86375427246094, 119.6436996459961, 0.15987971, 0.22000358, 0.5562029
408, 198743642, 99.49113464355469, -87.06816101074219, 117.14744567871094, 0.3321593, 0.335483, 0.66964245
409, 198760309, 102.13301086425781, -87.21920013427734, 114.65802001953125, 0.15707982, 0.489872, 0.22319794
410, 198776976, 103.89958953857422, -87.34170532226562, 113.1314697265625, 0.16546194, 0.04439213, 0.111561775
411, 198793643, 103.2657241821289, -87.45439910888672, 113.94317626953125, 0.43844247, -0.6119076, 0.30667782
412, 198810310, 102.42229461669922, -87.53717041015625, 114.80217742919922, 0.68863595, -0.7438635, 0.3572054
413, 198826977, 102.65203094482422, -87.61566925048828, 114.5455322265625, 0.37462834, 0.018891428, 0.09442425
414, 198843644, 102.78888702392578, -87.72076416015625, 114.47791290283203, 0.17871957, 0.4716396, -0.15616703
415, 198860311, 102.60133361816406, -87.8475112915039, 114.82072448730469, 0.12228545, 0.062285572, -0.18253899
416, 198876978, 101.6440200805664, -87.99250030517578, 115.98237609863281, -0.14049695, -0.11013277, 0.21758652
417, 198893645, 100.9841079711914, -88.10153198242188, 116.79344940185547, -0.041123703, -0.27677676, 0.45587826
418, 198910312, 101.3373794555664, -88.17855834960938, 116.51902770996094, 0.30445835, -0.09778703, 0.28231716
419, 198926979, 101.36756134033203, -88.2658462524414, 116.47157287597656, 0.39697337, 0.1330528, 0.13110924
420, 198943646, 101.63042449951172, -88.3690185546875, 116.17593383789062, 0.3898536, 0.35546136, 0.028461456
421, 198960313, 102.16020965576172, -88.48302459716797, 115.66209411621094, 0.36043257, 0.4676604, 0.21792698
422, 198976980, 103.5650405883789, -88.58087158203125, 114.35652923583984, 0.1985988, -0.021180088, 0.36796474
423, 198993647, 104.99490356445312, -88.6569595336914, 113.05349731445312, 0.35912678, -0.34887344, 0.29028702
424, 199010314, 105.87629699707031, -88.71138763427734, 112.22923278808594, 0.41447762, -0.16893981, 0.10147953
425, 199026981, 105.5492935180664, -88.7742691040039, 112.56180572509766, 0.3550847, -0.13522321, 0.14361
426, 199043648, 105.28857421875, -88.83702850341797, 112.79988098144531, 0.2539562, -0.1796491, 0.1376772
427, 199060315, 104.54270935058594, -88.90335845947266, 113.47866821289062, -0.041623812, -0.20827809, 0.18787384
428, 199076982, 102.89972686767578, -88.97550201416016, 115.02669525146484, -0.06539626, -0.17807043, 0.19432354
429, 199093649, 101.46598052978516, -89.05044555664062, 116.39189147949219, -0.29598084, -0.21966037, 0.10811901
430, 199110316, 99.83418273925781, -89.12620544433594, 117.97359466552734, -0.45770273, -0.31416065, 0.07764053
431, 199126983, 96.06387329101562, -89.20230102539062, 121.69315338134766, -0.36949015, -0.10740535, 0.20414639
432, 199143650, 89.15300750732422, -89.27127075195312, 128.58363342285156, -0.0541378, -0.14041229, 0.3071518
433, 199160317, 79.67786407470703, -89.30451202392578, 137.9928741455078, 0.17466576, -0.21859701, 0.28343868
434, 199176984, 70.18456268310547, -89.29946899414062, 147.39825439453125, 0.39244673, -0.19046791, 0.21513748
435, 199193651, 60.52961349487305, -89.26805114746094, 156.9231719970703, 0.7560647, -0.3304191, -0.04314518
436, 199210318, 49.63824462890625, -89.22267150878906, 167.65040588378906, 0.8369875, -0.36608046, -0.023708344
437, 199226985, 38.62412643432617, -89.1333999633789, 178.44390869140625, 0.48164845, -0.19684552, 0.18535614
438, 199243652, 30.32069969177246, -89.00201416015625, -173.42042541503906, 0.2243369, -0.3319573, 0.111260414
439, 199260319, 24.47621726989746, -88.83820343017578, -167.71743774414062, 0.36281678, -0.44252414, -0.059378624
440, 199276986, 18.25919532775879, -88.66529083251953, -161.59646606445312, -0.0106522925, -0.073549286, 0.15008163
441, 199293653, 11.793059349060059, -88.4686508178711, -155.1144561767578, -0.475549, 0.5727574, 0.81101036
442, 199310320, 7.59795618057251, -88.28959655761719, -150.7031707763672, -1.0981449, 0.83804107, 0.7344246
443, 199326987, 5.4443254470825195, -88.12633514404297, -148.1648712158203, -1.0828177, 0.46333173, 0.22065258
444, 199343654, 4.055267810821533, -87.96125793457031, -146.3193817138672, -0.6445066, -0.09980379, 0.03169155
445, 199360321, 3.2634317874908447, -87.78955078125, -145.0872802734375, -0.137053, -0.325011, 0.16142082
446, 199376988, 3.2653510570526123, -87.6188735961914, -144.7010040283203, 0.18877022, -0.092497036, 0.081650734
447, 199393655, 3.6612963676452637, -87.43914031982422, -144.69740295410156, 0.24351753, 0.08077792, -0.084952354
448, 199410322, 4.073503494262695, -87.26133728027344, -144.6216278076172, 0.18990873, 0.3372149, 0.047953606
449, 199426989, 4.415529727935791, -87.08670806884766, -144.4208221435547, 0.01597816, 0.23248108, 0.29089928
450, 199443656, 4.656783580780029, -86.92420196533203, -144.1372528076172, -0.15553445, 0.12615283, 0.42682552
451, 199460323, 4.795661449432373, -86.7741470336914, -143.74923706054688, -0.33322737, 0.34355786, 0.38724422
452, 199476990, 4.880926132202148, -86.627685546875, -143.27957153320312, -0.5100918, 0.4115865, 0.3017559
453, 199493657, 4.954227924346924, -86.48832702636719, -142.74771118164062, -0.5821431, 0.25213397, 0.14528084
454, 199510324, 5.212499141693115, -86.37972259521484, -142.41726684570312, -0.2693876, 0.062463153, 0.033974648
455, 199526991, 5.670589923858643, -86.30133056640625, -142.35618591308594, 0.017974911, -0.2063799, 0.06417847
456, 199543658, 6.242885112762451, -86.24192810058594, -142.4866485595703, 0.2242923, -0.13989866, 0.19038391
457, 199560325, 7.066920280456543, -86.1949691772461, -142.95413208007812, 0.21859908, -0.067635246, 0.2205267
458, 199576992, 8.388370513916016, -86.14425659179688, -143.96807861328125, 0.6428759, -0.036852594, 0.08688831
459, 199593659, 9.847614288330078, -86.10494232177734, -145.14181518554688, 0.40493926, 0.1314293, 0.047192574
460, 199610326, 11.262444496154785, -86.06488037109375, -146.25143432617188, 0.42475954, 0.42311853, 0.14189434
461, 199626993, 12.67795181274414, -86.01356506347656, -147.3507080078125, 0.47273353, 0.42407906, 0.29147148
462, 199643660, 14.11809253692627, -85.9543685913086, -148.4806671142578, 0.32166654, 0.24401177, 0.28763485
463, 199660327, 15.53473949432373, -85.89668273925781, -149.63714599609375, 0.25797233, 0.08993077, 0.22691536
464, 199676994, 16.80447769165039, -85.86312866210938, -150.66331481933594, 0.026376428, -0.071286775, 0.102993965
465, 199693661, 18.02277946472168, -85.81124114990234, -151.6488037109375, -0.3532986, 0.06921448, 0.09211731
466, 199710328, 19.086448669433594, -85.77108001708984, -152.4398651123047, -0.54615515, -0.019989211, 0.1251545
467, 199726995, 20.152210235595703, -85.74531555175781, -153.2149658203125, -0.3811884, -0.24967101, 0.13087082
468, 199743662, 21.35021209716797, -85.72822570800781, -154.16195678710938, -0.070830025, -0.50025374, 0.018288612
469, 199760329, 22.453277587890625, -85.72900390625, -155.0918731689453, 0.1306758, -0.36276388, 0.024201393
470, 199776996, 23.4654483795166, -85.73887634277344, -156.0029296875, 0.21739244, -0.13651925, 0.19042873
471, 199793663, 24.562713623046875, -85.73685455322266, -157.0404052734375, 0.4779863, -0.12123935, 0.21920776
472, 199810330, 25.734336853027344, -85.74522399902344, -158.17349243164062, 0.5739023, 0.033704523, 0.090605736
473, 199826997, 26.85552978515625, -85.7695541381836, -159.2691192626953, 0.25238252, 0.21022801, 0.1706543
474, 199843664, 27.60689926147461, -85.79508972167969, -159.9467315673828, -0.33946544, 0.170069, 0.21553326
475, 199860331, 28.14623260498047, -85.81849670410156, -160.38356018066406, -0.031791814, -0.47330543, 0.08543301
476, 199876998, 28.8538818359375, -85.85433197021484, -161.0526885986328, 0.3758767, -1.0958582, 0.088495255
477, 199893665, 29.950523376464844, -85.9228286743164, -162.21743774414062, 0.27509657, -0.9832183, 0.12782383
478, 199910332, 31.210325241088867, -86.00472259521484, -163.60829162597656, 0.3012193, -0.75346416, 0.21646404
479, 199926999, 32.41368865966797, -86.06876373291016, -164.98193359375, 0.69117856, -0.4775894, 0.32909775
480, 199943666, 33.54178237915039, -86.11058044433594, -166.3316192626953, 0.8893471, -0.17537564, 0.32617092
481, 199960333, 34.64238357543945, -86.14131164550781, -167.70033264160156, 0.6693036, 0.36375785, 0.3122406
482, 199977000, 35.74501037597656, -86.15473175048828, -169.02883911132812, 0.41638374, 0.67546386, 0.11101341
483, 199993667, 36.62403869628906, -86.1346664428711, -169.94674682617188, 0.21146695, 0.5196047, 0.11038399
484, 200010334, 37.370849609375, -86.08119201660156, -170.56626892089844, -0.126805, -0.23887612, 0.094516754
485, 200027001, 37.93201446533203, -86.03888702392578, -170.91468811035156, -0.7565996, -1.0670941, -0.007092476
486, 200043668, 37.99116897583008, -86.00948333740234, -170.84837341308594, -0.12943394, -1.16987, 0.11580181
487, 200060335, 38.16630172729492, -86.02083587646484, -171.0194854736328, 0.12182255, -1.2747189, 0.41268063
488, 200077002, 38.510948181152344, -86.09957122802734, -171.41009521484375, -1.7008634, -0.1551133, 0.17456913
489, 200093669, 38.2943229675293, -86.18700408935547, -171.19387817382812, -1.6569747, -0.10456987, -0.10470295
490, 200110336, 37.73526382446289, -86.24756622314453, -170.67092895507812, -0.21780354, -0.24631585, -0.10865784
491, 200127003, 36.96784973144531, -86.28279876708984, -169.9652557373047, 0.35059276, 0.0038553749, 0.26865387
492, 200143670, 36.47513961791992, -86.28659057617188, -169.52005004882812, 0.5264808, -0.10954716, 0.5992546
493, 200160337, 36.43378829956055, -86.25027465820312, -169.4970245361328, 0.9634184, -0.2293994, 0.6042814
494, 200177004, 36.704471588134766, -86.19353485107422, -169.7622833251953, 0.9236135, -0.2068152, 0.37948704
495, 200193671, 36.95745849609375, -86.10509490966797, -169.96047973632812, 0.7306066, -0.25344166, -0.07269192
496, 200210338, 36.76425552368164, -85.98341369628906, -169.65460205078125, 0.4098235, -0.34636405, -0.27526283
497, 200227005, 36.23442840576172, -85.84772491455078, -168.98878479003906, 0.03871334, -0.2212139, 0.1272831
498, 200243672, 35.77788543701172, -85.71536254882812, -168.3979949951172, -0.22517969, -0.045495056, 0.5432873
499, 200260339, 35.57067108154297, -85.57685852050781, -168.06390380859375, -0.6130439, 0.06110319, 0.4452858
500, 200277006, 35.528587341308594, -85.40019226074219, -167.88352966308594, -0.41702852, -0.08955281, -0.036250114
501, 200293673, 35.48715591430664, -85.18793487548828, -167.69320678710938, -0.58978057, -0.23404858, 0.063985825
502, 200310340, 35.4854621887207, -84.9686508178711, -167.5620574951172, -0.5132843, -0.2191493, 0.3581133
503, 200327007, 35.44916534423828, -84.78541564941406, -167.43077087402344, -0.4445229, -0.102045625, 0.483943
504, 200343674, 35.42200469970703, -84.65031433105469, -167.3891143798828, -0.56753993, 0.14432019, 0.43506813
505, 200360341, 35.39031982421875, -84.565673828125, -167.34718322753906, -0.8758804, 0.44529045, 0.29428864
506, 200377008, 35.30714416503906, -84.50299835205078, -167.19761657714844, -1.0607765, 0.48516718, 0.026320457
507, 200393675, 35.12687683105469, -84.46070098876953, -166.87286376953125, -0.5427515, 0.076469034, -0.17803192
508, 200410342, 34.7857551574707, -84.43627166748047, -166.39993286132812, -0.016001068, -0.09591723, -0.092051506
509, 200427009, 34.416404724121094, -84.43285369873047, -165.89694213867188, 0.46924108, -0.34172794, 0.17933655
510, 200443676, 34.26833724975586, -84.45574951171875, -165.63583374023438, 0.5465679, -0.507512, 0.21267986
511, 200460343, 34.232051849365234, -84.49227905273438, -165.58425903320312, 1.0656289, -0.77397007, -0.015778542
512, 200477010, 34.2623176574707, -84.54127502441406, -165.70553588867188, 1.4244109, -0.7314082, -0.04727745
513, 200493677, 34.173038482666016, -84.58332824707031, -165.8041534423828, 1.6430693, -0.14804336, 0.1771841
514, 200510344, 34.02354431152344, -84.59516906738281, -165.92474365234375, 1.4013301, 0.25296706, 0.47620583
515, 200527011, 33.93312072753906, -84.5629653930664, -166.134033203125, 0.9219672, 0.30568862, 0.4889326
516, 200543678, 33.93004608154297, -84.4922103881836, -166.38023376464844, 0.2856264, 0.19379713, 0.24683571
517, 200560345, 33.93421936035156, -84.41131591796875, -166.54966735839844, -0.43209574, -0.15379792, -0.051550865
518, 200577012, 33.836849212646484, -84.35906982421875, -166.5279083251953, -0.720406, -0.53145224, -0.20675373
519, 200593679, 33.549747467041016, -84.33489990234375, -166.30921936035156, -0.7650958, -0.68603355, -0.04338169
520, 200610346, 33.188899993896484, -84.33697509765625, -166.0557861328125, -0.6053866, -0.6177271, 0.14481926
521, 200627013, 32.773807525634766, -84.33739471435547, -165.77957153320312, -0.2113073, -0.28669548, 0.31915092
522, 200643680, 32.40854263305664, -84.340576171875, -165.55184936523438, -0.17814939, -0.114461206, 0.38392162
523, 200660347, 32.094268798828125, -84.35205078125, -165.34011840820312, -0.33747524, -0.05054388, 0.27153397
524, 200677014, 31.771589279174805, -84.36650085449219, -165.08682250976562, -0.28476948, -0.020049894, 0.18065262
525, 200693681, 31.509639739990234, -84.39366912841797, -164.89596557617188, -0.09320988, -0.120028354, 0.080070496
526, 200710348, 31.17686653137207, -84.4218521118164, -164.663330078125, 0.06667648, -0.10727147, 0.10533619
527, 200727015, 30.84971046447754, -84.45458221435547, -164.4521484375, 0.16736455, -0.1773829, 0.16032219
528, 200743682, 30.46417808532715, -84.48811340332031, -164.21250915527344, 0.17327127, -0.06295622, 0.23924732
529, 200760349, 30.15053939819336, -84.52603912353516, -164.07843017578125, 0.10632383, -0.14229785, 0.21853065
530, 200777016, 29.920207977294922, -84.5682373046875, -164.04354858398438, 0.062151633, -0.15722382, 0.16748238
531, 200793683, 29.684860229492188, -84.61380767822266, -163.9997100830078, 0.0477498, -0.06728578, 0.2405262
532, 200810350, 29.52533721923828, -84.6623764038086, -163.99234008789062, -0.095437795, 0.19407059, 0.27855873
533, 200827017, 29.342435836791992, -84.70014190673828, -163.86734008789062, -0.28347662, 0.2611054, 0.14474773
534, 200843684, 29.145055770874023, -84.7306900024414, -163.64830017089844, -0.17153485, 0.019211274, 0.0648365
535, 200860351, 28.860885620117188, -84.76972961425781, -163.3263397216797, 0.080416724, -0.1343903, 0.11527634
536, 200877018, 28.532268524169922, -84.81182861328125, -163.01983642578125, 0.3639075, -0.14169258, 0.13013935
537, 200893685, 28.253068923950195, -84.85722351074219, -162.81491088867188, 0.38940108, -0.22143517, 0.14650536
538, 200910352, 28.069721221923828, -84.92225646972656, -162.76577758789062, 0.30361587, -0.19918625, 0.17787743
539, 200927019, 27.961149215698242, -85.00962829589844, -162.85311889648438, 0.27383974, -0.17261112, 0.0958004
540, 200943686, 27.792064666748047, -85.09859466552734, -162.923583984375, 0.29659894, -0.25570038, 0.11414051
541, 200960353, 27.585792541503906, -85.18065643310547, -162.9794158935547, 0.3435582, -0.18736923, 0.20112133
542, 200977020, 27.462005615234375, -85.25872802734375, -163.14794921875, 0.20584, -0.11713062, 0.17282009
543, 200993687, 27.429594039916992, -85.33990478515625, -163.416259765625, 0.16237652, -0.023651805, 0.11653328
544, 201010354, 27.390138626098633, -85.42782592773438, -163.6853485107422, 0.061353356, -0.013475708, 0.18836498
545, 201027021, 27.405874252319336, -85.52740478515625, -164.0313720703125, 0.08121427, -0.2877772, 0.14773941
546, 201043688, 27.30488395690918, -85.63013458251953, -164.3038330078125, 0.1255565, -0.37174127, 0.14564323
547, 201060355, 27.217281341552734, -85.73758697509766, -164.62391662597656, -0.088005655, -0.34020427, 0.27155113
548, 201077022, 27.088050842285156, -85.82890319824219, -164.88687133789062, -0.106071144, -0.0570395, 0.2514019
549, 201093689, 27.035659790039062, -85.89965057373047, -165.16587829589844, -0.18321693, 0.095136836, 0.23886585
550, 201110356, 27.0456485748291, -85.95838165283203, -165.43255615234375, -0.27507505, 0.13245602, 0.13720226
551, 201127023, 27.0029239654541, -86.01788330078125, -165.58714294433594, -0.20753603, 0.1638445, 0.15232182
552, 201143690, 26.83292007446289, -86.07215118408203, -165.5823974609375, -0.36323062, 0.099506736, 0.3076601
553, 201160357, 26.544639587402344, -86.13481903076172, -165.4324188232422, -0.5021802, 0.14493407, 0.29106998
554, 201177024, 26.247526168823242, -86.1991958618164, -165.2332000732422, -0.3134909, 0.10000104, 0.30558586
555, 201193691, 26.010032653808594, -86.25383758544922, -165.07009887695312, -0.10961986, 0.049234428, 0.2801113
556, 201210358, 25.820079803466797, -86.28959655761719, -164.93748474121094, -0.057031844, -0.018435907, 0.24553871
557, 201227025, 25.81942367553711, -86.33013916015625, -164.98495483398438, -0.09296809, 0.007505565, 0.26269913
558, 201243692, 25.93235206604004, -86.38887023925781, -165.16603088378906, -0.053247437, -0.036387462, 0.14548874
559, 201260359, 26.032169342041016, -86.47064208984375, -165.32762145996094, -0.029792992, -0.020096162, 0.09451866
560, 201277026, 26.036466598510742, -86.5634994506836, -165.4010009765625, 0.16102114, 0.1571362, 0.04537964
561, 201293693, 25.750829696655273, -86.65052032470703, -165.15435791015625, 0.35970464, 0.13927159, 0.024938583
562, 201310360, 25.286169052124023, -86.73043823242188, -164.72042846679688, 0.41466978, -0.009751982, 0.22306061
563, 201327027, 24.866308212280273, -86.81986999511719, -164.3461151123047, 0.13356636, -0.1699245, 0.27727604
564, 201343694, 24.429670333862305, -86.91466522216797, -163.97244262695312, 0.052071758, 0.05143603, 0.07108021
565, 201360361, 24.142534255981445, -86.99391174316406, -163.75987243652344, 0.9458087, 0.09606547, -0.2432766
566, 201377028, 23.818506240844727, -87.0982894897461, -163.50119018554688, 0.4441026, -0.2881321, 0.00137043
567, 201393695, 23.23235511779785, -87.2455825805664, -163.02349853515625, 0.044850055, -0.37268728, 0.40595722
568, 201410362, 22.727270126342773, -87.42139434814453, -162.71453857421875, 0.09855413, -0.31305224, 0.40850544
569, 201427029, 22.742145538330078, -87.6150131225586, -162.99952697753906, 0.24943247, -0.10187173, 0.11649513
570, 201443696, 23.29311180114746, -87.81375885009766, -163.86874389648438, 0.41252032, -0.2364349, -0.1282196
571, 201460363, 23.942073822021484, -88.03377532958984, -164.89785766601562, 0.34560522, -0.15936674, -0.1261282
572, 201477030, 24.43065071105957, -88.2490005493164, -165.83448791503906, 0.32651392, 0.05731051, 0.15481567
573, 201493697, 25.161287307739258, -88.44833374023438, -167.06658935546875, 0.36714116, 0.12522514, 0.3642664
574, 201510364, 27.03569221496582, -88.64246368408203, -169.43072509765625, 0.19802208, 0.27006656, 0.3943758
575, 201527031, 30.107036590576172, -88.82363891601562, -172.91937255859375, 0.10845715, 0.2619041, 0.26992512
576, 201543698, 34.64906311035156, -88.9957504272461, -177.78273010253906, 4.7747954E-4, 0.22891158, 0.17468357
577, 201560365, 41.04766082763672, -89.13861083984375, 175.5868377685547, -0.0875812, 0.14913645, 0.05206871
578, 201577032, 48.3902702331543, -89.25297546386719, 168.05149841308594, 0.03087323, 0.02153279, 0.027885437
579, 201593699, 57.10309982299805, -89.35958862304688, 159.14723205566406, -0.042335365, -0.0027580382, 0.25421238
580, 201610366, 70.08557891845703, -89.44928741455078, 145.9463348388672, -0.16315429, -0.046108376, 0.46972275
581, 201627033, 89.26632690429688, -89.50623321533203, 126.53605651855469, -0.24723305, -0.17182659, 0.3160782
582, 201643700, 112.48990631103516, -89.50111389160156, 103.0600357055664, -0.26687092, -0.24279329, 0.16072941
583, 201660367, 132.0734405517578, -89.42256927490234, 83.19393920898438, -0.12570617, -0.27143446, 0.15395355
584, 201677034, 145.67764282226562, -89.29975128173828, 69.25949096679688, -0.14931786, -0.33729872, 0.17543983
585, 201693701, 154.28900146484375, -89.15165710449219, 60.2711181640625, -0.053581167, -0.1985527, 0.41513062
586, 201710368, 158.4855499267578, -88.98702239990234, 55.67814636230469, 0.036004502, 6.0996687E-4, 0.3563404
587, 201727035, 161.2667999267578, -88.83534240722656, 52.51459503173828, -0.07106097, 0.30763718, 0.2204771
588, 201743702, 162.8788604736328, -88.67721557617188, 50.5724983215332, -0.1467509, 0.43172434, 0.33210468
589, 201760369, 163.45668029785156, -88.50904846191406, 49.76718521118164, -0.29587018, 0.4827225, 0.23207569
590, 201777036, 163.13800048828125, -88.31425476074219, 49.95344161987305, -0.22539043, 0.19975017, 0.1482296
591, 201793703, 162.5782012939453, -88.12028503417969, 50.3263053894043, 0.00935181, -0.2802858, -0.09590912
592, 201810370, 162.40069580078125, -87.93806457519531, 50.15802001953125, 0.04497416, -0.54756284, 0.026439667
593, 201827037, 162.22377014160156, -87.76760864257812, 49.8372917175293, 0.43484855, -0.31879273, 0.2005167
594, 201843704, 161.914794921875, -87.59165954589844, 49.59467315673828, 0.6151207, 0.1019218, 0.13268185
595, 201860371, 160.8177947998047, -87.39608764648438, 50.14950180053711, 0.666254, 0.21664473, 0.35539532
596, 201877038, 159.0635986328125, -87.18826293945312, 51.41794967651367, 0.13373898, 0.22421691, 0.08479214
597, 201893705, 157.3953094482422, -86.97825622558594, 52.642887115478516, -0.21992588, 0.11358482, 0.037757874
598, 201910372, 156.15264892578125, -86.77371978759766, 53.46310806274414, -0.45948038, 0.26230788, 0.13317871
599, 201927039, 155.43572998046875, -86.58815002441406, 53.79175567626953, -0.6154962, 0.10465849, -0.019721985
600, 201943706, 154.869384765625, -86.42182159423828, 53.96461486816406, -0.39295262, -0.19546801, -0.18830109
601, 201960373, 154.17172241210938, -86.26304626464844, 54.196231842041016, -0.3434774, -0.3694973, -0.08682346
602, 201977040, 153.36058044433594, -86.10042572021484, 54.51639938354492, -0.25668162, -0.21653354, -0.016961098
603, 201993707, 152.62554931640625, -85.94662475585938, 54.81489944458008, -0.15283276, 0.0922704, -0.023290634
604, 202010374, 152.10025024414062, -85.82364654541016, 55.02412033081055, -0.20884648, -0.06501366, 0.052392006
605, 202027041, 151.59982299804688, -85.7298812866211, 55.286598205566406, -0.048975084, -0.62655175, 0.25715256
606, 202043708, 151.1534881591797, -85.64005279541016, 55.46774673461914, 0.39562392, -0.74681085, 0.35086155
607, 202060375, 150.7126922607422, -85.58531951904297, 55.58454895019531, 0.6316205, -0.413123, 0.38431168
608, 202077042, 150.31948852539062, -85.57229614257812, 55.691123962402344, 0.41063014, -0.3328772, 0.6038399
609, 202093709, 149.7696990966797, -85.54790496826172, 56.036895751953125, 0.0011772986, -0.31777647, 0.63891697
610, 202110376, 149.19935607910156, -85.51223754882812, 56.53153991699219, -0.25651526, -0.28077888, 0.3711586
611, 202127043, 148.76577758789062, -85.49202728271484, 57.00906753540039, -0.26260695, -0.17411709, 0.1369381
612, 202143710, 148.496337890625, -85.50988006591797, 57.41444778442383, -0.18185374, -0.11391763, -0.004398346
613, 202160377, 148.2744140625, -85.56460571289062, 57.81957244873047, 0.06254516, -0.318077, 0.18127155
614, 202177044, 148.0091552734375, -85.63179779052734, 58.26646041870117, 0.2918018, -0.26986986, 0.35852623
615, 202193711, 147.67559814453125, -85.68738555908203, 58.767417907714844, 0.5300249, -0.24847348, 0.3253975
616, 202210378, 147.2669677734375, -85.73410034179688, 59.32571792602539, 0.62789786, -0.19430193, 0.20231819
617, 202227045, 146.7001495361328, -85.77302551269531, 59.99812316894531, 0.67624617, -0.10606316, 0.13104153
618, 202243712, 146.1399383544922, -85.79854583740234, 60.62716293334961, 0.39091957, 0.15795359, 0.15328693
619, 202260379, 145.72689819335938, -85.84498596191406, 61.11343765258789, 0.22504072, -0.058703106, 0.11355972
620, 202277046, 145.6576385498047, -85.903564453125, 61.21946334838867, 0.13713343, -0.49780107, 0.21121311
621, 202293713, 145.60345458984375, -85.96216583251953, 61.22343826293945, 0.09215382, -0.59603673, 0.20208168
622, 202310380, 145.3022918701172, -86.02881622314453, 61.455448150634766, 0.09750453, -0.26788542, 0.2883005
623, 202327047, 144.99375915527344, -86.08063507080078, 61.767906188964844, 0.192345, 0.24705726, 0.16320515
624, 202343714, 144.8240509033203, -86.1325912475586, 62.05484390258789, 0.22524959, 0.44363466, 0.18844795
625, 202360381, 144.88705444335938, -86.1920394897461, 62.19758224487305, 0.3119353, 0.42160198, 0.041381836
626, 202377048, 145.15289306640625, -86.27395629882812, 62.177371978759766, 0.44897264, 0.088419825, 0.08234024
627, 202393715, 145.6035919189453, -86.37799072265625, 61.9979362487793, 0.28394932, -0.1673888, 0.24585342
628, 202410382, 146.1800994873047, -86.48426055908203, 61.725650787353516, -0.28313756, -0.6115662, 0.27300262
629, 202427049, 146.84210205078125, -86.58138275146484, 61.35563659667969, -0.5661323, -0.51442426, 0.21137238
630, 202443716, 147.9333953857422, -86.66423034667969, 60.52387237548828, -0.59904224, -0.22868997, 0.08211613
631, 202460383, 149.3341522216797, -86.75098419189453, 59.35390853881836, -0.5419703, -0.15633704, 0.11197853
632, 202477050, 150.91046142578125, -86.84011840820312, 57.970726013183594, -0.058385022, -0.22596993, 0.19623375
633, 202493717, 152.44366455078125, -86.91980743408203, 56.58815002441406, 0.33510584, -0.18481538, 0.20065403
634, 202510384, 153.8842010498047, -86.99319458007812, 55.3041877746582, 0.553692, -0.059481155, 0.31732082
635, 202527051, 154.98736572265625, -87.0708999633789, 54.4029541015625, 0.57385004, 0.05432259, 0.24311256
636, 202543718, 155.86842346191406, -87.15724182128906, 53.73878860473633, 0.48604596, 0.07359421, 0.29850292
637, 202560385, 156.68577575683594, -87.28538513183594, 53.12401580810547, 0.2809381, -0.11642678, -0.3162861
638, 202577052, 158.287109375, -87.39608764648438, 51.64904022216797, 0.37105852, -0.084791094, 0.12182331
639, 202593719, 159.660888671875, -87.48191833496094, 50.37310791015625, 0.10970212, 0.038824424, 0.21364307
640, 202610386, 161.15420532226562, -87.56377410888672, 48.97382354736328, -0.13702126, -0.06779796, 0.22602367
641, 202627053, 162.6613311767578, -87.64051055908203, 47.523963928222656, -0.171444, 0.014980732, 0.4180374
642, 202643720, 163.89361572265625, -87.70024108886719, 46.35335159301758, -0.42142197, 0.19526762, 0.17862606
643, 202660387, 164.97360229492188, -87.7691879272461, 45.40939712524414, -0.46408424, 0.44771904, 0.073851585
644, 202677054, 165.96829223632812, -87.84823608398438, 44.644439697265625, -0.44891337, 0.44956145, 0.18195629
645, 202693721, 166.8056640625, -87.94805145263672, 44.10004425048828, -0.29821014, 0.31614688, 0.262249
646, 202710388, 167.35797119140625, -88.05247497558594, 43.88421630859375, -0.31270847, 0.35495836, 0.29732418
647, 202727055, 167.48428344726562, -88.15422058105469, 44.13615036010742, -0.2267771, 0.23212446, 0.22808647
648, 202743722, 167.04942321777344, -88.2638168334961, 44.96380615234375, -0.0733693, 0.03635617, 0.04660988
649, 202760389, 165.83523559570312, -88.36541748046875, 46.50688171386719, 0.1067981, -0.16549167, -0.127244
650, 202777056, 164.07310485839844, -88.4487075805664, 48.49907684326172, 0.3241264, -0.2531634, -0.2763033
651, 202793723, 162.25099182128906, -88.53286743164062, 50.452667236328125, 0.25533968, -0.056068003, -0.0014839172
652, 202810390, 160.59742736816406, -88.61634063720703, 52.20220184326172, 0.22854893, 0.10262787, 0.38392448
653, 202827057, 158.78271484375, -88.68359375, 54.115055084228516, 0.1381935, 0.14596659, 0.59668636
654, 202843724, 156.77944946289062, -88.7245101928711, 56.20001220703125, 0.17155753, 0.0314086, 0.47649002
655, 202860391, 155.21095275878906, -88.73329162597656, 57.82353591918945, 0.27544242, -0.25783896, 0.10122681
656, 202877058, 154.305419921875, -88.73576354980469, 58.72365188598633, 0.43630463, -0.48880965, -0.22566032
657, 202893725, 154.12158203125, -88.74057006835938, 58.81344223022461, 0.54259616, -0.4716643, -0.0859499
658, 202910392, 153.96337890625, -88.75071716308594, 58.79566955566406, 0.39082512, -0.13215728, 0.23913193
659, 202927059, 153.60279846191406, -88.76172637939453, 58.9614372253418, 0.23201276, 0.0919577, 0.42041302
660, 202943726, 153.25587463378906, -88.76551818847656, 59.15050506591797, 0.15109342, 0.2055661, 0.3156824
661, 202960393, 152.8848114013672, -88.76045989990234, 59.424373626708984, 0.06528146, 0.23821954, 0.12195015
662, 202977060, 152.26063537597656, -88.76488494873047, 59.99891662597656, 0.07328188, 0.2415538, 0.06461334
663, 202993727, 151.16835021972656, -88.78179931640625, 61.09194564819336, 0.0011165031, 0.24789587, 0.13641071
664, 203010394, 149.5916290283203, -88.80450439453125, 62.72528076171875, -0.07041485, 0.26069802, 0.30659485
665, 203027061, 147.65283203125, -88.82614135742188, 64.76573944091797, -0.16914846, 0.16250308, 0.37605762
666, 203043728, 145.81539916992188, -88.83887481689453, 66.73436737060547, -0.19773912, -0.062882245, 0.26991844
667, 203060395, 143.90638732910156, -88.84039306640625, 68.77397155761719, -0.088934466, -0.18528822, 0.02769947
668, 203077062, 141.88995361328125, -88.84207916259766, 70.89082336425781, -0.048603453, -0.26104882, -0.030070305
669, 203093729, 139.89352416992188, -88.84835052490234, 72.9442367553711, 0.13264756, -0.2408722, 0.10966873
670, 203110396, 137.73231506347656, -88.85226440429688, 75.1104736328125, 0.27120948, -0.17426445, 0.28688622
671, 203127063, 135.09310913085938, -88.85482788085938, 77.72399139404297, 0.5279136, -0.09904653, 0.24307537
672, 203143730, 131.87533569335938, -88.85619354248047, 80.9019775390625, 0.36851388, -0.008691749, 0.22015476
673, 203160397, 127.82770538330078, -88.85431671142578, 84.93219757080078, 0.1562289, -0.013184023, 0.26979065
674, 203177064, 122.92809295654297, -88.84716033935547, 89.82170867919922, 0.040744457, -0.10434367, 0.07816887
675, 203193731, 118.68441772460938, -88.82830810546875, 94.05813598632812, 0.12865567, -0.13889799, 0.02050209
676, 203210398, 115.07678985595703, -88.80958557128906, 97.64444732666016, 0.07178179, -0.10588369, 0.16069317
677, 203227065, 112.31600189208984, -88.79374694824219, 100.36697387695312, 0.03902237, -0.04556904, 0.297019
678, 203243732, 109.93091583251953, -88.78340911865234, 102.70032501220703, 0.05624715, -0.0031157706, 0.30973148
679, 203260399, 108.7537841796875, -88.76551818847656, 103.81196594238281, 0.029714372, 0.0046907547, 0.15991497
680, 203277066, 108.0074234008789, -88.74197387695312, 104.48155212402344, -0.10118756, -0.05394083, -0.005350113
681, 203293733, 107.66375732421875, -88.72144317626953, 104.74542236328125, -0.00597886, -0.11112762, -0.0281744
682, 203310400, 107.27136993408203, -88.71017456054688, 105.05686950683594, 0.08917793, -0.042460755, 0.17731762
683, 203327067, 107.06216430664062, -88.70397186279297, 105.19029998779297, 0.103712216, 0.03776095, 0.31149292
684, 203343734, 107.24248504638672, -88.69404602050781, 104.94538116455078, 0.09595808, 0.043936614, 0.36130428
685, 203360401, 107.55693817138672, -88.67721557617188, 104.56549835205078, 0.2751136, 0.10337038, 0.1770029
686, 203377068, 107.49518585205078, -88.6630859375, 104.57781219482422, 0.15101399, 0.03483874, 0.054707527
687, 203393735, 107.28666687011719, -88.65056610107422, 104.73883819580078, 0.13916138, -0.10004652, 0.07396793
688, 203410402, 107.05549621582031, -88.6433334350586, 104.91925811767578, 0.16516283, -0.1428382, 0.18428802
689, 203427069, 106.90571594238281, -88.63369750976562, 105.01115417480469, 0.21086246, -0.19662334, 0.20477772
690, 203443736, 106.46102905273438, -88.62527465820312, 105.36554718017578, 0.25296375, -0.17833552, 0.27435398
691, 203460403, 105.63616180419922, -88.61520385742188, 106.08714294433594, 0.04808655, -0.018852536, 0.30308723
692, 203477070, 104.63204956054688, -88.60030364990234, 107.01383209228516, -0.27920693, 0.11839537, 0.2882824
693, 203493737, 103.84247589111328, -88.5826644897461, 107.81339263916016, -0.44201872, 0.15567565, 0.18139362
694, 203510404, 103.0693588256836, -88.57976531982422, 108.68305206298828, -0.33536544, -0.0152921975, 0.059051514
695, 203527071, 102.51299285888672, -88.58556365966797, 109.32854461669922, -0.25178236, -0.12124896, 0.0881691
696, 203543738, 101.79448699951172, -88.59486389160156, 110.12909698486328, -0.02692979, -0.08323131, 0.1870203
697, 203560405, 100.46992492675781, -88.60984802246094, 111.5443115234375, 0.18604341, -0.07655542, 0.24459267
698, 203577072, 98.79959106445312, -88.614501953125, 113.30492401123047, 0.16312543, -0.106586955, 0.19611931
699, 203593739, 96.8155288696289, -88.60465240478516, 115.36188507080078, 0.013327574, -0.04906344, 0.23008442
700, 203610406, 94.67514038085938, -88.59263610839844, 117.61083221435547, -0.04836351, 0.029940343, 0.2251339
701, 203627073, 92.6660385131836, -88.58404541015625, 119.78009796142578, -0.14297101, 0.056141537, 0.19718838
702, 203643740, 90.39297485351562, -88.56892395019531, 122.24359893798828, -0.07741712, -6.729975E-4, 0.14789677
703, 203660407, 88.10462188720703, -88.55422973632812, 124.73345947265625, 0.097458914, 0.03795239, 0.11012745
704, 203677074, 85.42440032958984, -88.544921875, 127.63652801513672, 0.17937385, 0.09940951, 0.18234444
705, 203693741, 82.53380584716797, -88.53673553466797, 130.7845001220703, 0.18583661, 0.027333735, 0.19694233
706, 203710408, 79.9343032836914, -88.5217056274414, 133.63748168945312, 0.24235998, -0.07736812, 0.24597836
707, 203727075, 77.85346984863281, -88.49962615966797, 135.94677734375, 0.12499839, -0.19638641, 0.23585796
708, 203743742, 76.43940734863281, -88.47697448730469, 137.52980041503906, 0.10525541, -0.24888414, 0.14660072
709, 203760409, 75.26451873779297, -88.4589614868164, 138.81288146972656, 0.21939342, -0.25690725, 0.030082703
710, 203777076, 74.2873764038086, -88.4625244140625, 139.84246826171875, 0.3508505, -0.2621408, 0.13345623
711, 203793743, 73.5016860961914, -88.4764633178711, 140.62123107910156, 0.43598878, -0.21133004, 0.20238876
712, 203810410, 73.10281372070312, -88.49259948730469, 140.98500061035156, 0.4770465, -0.40190357, 0.18445206
713, 203827077, 72.50808715820312, -88.5108871459961, 141.4687957763672, 0.49672124, -0.37333426, 0.26018047
714, 203843744, 72.15387725830078, -88.5254135131836, 141.6384735107422, 0.32932612, 0.02407648, 0.2354641
715, 203860411, 71.56783294677734, -88.5254135131836, 142.09498596191406, -0.008880729, 0.33617154, 0.19532108
716, 203877078, 70.57581329345703, -88.50747680664062, 143.0935516357422, -0.37241036, 0.47049823, 0.20777512
717, 203893745, 69.6250991821289, -88.48173522949219, 144.18284606933594, -0.6098043, 0.42217618, 0.18644714
718, 203910412, 68.77015686035156, -88.45820617675781, 145.24298095703125, -0.5885676, 0.05102812, 0.16279984
719, 203927079, 68.27826690673828, -88.44745635986328, 145.93284606933594, -0.44127718, -0.07739192, 0.17582417
720, 203943746, 67.7868423461914, -88.45098114013672, 146.58889770507812, -0.2001329, -0.037136342, 0.17128658
721, 203960413, 67.13320922851562, -88.4521255493164, 147.36135864257812, 0.13878813, 0.015554379, 0.16993809
722, 203977080, 66.48783874511719, -88.44053649902344, 148.07473754882812, 0.49288395, -0.012205483, 0.1536932
723, 203993747, 66.14371490478516, -88.41390228271484, 148.46766662597656, 0.46339908, -0.036624946, 0.14251518
724, 204010414, 65.88521575927734, -88.38638305664062, 148.78794860839844, 0.3984825, -0.11709721, 0.20403004
725, 204027081, 65.48210144042969, -88.36087799072266, 149.24156188964844, 0.3826664, -0.11006728, 0.16720009
726, 204043748, 64.89912414550781, -88.33563995361328, 149.86195373535156, 0.1480063, -0.073457755, 0.19212723
727, 204060415, 64.41283416748047, -88.3100814819336, 150.3616943359375, 0.10680827, -0.18977368, 0.1743145
728, 204077082, 64.0711669921875, -88.28856658935547, 150.64695739746094, 0.15179689, -0.50793755, 0.15273857
729, 204093749, 63.604984283447266, -88.27796173095703, 150.93353271484375, 0.019217867, -0.60398185, 0.17625809
730, 204110416, 63.00648880004883, -88.2764892578125, 151.31654357910156, -0.34041864, -0.29589763, 0.2470026
731, 204127083, 61.95068359375, -88.2638168334961, 152.2059783935547, -0.64823914, 0.061708573, 0.2738104
732, 204143750, 60.692138671875, -88.24097442626953, 153.43618774414062, -0.69405293, 0.37705463, 0.25846672
733, 204160417, 59.36565399169922, -88.20779418945312, 154.9156951904297, -0.6270826, 0.50246036, 0.22057152
734, 204177084, 57.5537223815918, -88.16155242919922, 157.0570526123047, -0.49041146, 0.47467694, 0.21290779
735, 204193751, 55.40979766845703, -88.09443664550781, 159.5868682861328, -0.2544478, 0.07278308, 0.23914623
736, 204210418, 53.123626708984375, -88.0130844116211, 162.28468322753906, -0.2222643, -0.17561838, 0.22898006
737, 204227085, 50.6901741027832, -87.9244384765625, 165.12820434570312, -0.2800488, -0.43360934, 0.15848827
738, 204243752, 48.28188705444336, -87.831298828125, 167.87481689453125, -0.161214, -0.6809523, 0.13432884
739, 204260419, 46.03440475463867, -87.73817443847656, 170.3453369140625, 0.031571567, -0.6247439, 0.11220837
740, 204277086, 44.08152770996094, -87.63818359375, 172.3994598388672, 0.24022552, -0.28687552, 0.17774868
741, 204293753, 42.34060287475586, -87.51005554199219, 174.17820739746094, 0.44099817, -0.013328189, 0.2215662
742, 204310420, 40.63408660888672, -87.35137176513672, 175.90980529785156, 0.39362106, 0.17298606, 0.28961754
743, 204327087, 39.06972885131836, -87.15641784667969, 177.49679565429688, 0.112192884, 0.23686339, 0.27959156
744, 204343754, 37.473663330078125, -86.93407440185547, 179.1494903564453, -0.12308216, 0.22765085, 0.2378931
745, 204360421, 36.05926513671875, -86.6866683959961, -179.36102294921875, -0.41524383, -0.020529889, 0.23554707
746, 204377088, 34.924530029296875, -86.44080352783203, -178.14903259277344, -0.39347216, -0.36869937, 0.17399693
747, 204393755, 33.98390197753906, -86.20687866210938, -177.21112060546875, -0.21271974, -0.501008, 0.23038864
748, 204410422, 33.122013092041016, -85.9797134399414, -176.46511840820312, -0.16451414, -0.3451466, 0.24992943
749, 204427089, 32.315284729003906, -85.75029754638672, -175.82823181152344, -0.15922214, 0.11625791, 0.1343956
750, 204443756, 31.531370162963867, -85.50350952148438, -175.20596313476562, -0.019583534, 0.26632765, 0.13698006
751, 204460423, 30.831924438476562, -85.22488403320312, -174.65997314453125, 0.2546087, 0.36683103, 0.2428217
752, 204477090, 30.18389129638672, -84.90691375732422, -174.13169860839844, 0.4722359, 0.39907077, 0.3872471
753, 204493757, 29.75830078125, -84.56520080566406, -173.79736328125, 0.24612923, 0.23414926, 0.3464594
754, 204510424, 29.426651000976562, -84.20668029785156, -173.52981567382812, -0.15046127, -0.056062415, 0.24284172
755, 204527091, 29.072708129882812, -83.8288345336914, -173.2393798828125, -0.26291707, 0.14576375, 0.20475197
756, 204543758, 28.694629669189453, -83.411376953125, -172.8594512939453, -0.19537865, 0.3716418, 0.27082634
757, 204560425, 28.28001594543457, -82.90872955322266, -172.37142944335938, 0.4229477, 0.53003705, 0.535861
758, 204577092, 27.967042922973633, -82.35258483886719, -171.9582061767578, 0.16651335, 0.2754796, 0.63527775
759, 204593759, 27.954654693603516, -81.76316833496094, -171.81121826171875, -0.35543618, -0.21614273, 0.23864555
760, 204610426, 28.09408950805664, -81.15080261230469, -171.85586547851562, -0.8515383, -0.70384836, -0.2293663
761, 204627093, 28.1171875, -80.49089050292969, -171.8340301513672, -0.5834777, -0.7148447, 0.033064842
762, 204643760, 28.038537979125977, -79.7196044921875, -171.7874298095703, 0.21596034, -0.05433153, 0.7135811
763, 204660427, 27.814638137817383, -78.79957580566406, -171.6863250732422, 1.2750133, 0.51366174, 0.8991842
764, 204677094, 27.629112243652344, -77.83958435058594, -171.6201934814453, -0.37170708, 0.6629457, 0.42315388
765, 204693761, 27.846834182739258, -76.91930389404297, -172.0363006591797, -2.4034638, -0.05568926, -0.12646389
766, 204710428, 28.13247299194336, -76.0055160522461, -172.4613800048828, -2.1307487, -0.8210686, -0.6868429
767, 204727095, 28.244800567626953, -75.13449096679688, -172.7662811279297, -1.2928758, -0.7048531, -0.05862713
768, 204743762, 28.122169494628906, -74.16595458984375, -172.89254760742188, 0.10266078, 0.33818963, 0.97633743
769, 204760429, 27.83226776123047, -72.98868560791016, -172.89749145507812, 1.949982, 1.3970292, 1.884922
770, 204777096, 27.625497817993164, -71.6005859375, -172.8251495361328, 2.592337, 2.2095964, 1.856638
771, 204793763, 27.72258758544922, -70.21898651123047, -172.96652221679688, -0.4467212, 1.331014, 0.024895668
772, 204810430, 28.171825408935547, -68.91107177734375, -173.37045288085938, -2.511917, -4.020998E-4, -1.6345425
773, 204827097, 28.796756744384766, -67.82212829589844, -173.90904235839844, -2.7950854, -1.7348211, -2.5755725
774, 204843764, 29.243881225585938, -66.89282989501953, -174.42678833007812, -0.95293206, -2.7743614, -1.3214178
775, 204860431, 29.161895751953125, -65.93586730957031, -174.78353881835938, 0.42518193, -1.7039438, 1.3392315
776, 204877098, 28.751575469970703, -64.89886474609375, -175.1980743408203, 1.436653, 0.59640473, 3.6017551
777, 204893765, 28.25018882751465, -63.853416442871094, -175.61888122558594, -0.13381475, 0.8863976, 2.2200346
778, 204910432, 28.03156852722168, -62.845848083496094, -176.20220947265625, -0.5451344, 1.847105, -0.1749773
779, 204927099, 27.95518684387207, -61.780242919921875, -176.72552490234375, 0.8383622, 1.6617075, -1.8313003
780, 204943766, 27.766239166259766, -60.51364517211914, -176.99404907226562, 1.284827, 0.669113, -1.1116858
781, 204960433, 27.295671463012695, -59.04541015625, -177.1786346435547, 0.9568963, -0.86112857, 0.18693542
782, 204977100, 26.59797477722168, -57.53055953979492, -177.54759216308594, 0.4152061, -0.24527614, -0.22462082
783, 204993767, 25.9456787109375, -56.13621139526367, -177.86619567871094, 0.13812044, 1.3430451, -1.4745493
784, 205010434, 25.461626052856445, -54.63383483886719, -177.88156127929688, -1.2727263, 0.64770174, -2.1302724
785, 205027101, 25.06415557861328, -53.08159255981445, -177.9645233154297, -0.4490655, -0.018862817, 0.39866352
786, 205043768, 24.24504852294922, -51.571044921875, -178.0086669921875, 0.16545, -2.5733914, 2.2070198
787, 205060435, 23.10693359375, -50.04110336303711, -177.98641967773438, -1.8609078, -1.6082351, -0.46754074
788, 205077102, 22.149383544921875, -48.39699172973633, -177.8512725830078, -0.46643114, 2.5827096, -2.61903
789, 205093769, 21.502979278564453, -46.78342056274414, -177.5611114501953, -0.34547603, 2.5153527, -2.264855
790, 205110436, 20.975732803344727, -45.24916076660156, -177.2239227294922, -2.2444468, 0.2916748, -0.11250973
791, 205127103, 20.194868087768555, -43.76735305786133, -176.93580627441406, -2.05112, -1.967937, 2.6290178
792, 205143770, 19.180927276611328, -42.30801773071289, -176.7002410888672, -2.2576451, -1.7957917, 0.89385986
793, 205160437, 18.563631057739258, -40.87665557861328, -176.5538787841797, -0.24622305, 0.97673655, -1.5479269
794, 205177104, 18.08612632751465, -39.487937927246094, -176.34286499023438, 0.84394383, 0.36056557, -0.77738285
795, 205193771, 17.5698299407959, -38.10539627075195, -176.05348205566406, -0.63291305, -0.7980201, 0.22379684
796, 205210438, 16.8923282623291, -36.713497161865234, -175.7166290283203, -0.6459037, -1.4270437, 1.2401848
797, 205227105, 16.075122833251953, -35.303863525390625, -175.3980712890625, -0.35714838, -1.2492565, -0.5548477
798, 205243772, 15.639596939086914, -33.91790771484375, -175.15953063964844, 1.0863975, 1.0765274, -1.7683258
799, 205260439, 15.38808822631836, -32.600791931152344, -174.8780059814453, 1.1188642, 0.445884, 0.060359955
800, 205277106, 15.12656021118164, -31.320405960083008, -174.55487060546875, 0.047251597, -0.32683897, 1.2280102
801, 205293773, 14.757769584655762, -30.014657974243164, -174.14227294921875, 0.110657424, -0.22744584, 1.1471815
802, 205310440, 14.204970359802246, -28.626293182373047, -173.65489196777344, 0.29389447, -0.13399705, -0.64509106
803, 205327107, 13.874956130981445, -27.166419982910156, -173.20095825195312, 1.4059995, 0.6671039, -1.2994108
804, 205343774, 13.672391891479492, -25.743701934814453, -172.73875427246094, 2.0413287, -0.3685219, 0.35267448
805, 205360441, 13.457062721252441, -24.337196350097656, -172.2851104736328, 1.9513097, -1.904146, 0.67664146
806, 205377108, 13.072102546691895, -22.8255558013916, -171.87013244628906, 1.5935062, -1.3138869, -0.0082530975
807, 205393775, 12.800044059753418, -21.30816078186035, -171.51882934570312, 1.4125093, -0.34948984, 0.25787735
808, 205410442, 12.524800300598145, -19.846662521362305, -171.1701202392578, 0.029739922, -0.34684333, 0.5619955
809, 205427109, 12.407966613769531, -18.609731674194336, -170.89297485351562, -0.33088917, 0.80810165, 1.2279606
810, 205443776, 12.463003158569336, -17.6729679107666, -170.6818389892578, 0.6121994, -0.40292743, 1.7624388
811, 205460443, 12.406582832336426, -17.060871124267578, -170.52294921875, 0.5855496, -1.5653371, 1.2583513
812, 205477110, 12.155306816101074, -16.680326461791992, -170.43280029296875, 0.32775483, -1.2225529, 0.8931465
813, 205493777, 11.971454620361328, -16.501853942871094, -170.43128967285156, -0.114099674, -0.8174085, 0.81137943
814, 205510444, 11.945589065551758, -16.479177474975586, -170.43643188476562, -0.71634775, -0.34838986, 0.13669682
815, 205527111, 12.018798828125, -16.562170028686523, -170.41065979003906, -0.89593935, 1.0258635, -0.5175266
816, 205543778, 12.310090065002441, -16.653837203979492, -170.35052490234375, -0.100953884, 1.9630741, -0.5471668
817, 205560445, 12.700559616088867, -16.709989547729492, -170.29135131835938, 0.58796376, 1.5470178, 0.039027214
818, 205577112, 12.926880836486816, -16.738529205322266, -170.26673889160156, -0.046189707, 0.9106436, -0.3750286
819, 205593779, 12.968725204467773, -16.708587646484375, -170.29067993164062, -0.48828563, 0.99147016, 0.046471596
820, 205610446, 13.127884864807129, -16.65818977355957, -170.36521911621094, -0.17511508, 1.3898907, -0.41620064
821, 205627113, 13.490151405334473, -16.53142738342285, -170.3961639404297, 0.17709954, 0.69240606, -0.7504358
822, 205643780, 13.777912139892578, -16.28414535522461, -170.34634399414062, 0.123927176, -0.42720515, -0.42508698
823, 205660447, 13.975593566894531, -15.991897583007812, -170.26690673828125, 0.2256817, -0.65165985, 0.435256
824, 205677114, 14.062657356262207, -15.754510879516602, -170.2296905517578, 0.37614793, -0.93234426, 0.52616215
825, 205693781, 14.017843246459961, -15.567689895629883, -170.2379150390625, 0.22850423, -0.7375611, 0.42725086
826, 205710448, 14.031404495239258, -15.45362377166748, -170.289306640625, 0.31611738, -0.10933708, 0.45334244
827, 205727115, 14.096969604492188, -15.376758575439453, -170.3518524169922, 0.5769027, -0.20711093, 0.41540337
828, 205743782, 14.095582962036133, -15.324014663696289, -170.4087371826172, 0.5197349, -0.2221423, 0.14311314
829, 205760449, 14.031654357910156, -15.299985885620117, -170.4667205810547, 0.29807544, 0.269591, 0.0034532547
830, 205777116, 13.939285278320312, -15.280210494995117, -170.5173797607422, 0.16311352, 0.42751268, -0.007416725
831, 205793783, 13.849394798278809, -15.234955787658691, -170.5583953857422, -0.14147024, 0.4557384, 0.06583214
832, 205810450, 13.805319786071777, -15.194637298583984, -170.6201629638672, -0.24339035, 0.43489778, 0.14384842
833, 205827117, 13.822460174560547, -15.160382270812988, -170.70668029785156, -0.17962031, 0.3703003, 0.0047445297
834, 205843784, 13.876786231994629, -15.121357917785645, -170.80270385742188, -0.022523094, 0.3954489, -0.014476776
835, 205860451, 13.93911075592041, -15.091957092285156, -170.8727569580078, 0.32300165, 0.38518947, -0.065060616
836, 205877118, 13.923346519470215, -15.089054107666016, -170.90481567382812, 0.32852176, 0.1849033, -0.12973118
837, 205893785, 13.822614669799805, -15.096881866455078, -170.8940887451172, 0.2138286, 0.08907055, -0.11989117
838, 205910452, 13.697358131408691, -15.07336711883545, -170.85206604003906, -0.071370035, 0.13194741, -0.02559185
839, 205927119, 13.571609497070312, -15.031904220581055, -170.82363891601562, -0.3112123, 0.17593199, -0.061552048
840, 205943786, 13.484463691711426, -14.95862865447998, -170.80384826660156, -0.23203067, 0.26108208, -0.060728073
841, 205960453, 13.485742568969727, -14.922151565551758, -170.7986297607422, 0.007538589, 0.3392043, 0.25987244
842, 205977120, 13.555830955505371, -14.94045352935791, -170.8126983642578, 0.043261085, 0.26856256, 0.5438194
843, 205993787, 13.6535005569458, -14.97587776184082, -170.80545043945312, 0.10386062, 0.1175962, 0.61998844
844, 206010454, 13.756956100463867, -15.012117385864258, -170.78829956054688, 0.17234404, -0.35757408, 0.5037546
845, 206027121, 13.795907974243164, -15.054558753967285, -170.78060913085938, 0.3573908, -0.55158216, -0.051413536
846, 206043788, 13.7474946975708, -15.104297637939453, -170.7552032470703, 0.57380986, -0.06845722, -0.4975481
847, 206060455, 13.667685508728027, -15.152178764343262, -170.6923370361328, 0.7426966, 0.6279616, -0.6192503
848, 206077122, 13.603902816772461, -15.181076049804688, -170.6054229736328, 0.5124696, 0.6776077, -0.14018631
849, 206093789, 13.58443546295166, -15.184765815734863, -170.53561401367188, 0.05555514, 0.18351866, 0.3612156
850, 206110456, 13.579998970031738, -15.162981033325195, -170.50555419921875, -0.2922516, -0.06709409, 0.4369297
851, 206127123, 13.58846378326416, -15.134536743164062, -170.5141143798828, -0.1372353, -0.17856304, 0.3004837
852, 206143790, 13.603482246398926, -15.114843368530273, -170.5299530029297, -0.009212087, -0.13200766, 0.09383583
853, 206160457, 13.600687026977539, -15.097616195678711, -170.5355224609375, -0.07876078, -0.079379454, -0.07054615
854, 206177124, 13.57347297668457, -15.073233604431152, -170.53622436523438, -0.12729202, 0.08425419, -0.08390999
855, 206193791, 13.549127578735352, -15.052416801452637, -170.55282592773438, -0.12733755, 0.19179381, -0.17723656
856, 206210458, 13.540728569030762, -15.023114204406738, -170.56356811523438, -0.15424965, 0.01038518, -0.09786034
857, 206227125, 13.528986930847168, -14.997225761413574, -170.56076049804688, -0.17626229, -0.16207357, 0.1461544
858, 206243792, 13.500824928283691, -14.988215446472168, -170.54257202148438, -0.16688423, -0.050917983, 0.20927715
859, 206260459, 13.447854042053223, -14.98448371887207, -170.511474609375, -0.111891955, 0.12865685, 0.119342804
860, 206277126, 13.396580696105957, -14.983139038085938, -170.4881134033203, -0.20521389, 0.17653486, 0.08047867
861, 206293793, 13.38062858581543, -14.968195915222168, -170.48614501953125, -0.19303098, 0.1403039, -0.045820236
862, 206310460, 13.39172077178955, -14.950837135314941, -170.5057373046875, -0.03973904, 0.116868034, -0.0038061142
863, 206327127, 13.421786308288574, -14.94482135772705, -170.5313720703125, 0.07572207, 0.15653959, 0.0061798096
864, 206343794, 13.447564125061035, -14.94107437133789, -170.5514678955078, 0.12948354, 0.22556905, 0.019127846
865, 206360461, 13.466046333312988, -14.930707931518555, -170.56240844726562, 0.0064324094, 0.15507324, 0.20544147
866, 206377128, 13.494292259216309, -14.916234970092773, -170.582275390625, -0.11179738, -0.025580248, 0.13970375
867, 206393795, 13.522875785827637, -14.900288581848145, -170.61048889160156, 0.0036531447, -0.06274453, 0.0038309097
868, 206410462, 13.542851448059082, -14.891173362731934, -170.63612365722656, 0.13566431, 0.15959552, -0.11468601
869, 206427129, 13.567480087280273, -14.890311241149902, -170.6611785888672, 0.16633394, 0.28268278, -0.04355812
870, 206443796, 13.608536720275879, -14.905303001403809, -170.69175720214844, -0.03017223, 0.004328978, -0.102318764
871, 206460463, 13.610950469970703, -14.909134864807129, -170.714111328125, -0.0883832, -0.04216234, 0.03231716
872, 206477130, 13.572243690490723, -14.876599311828613, -170.73399353027344, -0.16140701, 0.11998539, 0.6434336
873, 206493797, 13.548556327819824, -14.859665870666504, -170.76866149902344, -0.1832584, 0.15170935, 0.3065157
874, 206510464, 13.52457332611084, -14.841630935668945, -170.7825927734375, 0.042308543, 0.27259094, 0.04344654
875, 206527131, 13.537402153015137, -14.852712631225586, -170.78981018066406, -0.0045285122, 0.4380971, 0.1280365
876, 206543798, 13.567485809326172, -14.89560604095459, -170.8037109375, -0.14808843, 0.47180948, -0.11126518
877, 206560465, 13.560508728027344, -14.91395092010498, -170.8085479736328, -0.32108167, 0.3652999, -0.06782627
878, 206577132, 13.514762878417969, -14.91263198852539, -170.82180786132812, -0.23978704, 0.20069875, -0.052269936
879, 206593799, 13.482465744018555, -14.893795013427734, -170.81817626953125, -0.047632203, 0.33236292, -0.014816284
880, 206610466, 13.505666732788086, -14.885159492492676, -170.82142639160156, -0.115829796, 0.41686618, 0.092739105
881, 206627133, 13.567215919494629, -14.868673324584961, -170.81820678710938, -0.101777226, 0.18740694, 0.1636877
882, 206643800, 13.661355018615723, -14.86263370513916, -170.8158416748047, -0.0075768097, -0.10857581, 0.2929945
883, 206660467, 13.731698036193848, -14.883984565734863, -170.82534790039062, 0.12511805, -0.2675107, 0.05465603
884, 206677134, 13.689338684082031, -14.915923118591309, -170.8174285888672, 0.25110844, -0.27688128, -0.08378792
885, 206693801, 13.564167022705078, -14.970895767211914, -170.8057098388672, 0.23766105, -0.013635436, -0.15857029
886, 206710468, 13.479446411132812, -15.019113540649414, -170.7854461669922, 0.2582801, 0.20054741, -0.12183952
887, 206727135, 13.48437213897705, -15.072132110595703, -170.7580108642578, 0.12514192, 0.18637761, 0.11719608
888, 206743802, 13.507204055786133, -15.104422569274902, -170.7628173828125, -0.08518333, -0.13422084, 0.26938534
889, 206760469, 13.511096954345703, -15.127460479736328, -170.7954559326172, 0.1466582, -0.46904394, 0.49374485
890, 206777136, 13.487698554992676, -15.175983428955078, -170.84841918945312, 0.4189204, -0.8453093, 0.43275356
891, 206793803, 13.363651275634766, -15.274386405944824, -170.91397094726562, 0.2821049, -0.62755483, -0.05132389
892, 206810470, 13.120402336120605, -15.429769515991211, -170.9690704345703, 0.2657002, 0.14002466, -0.1604824
893, 206827137, 12.9645414352417, -15.545317649841309, -170.97421264648438, -0.46986145, 1.0643986, -0.16495228
894, 206843804, 12.914510726928711, -15.586795806884766, -170.96470642089844, -1.4173757, 1.0412422, -0.1536045
895, 206860471, 12.9395170211792, -15.586514472961426, -170.9650115966797, -1.4188681, 0.6446687, 0.0069904327
896, 206877138, 12.978811264038086, -15.601566314697266, -171.0099639892578, -1.0886173, 0.5229805, -0.27936554
897, 206893805, 12.849288940429688, -15.74084758758545, -171.09555053710938, -0.7978774, 0.6517591, -0.459198
898, 206910472, 12.935755729675293, -15.839653015136719, -171.0934600830078, -0.36200586, 0.73821753, -0.075746536
899, 206927139, 13.154861450195312, -15.913763999938965, -171.0711669921875, 0.10278691, 0.23073055, 0.473876
900, 206943806, 13.298076629638672, -15.969687461853027, -171.08995056152344, 0.32620752, -1.1827744, 0.9402609
901, 206960473, 13.262916564941406, -16.055919647216797, -171.1024627685547, 0.11996388, -1.0440602, 0.08311558
902, 206977140, 13.220894813537598, -16.11553192138672, -171.1217041015625, 0.6593559, -0.303616, -0.32237244
903, 206993807, 13.224281311035156, -16.15988540649414, -171.17234802246094, 0.97812647, -0.04538533, -0.24239159
904, 207010474, 13.320053100585938, -16.174476623535156, -171.2339630126953, 1.0318995, -0.1856078, 0.12480831
905, 207027141, 13.372361183166504, -16.198625564575195, -171.33387756347656, 1.2812166, -0.9459597, 0.725749
906, 207043808, 13.230323791503906, -16.26688575744629, -171.4693145751953, 0.89969456, -1.3617756, 0.3038864
907, 207060475, 12.878975868225098, -16.36644744873047, -171.56480407714844, 0.23066285, -0.70598143, -0.65618896
908, 207077142, 12.450369834899902, -16.52113151550293, -171.5618133544922, -0.04273871, 0.35460514, -1.0228405
909, 207093809, 12.292905807495117, -16.701082229614258, -171.52804565429688, -0.75463927, 1.0749565, -0.03718853
910, 207110476, 12.256147384643555, -16.90102767944336, -171.6392059326172, -0.49123207, 0.7562225, 1.1906853
911, 207127143, 12.231453895568848, -17.069244384765625, -171.78500366210938, 0.063784406, 0.7613415, 1.4264202
912, 207143810, 12.024190902709961, -17.142990112304688, -171.8397674560547, -0.2305723, 0.8272674, -0.08312321
913, 207160477, 11.655811309814453, -17.39309310913086, -171.9341583251953, 0.81426156, 2.350578, -1.6298056
914, 207177144, 11.49576473236084, -17.911069869995117, -172.0743408203125, 2.7188118, 2.388758, -2.3263183
915, 207193811, 11.59075927734375, -18.334291458129883, -172.01513671875, 2.3805065, 2.249512, 1.4554358
916, 207210478, 11.70713996887207, -18.850133895874023, -172.04002380371094, 0.32735243, 1.1484755, 3.1717072
917, 207227145, 12.006928443908691, -19.496726989746094, -172.22088623046875, 0.07576165, 0.14487998, -0.331151
918, 207243812, 12.379612922668457, -20.272472381591797, -172.49395751953125, 3.225043, -0.5710889, -0.42168427
919, 207260479, 12.563566207885742, -21.10628890991211, -172.68743896484375, 4.5864887, -1.2708906, 0.85629845
920, 207277146, 12.685389518737793, -21.952619552612305, -172.90530395507812, 1.6380495, -1.2031107, 0.70011806
921, 207293813, 12.83585262298584, -22.817834854125977, -173.23741149902344, 1.6082916, -1.5370294, 0.5824547
922, 207310480, 12.88759994506836, -23.685993194580078, -173.55050659179688, 1.0959796, -0.7296626, 0.4601555
923, 207327147, 13.028454780578613, -24.635271072387695, -173.85488891601562, 0.1156991, 1.1319197, -0.1023798
924, 207343814, 13.263720512390137, -25.662525177001953, -174.12759399414062, -0.20399943, 1.1482729, 0.2932396
925, 207360481, 13.444430351257324, -26.746150970458984, -174.36024475097656, -0.6081242, 0.11367112, 0.46030617
926, 207377148, 13.599006652832031, -27.834890365600586, -174.5795135498047, -0.09329191, -0.3594217, 0.4146719
927, 207393815, 13.76369857788086, -28.932924270629883, -174.79489135742188, 0.054105084, -0.6629228, 0.07609081
928, 207410482, 13.982081413269043, -30.082366943359375, -175.0335235595703, -0.20770252, -0.36372262, -0.21565342
929, 207427149, 14.296486854553223, -31.277233123779297, -175.3155975341797, -0.70695484, 0.019947931, -0.03751278
930, 207443816, 14.662278175354004, -32.505401611328125, -175.5791015625, -1.1452514, -0.04896754, 0.42517567
931, 207460483, 14.984243392944336, -33.78678894042969, -175.8032989501953, -1.1505599, -0.22199777, 0.6447315
932, 207477150, 15.234281539916992, -35.10616683959961, -176.00306701660156, -0.9333883, -0.60437727, 0.05922985
933, 207493817, 15.530058860778809, -36.4151496887207, -176.22373962402344, -0.25991768, -0.46134108, -0.43712807
934, 207510484, 15.907197952270508, -37.7166862487793, -176.47389221191406, -0.120539054, -0.51311785, -0.3171997
935, 207527151, 16.343730926513672, -39.0306510925293, -176.7359619140625, -0.5544643, -0.47938567, 0.0233078
936, 207543818, 16.80370330810547, -40.37961959838867, -177.0147705078125, -0.8244335, -0.24439703, 0.3897047
937, 207560485, 17.273056030273438, -41.7393684387207, -177.28855895996094, -0.9294419, 0.25247434, 0.08249092
938, 207577152, 17.791574478149414, -43.092098236083984, -177.53146362304688, -0.7912468, 0.7095619, -0.3651991
939, 207593819, 18.34433364868164, -44.457969665527344, -177.74343872070312, -0.7752055, 0.529894, -0.40902805
940, 207610486, 18.960693359375, -45.82955551147461, -177.9384765625, -1.0377129, 0.1456694, -0.15362263
941, 207627153, 19.625200271606445, -47.214046478271484, -178.12451171875, -1.2625821, -0.5477649, 0.1998949
942, 207643820, 20.303701400756836, -48.623008728027344, -178.3335418701172, -1.1820519, -1.0755308, 0.4539795
943, 207660487, 21.02075958251953, -50.067256927490234, -178.63003540039062, -0.7224158, -0.9146531, 0.21770954
944, 207677154, 21.76642417907715, -51.505287170410156, -179.0027618408203, -0.17730315, -0.6407258, -0.36343575
945, 207693821, 22.54034996032715, -52.90900421142578, -179.39996337890625, 0.35112277, -0.3523016, -0.6299391
946, 207710488, 23.32354164123535, -54.3119010925293, -179.81846618652344, -0.10283045, -0.32246637, -0.60350513
947, 207727155, 24.063343048095703, -55.71792984008789, 179.7783203125, -0.5172269, 0.38101107, -0.23306274
948, 207743822, 24.7978572845459, -57.135746002197266, 179.3699188232422, -0.3981076, 0.65000844, 0.01933384
949, 207760489, 25.52042579650879, -58.575035095214844, 178.94737243652344, 0.04900242, 0.74677396, 0.13737392
950, 207777156, 26.208633422851562, -60.01470184326172, 178.53187561035156, 0.063305825, 0.8837832, -0.1813469
951, 207793823, 26.842554092407227, -61.33304977416992, 178.2509765625, 0.06323642, 1.0169253, -0.6635866
952, 207810490, 27.54388999938965, -62.60403060913086, 178.07022094726562, -0.31458127, 1.4354843, -0.87542343
953, 207827157, 28.414884567260742, -63.879947662353516, 177.88934326171875, -0.512455, 0.6477197, -0.66501904
954, 207843824, 29.490585327148438, -65.16655731201172, 177.62600708007812, -0.2735469, -0.3705256, 0.07087135
955, 207860491, 30.63526725769043, -66.46292114257812, 177.2341766357422, -0.66926295, -1.073126, 0.523407
956, 207877158, 31.688764572143555, -67.74478912353516, 176.71978759765625, -0.23434113, -0.8977599, 0.69297314
957, 207893825, 32.7227897644043, -69.0649642944336, 176.0538330078125, 0.03249539, -0.31650636, 0.18860626
958, 207910492, 33.66825866699219, -70.35316467285156, 175.41525268554688, -0.10633196, 0.21127288, -0.4315672
959, 207927159, 34.643653869628906, -71.66480255126953, 174.75473022460938, -1.028871, 0.20533162, -0.65085983
960, 207943826, 35.71319580078125, -72.98925018310547, 174.10125732421875, -1.5991578, 0.081581555, -0.5753298
961, 207960493, 36.953590393066406, -74.33932495117188, 173.3806915283203, -1.8062755, 0.15455005, 0.17495346
962, 207977160, 38.44638442993164, -75.694580078125, 172.45249938964844, -1.3504462, -0.25371268, 1.1018476
963, 207993827, 40.248626708984375, -77.01180267333984, 171.0917205810547, -0.78209066, -0.5366354, 0.9560652
964, 208010494, 42.011962890625, -78.27085876464844, 169.5729522705078, -0.0758853, 0.34392777, 0.23914623
965, 208027161, 43.6437873840332, -79.44725036621094, 168.05470275878906, 0.2177704, 0.9097539, -0.4241228
966, 208043828, 45.27287673950195, -80.54838562011719, 166.56785583496094, 0.40562072, 0.96845496, -0.0977478
967, 208060495, 47.14227294921875, -81.54701232910156, 164.9281005859375, -0.31427962, 0.41559607, 0.020590782
968, 208077162, 49.258968353271484, -82.4516372680664, 163.1494903564453, -0.24523987, 0.11980317, 0.21684265
969, 208093829, 52.36808395385742, -83.33447265625, 160.3426055908203, -0.5554985, -0.57627565, 0.2572775
970, 208110496, 56.53059005737305, -84.17826080322266, 156.35032653808594, -0.36816025, -1.1437168, 0.48814678
971, 208127163, 61.79484558105469, -84.96572875976562, 151.08364868164062, 0.09678731, -1.0126525, 0.2591715
972, 208143830, 68.16883087158203, -85.66622924804688, 144.52589416503906, 0.3384302, -0.26010975, 0.19212627
973, 208160497, 75.39859771728516, -86.23948669433594, 137.03518676757812, 0.5672951, 0.28437442, 0.60937595
974, 208177164, 82.75776672363281, -86.64683532714844, 129.41900634765625, 0.7969337, 0.50684625, 0.69812393
975, 208193831, 89.460693359375, -86.9089584350586, 122.5731430053711, 0.15712497, 0.50778425, 0.42070103
976, 208210498, 95.21248626708984, -87.08496856689453, 116.77305603027344, -0.63754636, 0.7155365, 0.32069874
977, 208227165, 100.90239715576172, -87.21435546875, 111.17424774169922, -1.0278223, 0.6633677, 0.40159988
978, 208243832, 106.8154525756836, -87.3016586303711, 105.5003662109375, -1.3899262, 0.19533613, 0.45954514
979, 208260499, 112.34785461425781, -87.33795928955078, 100.27423095703125, -0.89937824, -0.10817133, 0.5072098
980, 208277166, 116.77984619140625, -87.33464813232422, 96.14776611328125, 0.31895676, -0.43292066, 0.41162586
981, 208293833, 120.42619323730469, -87.28690338134766, 92.68489074707031, 1.2565501, -0.3585959, 0.3928585
982, 208310500, 123.16329956054688, -87.23643493652344, 90.08393096923828, 1.510786, 0.24237633, 0.35843658
983, 208327167, 124.97526550292969, -87.21056365966797, 88.49516296386719, 1.1309081, 0.7589159, 0.21527195
984, 208343834, 125.9154281616211, -87.22152709960938, 87.90453338623047, 0.62341404, 0.51369166, 0.11345863
985, 208360501, 126.7996597290039, -87.24132537841797, 87.42839813232422, 0.11720488, -0.12247437, 0.04233837
986, 208377168, 128.11497497558594, -87.26319122314453, 86.45665740966797, -0.33273137, -0.49019164, 0.047761917
987, 208393835, 130.0132598876953, -87.27717590332031, 84.73590087890625, -0.32080743, -0.61787003, 0.0457983
988, 208410502, 132.2250518798828, -87.29592895507812, 82.5255126953125, -0.20947483, -0.24315639, 0.22068119
989, 208427169, 134.23904418945312, -87.30805206298828, 80.35253143310547, -0.16733138, -0.14822373, 0.30078793
990, 208443836, 136.17929077148438, -87.285888671875, 78.17567443847656, -0.015925102, -0.047746614, 0.31603146
991, 208460503, 137.82411193847656, -87.23898315429688, 76.27120971679688, -0.018741896, 0.21004753, 0.21373081
992, 208477170, 139.13999938964844, -87.19104766845703, 74.75430297851562, -0.006822007, 0.48272696, 0.24213314
993, 208493837, 139.92872619628906, -87.16468811035156, 73.89279174804688, -0.044110786, 0.63764435, 0.31241703
994, 208510504, 140.19898986816406, -87.1533203125, 73.67767333984375, -0.007989471, 0.5623856, 0.35834503
995, 208527171, 140.16819763183594, -87.1396713256836, 73.86175537109375, -0.14142576, 0.43453065, 0.22101116
996, 208543838, 139.97674560546875, -87.13837432861328, 74.28135681152344, -0.40019253, -0.04739313, 0.026884079
997, 208560505, 139.79672241210938, -87.14679718017578, 74.6624526977539, -0.5231387, -0.3068427, 0.11787319
998, 208577172, 139.5087127685547, -87.15208435058594, 75.04862976074219, -0.73071504, -0.5374093, 0.10864353
999, 208593839, 139.2014923095703, -87.16289520263672, 75.37142944335938, -0.5554646, -0.5237605, 0.08323479
1000, 208610506, 138.713623046875, -87.18360137939453, 75.82421875, -0.0962784, -0.29070252, 0.30566978
1001, 208627173, 137.45143127441406, -87.21723175048828, 77.01859283447266, 0.41231272, -0.025010206, 0.41716576
1002, 208643840, 134.94253540039062, -87.2725830078125, 79.42948150634766, 0.4045535, -0.103850715, 0.4812889
1003, 208660507, 131.4193572998047, -87.3257827758789, 82.85881805419922, 0.14895856, -0.22684029, 0.3440342
1004, 208677174, 126.94988250732422, -87.38042449951172, 87.2553482055664, -0.37832248, -0.433111, -0.023251534
1005, 208693841, 121.45989227294922, -87.43738555908203, 92.70246124267578, -0.4496599, -0.4853013, -0.22925091
1006, 208710508, 114.4233627319336, -87.485107421875, 99.65544128417969, -0.31523836, -0.34576067, 0.17777729
1007, 208727175, 106.1796875, -87.4804458618164, 107.78649139404297, -0.065187216, -0.03315323, 0.43918037
1008, 208743842, 97.90441131591797, -87.40912628173828, 115.96246337890625, -0.06766989, 0.27647278, 0.5128803
1009, 208760509, 89.18177032470703, -87.25997924804688, 124.63177490234375, 0.21098469, 0.26243517, 0.39989853
1010, 208777176, 80.48127746582031, -87.01148223876953, 133.29586791992188, 0.60720384, 0.12463049, 0.40771294
1011, 208793843, 72.85638427734375, -86.66757202148438, 140.87521362304688, -0.073949315, 0.02560788, 0.27284622
1012, 208810510, 66.26505279541016, -86.29255676269531, 147.5182342529297, -1.1367258, -0.33499518, 0.3182268
1013, 208827177, 60.89625930786133, -85.90609741210938, 152.996337890625, -1.2089736, -0.2601883, 0.27398586
1014, 208843844, 56.27082443237305, -85.5151138305664, 157.76882934570312, -0.8251346, -0.036190547, 0.2690916
1015, 208860511, 51.512271881103516, -85.04393768310547, 162.6846466064453, -0.016740367, -0.0546193, 0.43059158
1016, 208877178, 46.901214599609375, -84.41622924804688, 167.43096923828125, 0.78815395, 0.2515304, 0.60412884
1017, 208893845, 43.35441207885742, -83.67117309570312, 171.072509765625, 0.13662705, -0.07659409, 0.33899307
1018, 208910512, 41.148216247558594, -82.93439483642578, 173.3684539794922, -0.6634916, -0.37976873, -0.0873127
1019, 208927179, 39.28041076660156, -82.18222045898438, 175.3297882080078, -0.8282668, -0.773693, -0.17114067
1020, 208943846, 37.383235931396484, -81.391845703125, 177.24412536621094, -0.2912193, -0.2941836, 0.37693405
1021, 208960513, 35.78837585449219, -80.580322265625, 178.7275390625, -0.51821405, 0.5991581, 0.6282892
1022, 208977180, 34.33421325683594, -79.65552520751953, -179.8147735595703, -0.20278643, 0.95137304, 0.38112164
1023, 208993847, 33.215667724609375, -78.63768005371094, -178.5760040283203, -0.5162004, 0.7520946, 0.25612068
1024, 209010514, 32.473270416259766, -77.56446075439453, -177.59092712402344, -0.026146155, 0.6275027, 0.31867695
1025, 209027181, 31.911296844482422, -76.49454498291016, -176.82180786132812, -0.07212216, 0.7769755, 0.722332
1026, 209043848, 31.35629653930664, -75.41060638427734, -176.16746520996094, -0.3054945, 1.2443193, 0.66184044
1027, 209060515, 30.82963752746582, -74.31019592285156, -175.52513122558594, -0.7177484, 1.2519289, 0.1895256
1028, 209077182, 30.34360694885254, -73.1075439453125, -174.70541381835938, -0.4118336, 0.6326031, -0.39863586
1029, 209093849, 29.98096466064453, -71.87899780273438, -173.95358276367188, -0.21440338, -0.18307365, -0.45101166
1030, 209110516, 29.69906997680664, -70.72371673583984, -173.3458251953125, -0.8451121, -1.6780082, -0.55680275
1031, 209127183, 29.46510887145996, -69.72258758544922, -173.0147705078125, -0.5182988, -2.8735468, -0.07470703
1032, 209143850, 29.0693302154541, -68.80091094970703, -172.90988159179688, -0.28424585, -3.0106637, 0.3257656
1033, 209160517, 28.60496711730957, -67.87836456298828, -173.06089782714844, 0.7973496, -1.3353018, 1.2076206
1034, 209177184, 28.073150634765625, -66.90878295898438, -173.3158416748047, 1.2892616, -0.1869991, 1.4511852
1035, 209193851, 27.48760986328125, -65.95269775390625, -173.5489959716797, 0.76057327, 0.7404567, 0.3825636
1036, 209210518, 26.933176040649414, -65.01043701171875, -173.76095581054688, 0.34754598, 2.1100035, -0.8432083
1037, 209227185, 26.471149444580078, -64.0396957397461, -173.92015075683594, 0.34944126, 2.077478, -1.7410583
1038, 209243852, 26.246261596679688, -63.095497131347656, -174.0499725341797, 0.52503204, 1.1015157, -1.195756
1039, 209260519, 26.146209716796875, -62.17930221557617, -174.2655487060547, 0.65318954, -0.5891022, 0.5424986
1040, 209277186, 25.97137451171875, -61.283973693847656, -174.61988830566406, 1.3113645, -1.7238191, 1.4944916
1041, 209293853, 25.395830154418945, -60.288230895996094, -174.93191528320312, 0.53516275, -0.6823057, 0.8202629
1042, 209310520, 24.569812774658203, -59.16816711425781, -175.08543395996094, 0.19026314, 0.6334104, -0.8065891
1043, 209327187, 23.67420768737793, -57.98827362060547, -175.1327362060547, 0.5596105, 1.3616525, -1.8337574
1044, 209343854, 23.058687210083008, -56.85822677612305, -175.05224609375, -0.36601314, 0.9853848, -1.4490967
1045, 209360521, 22.660947799682617, -55.753536224365234, -175.06314086914062, -0.8034039, -0.06011867, 0.38517094
1046, 209377188, 22.194374084472656, -54.702980041503906, -175.15988159179688, -0.64790267, -0.9494824, 1.7013216
1047, 209393855, 21.49736976623535, -53.603614807128906, -175.22430419921875, -1.1455247, -0.27356645, 0.9411993
1048, 209410522, 20.77208709716797, -52.419708251953125, -175.14492797851562, -0.29436788, 1.1320522, -0.1555214
1049, 209427189, 20.09293556213379, -51.25096893310547, -175.01385498046875, 0.39721245, 1.4871264, -1.036562
1050, 209443856, 19.559133529663086, -50.03343963623047, -174.8261260986328, 0.52997774, 1.3611993, -1.012434
1051, 209460523, 19.0398006439209, -48.85415267944336, -174.63418579101562, -0.15370245, 0.95717627, -0.43690205
1052, 209477190, 18.533309936523438, -47.72823715209961, -174.4600830078125, -1.0226719, 0.24011031, -0.25001526
1053, 209493857, 17.972614288330078, -46.625728607177734, -174.2791290283203, -0.70192444, -0.5773757, 0.0608263
1054, 209510524, 17.336498260498047, -45.510093688964844, -174.0761260986328, -0.5196807, -0.80771077, 0.33276844
1055, 209527191, 16.563451766967773, -44.377227783203125, -173.83877563476562, -0.5234949, -0.99244803, 0.2882948
1056, 209543858, 15.821788787841797, -43.19099044799805, -173.65652465820312, -0.39349118, -0.6533648, -0.7346983
1057, 209560525, 15.306144714355469, -42.0090446472168, -173.56126403808594, 0.31649023, 0.20356573, -0.4195528
1058, 209577192, 14.811121940612793, -40.83531951904297, -173.50164794921875, -0.31283897, 0.05445463, -0.044049263
1059, 209593859, 14.240154266357422, -39.65248489379883, -173.3616180419922, -0.46249115, 0.31681946, 0.2642975
1060, 209610526, 13.597946166992188, -38.474998474121094, -173.13185119628906, -0.42000818, 0.9109848, -0.23435879
1061, 209627193, 13.08885383605957, -37.23591613769531, -172.86167907714844, -0.15891926, 1.6482923, -0.8728428
1062, 209643860, 12.774312973022461, -35.97179412841797, -172.5812225341797, 0.07982805, 0.9757565, -0.3964033
1063, 209660527, 12.496125221252441, -34.72388458251953, -172.30165100097656, -0.4485844, -0.92269313, 0.6996298
1064, 209677194, 12.130552291870117, -33.492759704589844, -172.02598571777344, -0.41175047, -1.5514513, 0.6003666
1065, 209693861, 11.669564247131348, -32.269012451171875, -171.77169799804688, 0.043922365, -0.97820634, 0.068590164
1066, 209710528, 11.330071449279785, -31.059711456298828, -171.53611755371094, 0.12402484, 0.30512503, -0.37193298
1067, 209727195, 11.133134841918945, -29.87940788269043, -171.33853149414062, -0.084356405, 0.65773803, -0.0029249191
