PacketCounter_femur,SampleTimeFine_femur,Euler_X_femur,Euler_Y_femur,Euler_Z_femur,FreeAcc_X_femur,FreeAcc_Y_femur,FreeAcc_Z_femur
1,191960173,15.52087593,-15.8670826,-165.9657898,0.046279795,0.05493109,0.04819584
2,191976840,15.52199459,-15.86845589,-165.9647217,0.027694456,0.061383866,0.057401657
3,191993507,15.5231638,-15.86888981,-165.966568,0.05976067,0.045420486,0.07404423
4,192010174,15.52894592,-15.86924458,-165.9634247,0.079367146,0.03105422,0.06327438
5,192026841,15.53228378,-15.86902237,-165.9611511,0.086682856,-0.010148262,0.044477463
6,192043508,15.53192902,-15.86754036,-165.9583282,0.084996514,-0.026227163,0.05475235
7,192060175,15.53133774,-15.86837387,-165.9592896,0.07499629,-0.036931925,0.047024727
8,192076842,15.52950764,-15.87000084,-165.9605408,0.07412856,-0.008862051,0.054748535
9,192093509,15.52587032,-15.87166119,-165.961853,0.059029885,0.010262416,0.053355217
10,192110176,15.52457237,-15.87236214,-165.9629822,0.047815345,0.012884335,0.05368328
11,192126843,15.52598286,-15.87115669,-165.9630432,0.03578103,0.03190797,0.060832977
12,192143510,15.5205822,-15.86832428,-165.9652557,0.025820874,0.029331563,0.04708767
13,192160177,15.51427078,-15.86663532,-165.9650269,0.057240997,0.03354773,0.04841423
14,192176844,15.51034164,-15.86579514,-165.9652863,0.07495585,0.038832318,0.058398247
15,192193511,15.51057053,-15.86417961,-165.9639893,0.065409094,0.06417825,0.057789803
16,192210178,15.51266479,-15.86237049,-165.9620056,0.049736746,0.046157114,0.06529331
17,192226845,15.51442146,-15.86018085,-165.9569092,0.037728973,0.038359586,0.06352329
18,192243512,15.51874828,-15.85811806,-165.9529419,0.0614757,0.007339788,0.06999493
19,192260179,15.52750969,-15.85887623,-165.9542694,0.06547308,-0.021866413,0.05965233
20,192276846,15.52902412,-15.85904694,-165.9542694,0.0640082,-0.050782505,0.05203724
21,192293513,15.52734947,-15.85768795,-165.9560242,0.08337015,-0.054809164,0.071653366
22,192310180,15.52660656,-15.85597706,-165.9574585,0.0776287,-0.009871435,0.039712906
23,192326847,15.51909542,-15.85340691,-165.9565735,0.06384563,0.022268288,0.05597973
24,192343514,15.51313782,-15.8505125,-165.9550781,0.062102333,0.014076189,0.061917305
25,192360181,15.50694275,-15.8494339,-165.9554291,0.06274988,0.015697664,0.0680666
26,192376848,15.50619125,-15.84988594,-165.9561005,0.07413696,0.02072799,0.07313919
27,192393515,15.50997353,-15.85191822,-165.9597931,0.056982253,0.010971902,0.052858353
28,192410182,15.50971699,-15.85224056,-165.962677,0.045817304,0.013379122,0.041635513
29,192426849,15.50559044,-15.84981918,-165.9611359,0.051119633,0.049626064,0.02775383
30,192443516,15.50242233,-15.84527779,-165.9597778,0.042624634,0.058234904,0.050387383
31,192460183,15.50602055,-15.84369278,-165.958252,0.04672889,0.030480476,0.061076164
32,192476850,15.51139355,-15.84333229,-165.9547729,0.047091093,0.051716387,0.05130005
33,192493517,15.50950909,-15.84139633,-165.9488678,0.062001333,0.003822714,0.06966972
34,192510184,15.50733185,-15.83844757,-165.9411163,0.06532155,0.006746948,0.050543785
35,192526851,15.50479984,-15.83553982,-165.9347839,0.04833064,-0.013791531,0.052028656
36,192543518,15.50487137,-15.8346653,-165.9345245,0.07607354,-0.024504969,0.07936287
37,192560185,15.50670147,-15.83762932,-165.9396057,0.09171084,-0.054412205,0.076743126
38,192576852,15.50545692,-15.83964252,-165.9446259,0.07370998,-0.0495369,0.06247425
39,192593519,15.50405788,-15.83882809,-165.9515533,0.062475644,-0.007304166,0.049907684
40,192610186,15.50167274,-15.83669662,-165.9566956,0.049678843,0.048463408,0.042627335
41,192626853,15.49997044,-15.83437634,-165.9584656,0.043895375,0.053718407,0.039696693
42,192643520,15.49623108,-15.8319416,-165.9571686,0.04849636,0.04851755,0.0655241
43,192660187,15.49544239,-15.82955647,-165.9545593,0.065220915,0.07932054,0.058401108
44,192676854,15.50016308,-15.8287077,-165.9510193,0.033043876,0.056202024,0.06495762
45,192693521,15.50607967,-15.8267231,-165.9469757,0.043760944,0.039663784,0.05986309
46,192710188,15.51188564,-15.82651997,-165.9429016,0.04845022,0.014582236,0.06540203
47,192726855,15.516469,-15.82737923,-165.9418335,0.053955734,-0.051726,0.0630703
48,192743522,15.51544762,-15.82614231,-165.9455261,0.058734007,-0.08257046,0.049593925
49,192760189,15.51122856,-15.82585239,-165.9467926,0.06880703,-0.06050852,0.064665794
50,192776856,15.50819016,-15.8271122,-165.9485321,0.086526446,-0.06651171,0.073493004
51,192793523,15.50400162,-15.82766247,-165.9511719,0.08860591,-0.057039946,0.043902397
52,192810190,15.49535656,-15.82745743,-165.9538116,0.06186048,-0.001422269,0.060040474
53,192826857,15.48845673,-15.8283453,-165.9561462,0.059669018,0.035784286,0.07000351
54,192843524,15.48283195,-15.82879925,-165.957077,0.040060226,0.039321728,0.047979355
55,192860191,15.47957897,-15.82702351,-165.9568634,0.029649315,0.06613216,0.056173325
56,192876858,15.4772377,-15.82756996,-165.9568024,0.040371343,0.03902968,0.070581436
57,192893525,15.47287846,-15.82665539,-165.9567566,0.038674403,0.039012287,0.028749466
58,192910192,15.46953011,-15.82389545,-165.9536133,0.041934676,0.039983016,0.030673027
59,192926859,15.47320271,-15.82195282,-165.9506836,0.04197642,0.024259662,0.068556786
60,192943526,15.48122692,-15.81997013,-165.949646,0.04438928,-0.017230473,0.0489769
61,192960193,15.48476505,-15.81855392,-165.9483948,0.06605857,-0.057020154,0.06583786
62,192976860,15.48397732,-15.81751919,-165.9476776,0.067144886,-0.06220649,0.065434456
63,192993527,15.48356056,-15.81792927,-165.9504547,0.059180308,-0.048977863,0.05444908
64,193010194,15.48058128,-15.81730461,-165.9551849,0.060895223,-0.008997807,0.052357674
65,193026861,15.47752666,-15.81481171,-165.9584351,0.04912844,0.008100319,0.0488739
66,193043528,15.4738245,-15.81392002,-165.9597015,0.03643469,0.038603287,0.071593285
67,193060195,15.47309399,-15.81356144,-165.9627991,0.025807392,0.072988994,0.06699848
68,193076862,15.47227955,-15.81109428,-165.9650116,0.02419856,0.083640754,0.03860569
69,193093529,15.47432613,-15.81006432,-165.965683,0.03812459,0.07266476,0.050308228
70,193110196,15.48083782,-15.80684757,-165.9654388,0.040161617,0.06040404,0.040499687
71,193126863,15.48756886,-15.80238533,-165.9606781,0.054509766,0.027448704,0.05017948
72,193143530,15.4953022,-15.79871273,-165.9574585,0.0587123,-0.032981347,0.07737827
73,193160197,15.50080395,-15.79883575,-165.9549561,0.075814396,-0.083409995,0.054268837
74,193176864,15.50202274,-15.79948139,-165.9537354,0.074963644,-0.09117455,0.05626583
75,193193531,15.49984074,-15.80022049,-165.9548645,0.08088058,-0.08180779,0.06764507
76,193210198,15.49511719,-15.80012989,-165.9575806,0.055779308,-0.07600235,0.040091515
77,193226865,15.48023987,-15.79564953,-165.9615021,0.06695625,-0.022495126,0.04835415
78,193243532,15.46916294,-15.79353905,-165.9655914,0.06793523,0.04081894,0.06420994
79,193260199,15.47069931,-15.79458523,-165.9674225,0.060101558,0.066491835,0.051052094
80,193276866,15.4727354,-15.79581356,-165.9668579,0.04582503,0.045278303,0.047754288
81,193293533,15.47099018,-15.79554176,-165.9658508,0.031922497,0.04920501,0.07750893
82,193310200,15.46923828,-15.79491329,-165.9657288,0.03156154,0.043756977,0.03684616
83,193326867,15.4707222,-15.79507256,-165.9658356,0.03768715,0.004797887,0.058294296
84,193343534,15.47005939,-15.79504108,-165.9669495,0.034639172,-0.041419704,0.024980545
85,193360201,15.46481514,-15.7913599,-165.9682922,0.023356127,-0.03562844,0.03491783
86,193376868,15.46486855,-15.78732491,-165.9683838,0.030707886,0.001439577,0.06203842
87,193393535,15.46495247,-15.78504848,-165.9669342,0.0474013,0.007199492,0.059892654
88,193410202,15.46215153,-15.78434563,-165.964386,0.055297762,7.91E-04,0.052253723
89,193426869,15.45879078,-15.78300476,-165.9621429,0.07930174,-0.001791359,0.059783936
90,193443536,15.45627403,-15.78229618,-165.9617157,0.058083795,0.003363283,0.05917263
91,193460203,15.45327759,-15.7813282,-165.9612274,0.048941683,0.00617815,0.0630579
92,193476870,15.44955158,-15.78036976,-165.9635773,0.04086032,0.034041386,0.050253868
93,193493537,15.44846058,-15.77853584,-165.9666748,0.0370845,0.040183116,0.06177616
94,193510204,15.4529314,-15.77630329,-165.9697266,0.04366616,0.039381083,0.06658268
95,193526871,15.45809078,-15.77404213,-165.970932,0.031143723,0.04130349,0.061306953
96,193543538,15.46514034,-15.77161694,-165.9702606,0.04159583,0.016912472,0.06497288
97,193560205,15.47225666,-15.76999378,-165.9652863,0.042175468,-0.017004754,0.06563568
98,193576872,15.47564793,-15.76919746,-165.9605865,0.070133545,-0.031889696,0.04982853
99,193593539,15.47664547,-15.76630688,-165.9571991,0.054744873,-0.04972275,0.041905403
100,193610206,15.47546196,-15.76262856,-165.9561615,0.06987207,-0.042195935,0.07075691
101,193626873,15.47210884,-15.76036453,-165.9573822,0.05690489,-0.052980967,0.05774975
102,193643540,15.46652985,-15.75973988,-165.9587402,0.06327249,-0.050692696,0.05306053
103,193660207,15.45978546,-15.75781345,-165.9604797,0.06481834,0.002033158,0.054793358
104,193676874,15.45431423,-15.75654507,-165.9612274,0.05246377,0.004941634,0.060046196
105,193693541,15.44999409,-15.75536442,-165.9623413,0.0325826,0.03238788,0.06536865
106,193710208,15.44839573,-15.75434017,-165.9620667,0.03145192,0.048847567,0.046832085
107,193726875,15.44800949,-15.75187778,-165.9606628,0.04137331,0.035884768,0.065629005
108,193743542,15.45297909,-15.74906731,-165.9594269,0.024302425,0.057460863,0.043478966
109,193760209,15.45820904,-15.74625015,-165.9603729,-0.00241415,0.025086591,0.061704636
110,193776876,15.46394253,-15.74532986,-165.9611206,0.055583175,0.01580002,0.07309151
111,193793543,15.47244453,-15.74489117,-165.9622955,0.048403755,-0.030637536,0.0470438
112,193810210,15.47247505,-15.74156094,-165.9629364,0.053658698,-0.034710124,0.0641489
113,193826877,15.47331047,-15.74063587,-165.9625244,0.06543789,-0.019089626,0.060001373
114,193843544,15.47528076,-15.74036884,-165.9593048,0.06399806,-0.010669572,0.037938118
115,193860211,15.4765377,-15.73966599,-165.955368,0.07189956,-0.0360133,0.06266594
116,193876878,15.47276878,-15.739748,-165.9533081,0.0693473,-0.054265272,0.079722404
117,193893545,15.47035122,-15.7395153,-165.9521484,0.069140926,-0.022982402,0.064126015
118,193910212,15.46798801,-15.73985672,-165.951767,0.05034505,-0.003002953,0.0531559
119,193926879,15.46532249,-15.73838139,-165.9502716,0.026562475,0.002204634,0.04451084
120,193943546,15.46346951,-15.73559666,-165.9480591,0.032871407,-0.023174815,0.048563004
121,193960213,15.45975971,-15.73317051,-165.9490814,0.032115027,-0.005469642,0.07700539
122,193976880,15.45894337,-15.73386002,-165.9536743,0.037372135,-0.018050265,0.06282616
123,193993547,15.45663452,-15.73426342,-165.9567413,0.03372538,-0.027461333,0.05108738
124,194010214,15.45379829,-15.73343277,-165.9582977,0.060993418,0.011622646,0.049015045
125,194026881,15.44939327,-15.73206043,-165.9597473,0.060891535,0.02385428,0.059436798
126,194043548,15.44423962,-15.73002529,-165.9590302,0.04272006,0.020500427,0.055610657
127,194060215,15.44046116,-15.72903442,-165.9589844,0.03848269,0.029733341,0.054968834
128,194076882,15.43798828,-15.72605133,-165.9587708,0.033330463,0.04494871,0.04878235
129,194093549,15.44008541,-15.72308159,-165.9574127,0.033106964,0.04505577,0.067881584
130,194110216,15.44768906,-15.72057152,-165.9573669,0.026820187,0.016228313,0.08318615
131,194126883,15.45579243,-15.72088242,-165.9590607,0.034998357,-0.010211189,0.06573868
132,194143550,15.46050262,-15.72178936,-165.961792,0.046037298,-0.016403798,0.055191994
133,194160217,15.46324825,-15.72056484,-165.961853,0.040534034,-0.013523051,0.042980194
134,194176884,15.46313667,-15.71792889,-165.9609222,0.031102639,-0.006228552,0.054471016
135,194193551,15.46611309,-15.71499825,-165.9592896,0.055294465,-0.00770424,0.055226326
136,194210218,15.46349907,-15.7113924,-165.9565277,0.036735542,-0.022355765,0.052581787
137,194226885,15.46484756,-15.70963192,-165.9539642,0.048574086,-0.031232107,0.05739498
138,194243552,15.46602917,-15.70961952,-165.9544373,0.050770115,-0.032753307,0.07069969
139,194260219,15.46658993,-15.71004009,-165.9557648,0.05754211,-0.0518433,0.0613451
140,194276886,15.46298122,-15.7112627,-165.9572144,0.048927125,-0.026290642,0.07679939
141,194293553,15.45702267,-15.71119022,-165.9575348,0.038091637,-0.004188269,0.057374954
142,194310220,15.45328999,-15.70944405,-165.9553375,0.043030575,0.009800484,0.059282303
143,194326887,15.45395374,-15.70840073,-165.9536896,0.0649726,-0.007194212,0.056035995
144,194343554,15.44916058,-15.70697117,-165.9542389,0.042883515,-0.03508596,0.05449581
145,194360221,15.44276905,-15.70654297,-165.9549255,0.02610303,-0.018313395,0.06312847
146,194376888,15.43746948,-15.70672703,-165.9559937,0.037132207,0.021076238,0.058315277
147,194393555,15.43461609,-15.70794964,-165.9567719,0.022919899,0.030745799,0.043644905
148,194410222,15.4308691,-15.70730114,-165.9575195,0.002983772,0.05334486,0.042547226
149,194426889,15.42866993,-15.70414162,-165.9583435,0.017053774,0.08036657,0.045511246
150,194443556,15.42956829,-15.70500278,-165.9589996,0.02479277,0.058252364,0.06393337
151,194460223,15.43562984,-15.70577812,-165.9622955,0.045726743,0.03225022,0.060037613
152,194476890,15.44445992,-15.70620155,-165.9632568,0.043446254,0.018814035,0.055937767
153,194493557,15.45399475,-15.70308971,-165.9625549,0.040292934,0.017590959,0.041394234
154,194510224,15.46093464,-15.70105457,-165.9593048,0.03135297,0.013499862,0.05102825
155,194526891,15.46342564,-15.69806957,-165.9579468,0.03357285,-0.014841065,0.06311035
156,194543558,15.46442413,-15.69489765,-165.9557037,0.04087827,-0.017307097,0.044511795
157,194560225,15.46805477,-15.69313526,-165.9551086,0.042003784,-0.043726075,0.090530396
158,194576892,15.47558022,-15.69375324,-165.9560852,0.025985518,-0.061221275,0.06644344
159,194593559,15.47711658,-15.69347668,-165.957901,0.044572435,-0.06517699,0.038871765
160,194610226,15.47328186,-15.69316196,-165.9590607,0.071238734,-0.04283746,0.044794083
161,194626893,15.46681023,-15.69274902,-165.9584045,0.06595755,-0.014392418,0.069241524
162,194643560,15.45697594,-15.69277287,-165.9539642,0.06436002,-0.03206313,0.04346943
163,194660227,15.4438448,-15.6899929,-165.9515533,0.05082004,-0.026412861,0.07671738
164,194676894,15.43755913,-15.69074631,-165.9513397,0.045408487,0.015134733,0.07950878
165,194693561,15.43651772,-15.69378376,-165.9523468,0.03806948,-0.001373557,0.0687561
166,194710228,15.43740273,-15.69548798,-165.9560242,0.04205716,-0.00571612,0.053996086
167,194726895,15.43612862,-15.694911,-165.9586182,0.010441617,-0.01350869,0.039403915
168,194743562,15.42926121,-15.69436264,-165.9593201,0.012530164,0.017640704,0.050718307
169,194760229,15.42403412,-15.69277859,-165.960907,-0.002559168,0.053114936,0.06511116
170,194776896,15.42251968,-15.69296265,-165.9617615,0.014049452,0.05547386,0.06180477
171,194793563,15.4240036,-15.69177628,-165.9635773,0.029628485,0.035799775,0.05153656
172,194810230,15.42666912,-15.6904335,-165.964325,0.018807022,0.017952658,0.05988884
173,194826897,15.43143463,-15.69030094,-165.9672852,0.02536759,0.015534709,0.05744362
174,194843564,15.4363203,-15.6896553,-165.9720001,0.032937344,0.029657418,0.05266285
175,194860231,15.44310188,-15.68856525,-165.9747162,0.048499685,0.001355732,0.06872749
176,194876898,15.45061207,-15.68615818,-165.9747314,0.025830932,-0.007103367,0.057271004
177,194893565,15.45759964,-15.68446445,-165.9737701,0.02382922,-0.006573474,0.040128708
178,194910232,15.46145153,-15.68305397,-165.9701385,0.030377338,-0.030775402,0.05819702
179,194926899,15.45819378,-15.68033218,-165.9656372,0.03674422,-0.05390695,0.04592228
180,194943566,15.45219707,-15.67872143,-165.960022,0.051570978,-0.058648404,0.047260284
181,194960233,15.44742775,-15.67708397,-165.9588013,0.05349654,-0.07311696,0.0661993
182,194976900,15.4431448,-15.67674637,-165.9598389,0.0378351,-0.05938802,0.07770252
183,194993567,15.43918991,-15.67779922,-165.9617615,0.043896295,0.005434648,0.04746151
184,195010234,15.43738174,-15.67838478,-165.965683,0.039430466,0.005331818,0.048496246
185,195026901,15.44146442,-15.67833424,-165.9687958,0.017522326,0.004915134,0.054512024
186,195043568,15.44450092,-15.67779827,-165.972168,0.01861226,0.03907505,0.055924416
187,195060235,15.44428539,-15.67808437,-165.9733276,0.024241433,0.027653778,0.053131104
188,195076902,15.44535446,-15.67690277,-165.9713287,0.039286915,0.050892323,0.046741486
189,195093569,15.44839954,-15.67464924,-165.9658813,0.02246628,0.030989094,0.049554825
190,195110236,15.44582558,-15.67090321,-165.9581757,0.032852564,0.019031277,0.06878853
191,195126903,15.44425297,-15.66765118,-165.9546967,0.026962563,0.008131639,0.07866001
192,195143570,15.44864178,-15.66697502,-165.9529114,0.02771826,0.012080233,0.06540966
193,195160237,15.45560169,-15.66769218,-165.9530945,0.020326184,0.005205505,0.041012764
194,195176904,15.46243,-15.66874123,-165.9537354,0.01627479,-0.038264733,0.055091858
195,195193571,15.4683094,-15.66818905,-165.9554291,0.025672782,-0.06593857,0.054163933
196,195210238,15.46773338,-15.6668539,-165.9564972,0.035934094,-0.045118365,0.045279503
197,195226905,15.46114635,-15.66340446,-165.9558105,0.041866325,-0.029795073,0.050130844
198,195243572,15.4565649,-15.66311169,-165.9544373,0.05423469,-0.030023672,0.070376396
199,195260239,15.45187569,-15.6623373,-165.9537354,0.04548177,-0.024954664,0.075107574
200,195276906,15.44931412,-15.66312122,-165.9550476,0.032494508,0.012768527,0.061694145
201,195293573,15.45179844,-15.66334343,-165.9551392,0.045567587,0.027272059,0.034992218
202,195310240,15.4542408,-15.66293526,-165.9542999,0.030680995,0.024494687,0.04502678
203,195326907,15.45480537,-15.6618185,-165.9547119,0.027062766,-0.01711855,0.06581974
204,195343574,15.45253849,-15.65998173,-165.955719,0.02429748,-0.021532623,0.058960915
205,195360241,15.45118237,-15.66070557,-165.9565582,0.030261992,-0.011476007,0.08193493
206,195376908,15.44957924,-15.66210556,-165.9570923,0.02606995,-0.021117393,0.07188702
207,195393575,15.44405651,-15.66094589,-165.9594421,0.026183747,-0.022504514,0.049221992
208,195410242,15.4433279,-15.659585,-165.9622803,0.04175986,-0.007669847,0.061545372
209,195426909,15.44197369,-15.65981197,-165.9647217,0.026113046,0.010741446,0.034980774
210,195443576,15.44058514,-15.65878582,-165.9665833,0.033277977,0.017933255,0.0524683
211,195460243,15.43811131,-15.65730381,-165.9694672,0.044229038,-0.014924617,0.072203636
212,195476910,15.43587589,-15.65800095,-165.9718781,0.029839497,-0.004172233,0.07231617
213,195493577,15.43220139,-15.66162872,-165.9772186,0.019521886,0.006511729,0.052660942
214,195510244,15.43146515,-15.66355991,-165.9811707,0.02044776,-0.028538847,0.03835869
215,195526911,15.42951393,-15.66469955,-165.98703,0.042067472,-0.049486175,0.060790062
216,195543578,15.4277792,-15.66340637,-165.9880219,0.04945344,-0.014096767,0.058059692
217,195560245,15.42437077,-15.66326523,-165.9880219,0.054720707,-0.012690926,0.05866146
218,195576912,15.42176342,-15.66247749,-165.9907532,0.016534148,-0.07982824,0.040953636
219,195593579,15.41638279,-15.66170406,-165.9997101,-0.039227657,-0.14261761,0.070801735
220,195610246,15.41698551,-15.66236305,-166.0171509,-0.043875497,-0.12899919,0.09374523
221,195626913,15.42616558,-15.66305828,-166.0429382,0.009321119,-0.050229356,0.073797226
222,195643580,15.43543911,-15.66082001,-166.0702667,0.042366058,-0.059250854,0.036816597
223,195660247,15.44087601,-15.65822124,-166.1012421,-0.014399123,-0.3020497,0.052880287
224,195676914,15.43145657,-15.65477657,-166.1481628,-0.11125809,-0.57857335,0.1142025
225,195693581,15.41302681,-15.65439606,-166.2311707,-0.20136158,-0.6393433,0.13453579
226,195710248,15.38447857,-15.65884209,-166.3612976,-0.13420582,-0.540587,0.07401943
227,195726915,15.34305668,-15.66212082,-166.515152,-0.027404295,-0.37000075,0.022659302
228,195743582,15.23265553,-15.66976166,-166.6635132,0.012528348,-0.41142473,-0.057427406
229,195760249,15.03757858,-15.67002201,-166.7975311,-0.21905173,-0.4641671,0.17258644
230,195776916,14.77625084,-15.6942606,-166.9482727,-0.33029935,-0.17870983,0.056046486
231,195793583,14.52242374,-15.68969727,-167.0760651,-0.11315957,0.002098591,-0.1005106
232,195810250,14.34735584,-15.65241337,-167.1672821,0.103702314,0.14291269,0.057865143
233,195826917,14.1870985,-15.62891388,-167.2394409,0.06791192,-0.002471006,0.17887402
234,195843584,13.98746777,-15.62665653,-167.3012085,0.002020152,-0.14266764,0.10510731
235,195860251,13.8048563,-15.61579514,-167.3610992,0.06731267,0.030563204,-0.013627052
236,195876918,13.62249565,-15.58924294,-167.4157562,0.12434692,0.15084419,-0.043546677
237,195893585,13.43810654,-15.56172562,-167.4766235,0.20871712,0.24234772,0.024368286
238,195910252,13.28364277,-15.53935528,-167.5360718,0.3249142,0.25398028,-0.0349226
239,195926919,13.14274788,-15.51259613,-167.5810852,0.41458678,0.16034104,-0.04122162
240,195943586,12.98617363,-15.48403549,-167.6190033,0.285599,0.09936451,-0.049839973
241,195960253,12.81402683,-15.4579134,-167.6582642,0.17941894,0.028717462,0.009971619
242,195976920,12.62322807,-15.44007015,-167.710968,0.15921344,0.06573928,0.05199337
243,195993587,12.44941998,-15.42090416,-167.7766113,0.15296112,0.11008868,0.082325935
244,196010254,12.29443836,-15.40024662,-167.8448944,0.1316696,0.16264403,0.10655403
245,196026921,12.14865494,-15.37688351,-167.9135132,0.123600245,0.24085309,0.042835236
246,196043588,12.00787544,-15.35150909,-167.9794922,0.060211807,0.43277884,0.026908875
247,196060255,11.87495708,-15.33360958,-168.0367737,0.023606502,0.50116354,0.09081268
248,196076922,11.76256752,-15.32555485,-168.0896606,-0.052504282,0.41337764,0.06350994
249,196093589,11.67629337,-15.310853,-168.1365356,-0.13041145,0.382441,0.049238205
250,196110256,11.61004829,-15.28676796,-168.1819916,-0.123771876,0.40506503,0.09274769
251,196126923,11.55252647,-15.25630856,-168.222702,-0.10826727,0.4372133,0.06919956
252,196143590,11.50639248,-15.22502327,-168.2529755,-0.03816144,0.4319389,0.023822784
253,196160257,11.48530388,-15.18859768,-168.2730103,0.026926592,0.3336609,-0.043236732
254,196176924,11.47353745,-15.13977718,-168.2861176,0.027962072,0.25182033,-0.0169096
255,196193591,11.46227932,-15.09043026,-168.3031921,-0.03690681,0.15964025,0.10497761
256,196210258,11.43647957,-15.05373192,-168.3377991,-0.12504779,0.053058594,0.17698097
257,196226925,11.39249229,-15.03009987,-168.3797607,-0.115200795,0.05214722,0.10534668
258,196243592,11.36307049,-15.00442505,-168.4110413,-0.014710799,0.12133338,0.010936737
259,196260259,11.35010529,-14.97050476,-168.4301605,0.05581299,0.0860031,-0.018799782
260,196276926,11.34892368,-14.9305048,-168.4522095,0.032194834,-0.06494131,0.04238701
261,196293593,11.35853958,-14.88902378,-168.4871063,0.021820216,-0.14267015,0.07500839
262,196310260,11.36773777,-14.85253525,-168.5299683,0.071971044,-0.07923963,0.07157421
263,196326927,11.37202549,-14.81765175,-168.5666046,0.10302838,-0.05644455,0.09225464
264,196343594,11.36383724,-14.79323864,-168.5946045,0.07396384,-0.1184726,0.16074562
265,196360261,11.34588814,-14.77567863,-168.6227875,-0.010865998,-0.16984148,0.08126545
266,196376928,11.3116188,-14.75419044,-168.6536102,0.029495329,-0.23416348,0.024038315
267,196393595,11.27726173,-14.73011589,-168.6902008,0.067578,-0.2207409,0.04826832
268,196410262,11.22537613,-14.71475315,-168.7328796,0.08904467,-0.07778108,0.059732437
269,196426929,11.15953255,-14.7067461,-168.7695465,0.11580253,0.029852243,0.09478855
270,196443596,11.09356022,-14.69928741,-168.7946014,0.10063258,0.10352976,0.058300972
271,196460263,11.03349018,-14.68323326,-168.8095245,0.04894708,0.11932136,0.09144974
272,196476930,10.98184395,-14.67302895,-168.8244476,0.014921062,0.10625525,0.08193016
273,196493597,10.93450451,-14.66631699,-168.8416595,0.03960586,0.116143644,0.09476471
274,196510264,10.89070988,-14.66973209,-168.8547974,0.13282184,0.16193749,0.1111536
275,196526931,10.86371517,-14.67634869,-168.8621216,0.14761059,0.22825812,0.043442726
276,196543598,10.84174824,-14.67627716,-168.8689728,0.10177783,0.18478878,0.09218216
277,196560265,10.80987644,-14.68012428,-168.8788452,-0.03531539,0.09900329,0.14987373
278,196576932,10.77369976,-14.68771076,-168.8857574,-0.085999414,0.1013674,0.072029114
279,196593599,10.74978542,-14.69114494,-168.8812714,-0.054359112,0.16531022,-0.00483036
280,196610266,10.74452019,-14.68925285,-168.8671265,0.01725833,0.23139606,-0.004024506
281,196626933,10.74396706,-14.68910217,-168.8551025,0.03529142,0.16696219,0.050849915
282,196643600,10.73936462,-14.69190979,-168.8486481,0.013698215,0.061169572,0.08398533
283,196660267,10.7341013,-14.69306374,-168.8460541,-0.015585453,0.064668976,0.049930573
284,196676934,10.73511219,-14.69738197,-168.843277,0.08050773,0.12694335,0.052838326
285,196693601,10.75027943,-14.70405197,-168.8343353,0.08069569,0.10447946,0.12943554
286,196710268,10.75965595,-14.71358204,-168.8317413,-2.64E-05,-0.07961369,0.112457275
287,196726935,10.75285625,-14.72412968,-168.8411102,-0.06907572,-0.19641644,0.061437607
288,196743602,10.73575592,-14.73492241,-168.8622894,-0.044848923,-0.21235606,-0.017315865
289,196760269,10.71040344,-14.73670673,-168.8911438,-0.033450305,-0.10952832,-0.03745556
290,196776936,10.68923283,-14.72655869,-168.921402,-0.01718117,0.023955643,-0.046753883
291,196793603,10.68714619,-14.69891357,-168.9483032,0.07423284,0.14993063,0.03522396
292,196810270,10.69379425,-14.67241573,-168.978302,0.12193886,0.138322,0.17940998
293,196826937,10.70528984,-14.65942383,-169.020401,0.09800248,0.124772444,0.20290661
294,196843604,10.71598721,-14.65986729,-169.0803986,0.09975377,0.20429367,0.096279144
295,196860271,10.75105381,-14.65526772,-169.1503754,0.14446054,0.31816936,0.019159317
296,196876938,10.81370258,-14.64681625,-169.2221527,0.14172852,0.40486404,0.04776287
297,196893605,10.88207054,-14.63961887,-169.2773285,0.14288354,0.42708787,0.10204029
298,196910272,10.94923973,-14.64236832,-169.3015747,0.14069137,0.46533626,0.070884705
299,196926939,11.03020763,-14.63621235,-169.2979126,0.10165784,0.32931235,0.08540058
300,196943606,11.11737061,-14.62705326,-169.2756958,-0.015092013,0.17226726,0.08434677
301,196960273,11.20823765,-14.62377167,-169.2425537,-0.097815804,0.1156837,0.07011318
302,196976940,11.31046009,-14.6187582,-169.2023468,-0.11441119,0.10323322,0.057816505
303,196993607,11.43016911,-14.61640549,-169.1462097,-0.03188563,0.09656359,0.086304665
304,197010274,11.57640266,-14.61513805,-169.0715027,-0.051754884,0.06973495,0.1573515
305,197026941,11.73997879,-14.61557579,-168.9820862,-0.17032945,-0.03203227,0.174963
306,197043608,11.88149357,-14.62330341,-168.8750763,-0.21137045,-0.20899272,0.17572594
307,197060275,12.00350475,-14.63688183,-168.7510223,-0.16565375,-0.07986782,0.15637016
308,197076942,12.13210678,-14.64608574,-168.6340179,-0.09091392,0.1459397,0.11758232
309,197093609,12.26742935,-14.68310547,-168.5537415,-0.09239267,0.26800832,0.006464958
310,197110276,12.37388039,-14.73640442,-168.5078888,-0.25813702,0.41254222,-0.16727352
311,197126943,12.45970821,-14.74761963,-168.4592285,-0.33790314,0.32566386,-0.28796005
312,197143610,12.54934406,-14.6731863,-168.3887482,-0.19022462,-0.08021831,-0.1272955
313,197160277,12.6263237,-14.55996227,-168.3128357,0.054869663,-0.22475657,0.27825928
314,197176944,12.61837482,-14.4972477,-168.2832489,0.21029617,-0.30264595,0.573863
315,197193611,12.53619289,-14.52715874,-168.3276825,0.39994502,-0.19880393,0.4955473
316,197210278,12.50620556,-14.5982151,-168.4113312,0.44902214,0.33916092,0.24061203
317,197226945,12.58778477,-14.64725399,-168.4971313,0.39866087,0.4520054,0.3568983
318,197243612,12.74716663,-14.68099689,-168.5867004,0.17869416,-0.061733272,0.37646866
319,197260279,12.82879829,-14.75874805,-168.6642609,0.054304652,-0.15588713,-0.22838306
320,197276946,12.80450153,-14.86511612,-168.699173,0.2775181,0.045259908,-0.94599533
321,197293613,12.76914406,-14.9586792,-168.6768646,0.5370034,0.03557852,-1.344451
322,197310280,12.74308491,-15.01861763,-168.5799713,0.7531167,-0.1397913,-0.036646843
323,197326947,12.63669777,-15.08729553,-168.4636841,-0.701526,-0.7681122,0.806468
324,197343614,12.46568012,-15.21021461,-168.358551,-1.217387,-0.8684483,-0.39038563
325,197360281,12.24204063,-15.25887966,-168.2518768,-0.37522456,0.00811623,-0.32131672
326,197376948,12.09687901,-15.32800865,-168.2033539,-0.39224306,0.26531044,-0.25357628
327,197393615,12.06619358,-15.36902714,-168.1825409,-0.58182913,-0.3254332,0.1910696
328,197410282,12.12122536,-15.36556911,-168.2085114,-0.79011416,-0.5081814,0.5637579
329,197426949,12.26948452,-15.31119633,-168.3204956,-0.6223129,-0.46541977,0.6586075
330,197443616,12.48319244,-15.24780846,-168.5162811,-0.17030282,-0.4597542,0.4395647
331,197460283,12.73142719,-15.20323753,-168.7422791,0.46707928,-0.59752953,0.19420147
332,197476950,12.9284277,-15.20799541,-168.971405,0.1755513,-1.1543069,0.14733315
333,197493617,13.05219746,-15.2423439,-169.2240295,-0.47881302,-1.5635347,0.22711563
334,197510284,13.111022,-15.31770992,-169.5295563,-0.9245627,-1.1674132,-0.034872055
335,197526951,13.13162231,-15.41025734,-169.8598938,-0.5355301,-0.5353575,-0.3800888
336,197543618,13.1042757,-15.472435,-170.1495209,0.29848436,-0.09873141,-0.12114239
337,197560285,13.00204086,-15.51150322,-170.3756866,1.1464758,0.12981988,0.53209305
338,197576952,12.84714413,-15.59594154,-170.5516968,1.6052352,0.51214063,0.4673977
339,197593619,12.68416977,-15.73931599,-170.6719971,1.7827783,1.3884423,-0.36267185
340,197610286,12.31290913,-16.00220108,-170.7302246,2.3393934,1.987034,-0.73643875
341,197626953,11.86113262,-16.29089355,-170.7431946,4.2458777,1.7535535,-0.45744896
342,197643620,11.85588646,-16.69925308,-170.8104858,4.798745,0.92740595,0.7310085
343,197660287,10.47294903,-17.09646988,-170.9616089,2.5108936,0.023685804,-2.9997587
344,197676954,9.22998333,-17.58773994,-171.134491,2.0912535,4.3122907,-0.024456978
345,197693621,8.840198517,-18.09270096,-171.3424072,1.1545801,3.2277997,-1.9002094
346,197710288,8.971681595,-18.57078552,-171.6803436,1.2273915,1.2691616,1.9301863
347,197726955,9.045583725,-19.23176384,-171.9825745,-0.5316843,-2.0513601,1.591444
348,197743622,9.113704681,-20.022295,-172.2000275,-1.6510639,-0.8662393,1.3471899
349,197760289,9.383626938,-20.94470787,-172.5054779,-1.0694739,0.600645,0.6134834
350,197776956,9.791138649,-21.91639709,-172.7634583,0.12639885,-0.7743507,1.1601667
351,197793623,10.15518093,-22.97092819,-172.9902802,-0.022672169,-1.6715778,1.3073416
352,197810290,10.46891117,-24.15436363,-173.2068634,0.39533836,-1.3899604,0.853961
353,197826957,10.68519974,-25.39779472,-173.4441376,0.024437238,-0.7064582,0.6303663
354,197843624,10.88864803,-26.73078156,-173.7025604,-0.23744774,0.07211144,0.7764149
355,197860291,11.08533096,-28.11884499,-173.8955841,-1.0269388,1.0466785,0.58447456
356,197876958,11.36840439,-29.51973915,-173.9912567,-0.9400887,1.2429749,0.24344921
357,197893625,11.78168106,-30.87762833,-174.0182037,-0.92942566,0.92419744,0.15006447
358,197910292,12.29085541,-32.25042343,-174.0336761,-0.91501933,0.18723549,0.46246338
359,197926959,12.78155136,-33.69430542,-174.0647736,-0.8453429,-1.049108,0.5166931
360,197943626,13.24813271,-35.19330215,-174.1144562,-1.0963118,-1.3998766,0.38332367
361,197960293,13.70943356,-36.71962357,-174.1665039,-1.0412621,-1.3966297,-0.13220406
362,197976960,14.20148945,-38.24734879,-174.2210999,-0.61132103,-0.9835197,-0.2657547
363,197993627,14.76165104,-39.75160599,-174.3073578,-0.35888273,-0.79019135,-0.09901619
364,198010294,15.38816547,-41.25402451,-174.4852448,-0.2107797,-1.0290378,-0.1899805
365,198026961,16.07258415,-42.73062134,-174.7301483,0.07124167,-0.771767,-0.33071327
366,198043628,16.72634125,-44.20545578,-174.9710388,-0.14049745,-0.7243306,-0.47176456
367,198060295,17.31035042,-45.68949127,-175.1894836,-0.23021941,0.013642142,-0.37423038
368,198076962,17.84794617,-47.18219376,-175.411499,-0.00163029,0.21992068,-0.29333115
369,198093629,18.39282799,-48.6409111,-175.6426239,-0.045231186,0.5057992,-0.1344204
370,198110296,18.98104095,-50.06925201,-175.8988342,-0.18447646,0.76940936,-0.30084705
371,198126963,19.67278862,-51.49559402,-176.1999512,0.001292212,1.0461113,-0.36768246
372,198143630,20.43659592,-52.94886398,-176.5274658,-1.78E-05,0.71256626,-0.34324932
373,198160297,21.20903206,-54.40272903,-176.8269806,-0.28794473,0.57280034,-0.32261086
374,198176964,21.955513,-55.82952499,-177.0983276,-0.11346392,0.4503368,-0.13103199
375,198193631,22.73007774,-57.21500778,-177.3811798,0.14297993,0.13849343,-0.118270874
376,198210298,23.51707458,-58.59664536,-177.6974487,0.49725842,0.31188914,0.009327889
377,198226965,24.34783363,-59.96263504,-178.0210266,0.31975877,0.6561477,-0.24012947
378,198243632,25.25845718,-61.29426956,-178.3399963,0.5574838,0.65045756,-0.3544159
379,198260299,26.2552948,-62.59410858,-178.6581726,0.6552131,0.36454013,-0.4733038
380,198276966,27.30169487,-63.91038895,-178.997818,0.6849324,-0.110712335,-0.260005
381,198293633,28.35058022,-65.2109375,-179.3698425,0.3227493,-0.3730723,-0.13650703
382,198310300,29.37084579,-66.4634552,-179.7352295,-0.22168897,-0.3078222,-0.06816387
383,198326967,30.46821404,-67.7358551,179.78862,-0.013618281,-0.43054116,0.20566559
384,198343634,31.65807343,-68.99001312,179.2113495,-0.5209477,-0.30912405,0.22087002
385,198360301,32.9127655,-70.25646973,178.6147614,-1.432278,0.27140048,-0.2011509
386,198376968,34.26564026,-71.51009369,178.0166626,-1.2281216,0.19442499,-0.22056198
387,198393635,35.77464676,-72.721138,177.2803345,-0.8572948,-0.6024931,0.25025082
388,198410302,37.38602066,-73.88302612,176.3070374,-0.7852865,-0.9586586,0.43251514
389,198426969,39.15074158,-75.030159,174.9668121,-0.7761549,-0.9031345,0.1384058
390,198443636,41.00133514,-76.15731049,173.424469,-0.71806407,-0.28998134,0.104691505
391,198460303,42.76374817,-77.23996735,171.9450073,-0.6351382,0.39091232,0.36993408
392,198476970,44.68480301,-78.24652863,170.3561707,-1.0797744,0.40189976,0.31586838
393,198493637,46.95480347,-79.190979,168.4623718,-0.11294744,-0.045552053,0.38358974
394,198510304,49.36257172,-80.09315491,166.3984985,-0.35732543,-0.420991,0.11580372
395,198526971,51.69870758,-80.899086,164.3198242,0.11644597,-0.3146642,0.35037518
396,198543638,53.91755676,-81.63118744,162.3054962,-0.28187028,-0.011480408,0.61678696
397,198560305,56.42118835,-82.3106842,159.9773407,-0.6238404,0.25393072,0.34988403
398,198576972,59.35532761,-82.95121765,157.2158356,-0.8502104,-0.33057085,-0.077445984
399,198593639,62.71989822,-83.57389832,154.0124969,-0.66172606,-0.6166463,-0.1380024
400,198610306,66.18282318,-84.15910339,150.6567841,-0.68374413,-0.87087655,0.12647915
401,198626973,69.82130432,-84.70210266,147.0410309,-0.39565557,-0.8981544,0.5547533
402,198643640,74.20644379,-85.20719147,142.6179962,-0.5122702,-0.54858977,0.54760456
403,198660307,79.2964859,-85.66423798,137.4747314,-0.63267094,-0.5686221,0.31191063
404,198676974,84.37770081,-86.04557037,132.3180695,-0.092760555,-0.58694446,0.29296875
405,198693641,89.06328583,-86.36600494,127.5420532,0.13629815,-0.15271087,0.3063488
406,198710308,93.54569244,-86.63233185,122.9999847,0.2066199,0.24071005,0.47794724
407,198726975,96.91121674,-86.86375427,119.6436996,0.15987971,0.22000358,0.5562029
408,198743642,99.49113464,-87.06816101,117.1474457,0.3321593,0.335483,0.66964245
409,198760309,102.1330109,-87.21920013,114.65802,0.15707982,0.489872,0.22319794
410,198776976,103.8995895,-87.34170532,113.1314697,0.16546194,0.04439213,0.111561775
411,198793643,103.2657242,-87.45439911,113.9431763,0.43844247,-0.6119076,0.30667782
412,198810310,102.4222946,-87.53717041,114.8021774,0.68863595,-0.7438635,0.3572054
413,198826977,102.6520309,-87.61566925,114.5455322,0.37462834,0.018891428,0.09442425
414,198843644,102.788887,-87.72076416,114.4779129,0.17871957,0.4716396,-0.15616703
415,198860311,102.6013336,-87.84751129,114.8207245,0.12228545,0.062285572,-0.18253899
416,198876978,101.6440201,-87.99250031,115.9823761,-0.14049695,-0.11013277,0.21758652
417,198893645,100.984108,-88.10153198,116.7934494,-0.041123703,-0.27677676,0.45587826
418,198910312,101.3373795,-88.17855835,116.5190277,0.30445835,-0.09778703,0.28231716
419,198926979,101.3675613,-88.26584625,116.4715729,0.39697337,0.1330528,0.13110924
420,198943646,101.6304245,-88.36901855,116.1759338,0.3898536,0.35546136,0.028461456
421,198960313,102.1602097,-88.4830246,115.6620941,0.36043257,0.4676604,0.21792698
422,198976980,103.5650406,-88.58087158,114.3565292,0.1985988,-0.021180088,0.36796474
423,198993647,104.9949036,-88.65695953,113.0534973,0.35912678,-0.34887344,0.29028702
424,199010314,105.876297,-88.71138763,112.2292328,0.41447762,-0.16893981,0.10147953
425,199026981,105.5492935,-88.7742691,112.5618057,0.3550847,-0.13522321,0.14361
426,199043648,105.2885742,-88.8370285,112.799881,0.2539562,-0.1796491,0.1376772
427,199060315,104.5427094,-88.90335846,113.4786682,-0.041623812,-0.20827809,0.18787384
428,199076982,102.8997269,-88.97550201,115.0266953,-0.06539626,-0.17807043,0.19432354
429,199093649,101.4659805,-89.05044556,116.3918915,-0.29598084,-0.21966037,0.10811901
430,199110316,99.83418274,-89.12620544,117.9735947,-0.45770273,-0.31416065,0.07764053
431,199126983,96.06387329,-89.20230103,121.6931534,-0.36949015,-0.10740535,0.20414639
432,199143650,89.15300751,-89.27127075,128.5836334,-0.0541378,-0.14041229,0.3071518
433,199160317,79.67786407,-89.30451202,137.9928741,0.17466576,-0.21859701,0.28343868
434,199176984,70.18456268,-89.29946899,147.3982544,0.39244673,-0.19046791,0.21513748
435,199193651,60.52961349,-89.26805115,156.923172,0.7560647,-0.3304191,-0.04314518
436,199210318,49.63824463,-89.22267151,167.6504059,0.8369875,-0.36608046,-0.023708344
437,199226985,38.62412643,-89.13339996,178.4439087,0.48164845,-0.19684552,0.18535614
438,199243652,30.32069969,-89.00201416,-173.4204254,0.2243369,-0.3319573,0.111260414
439,199260319,24.47621727,-88.83820343,-167.7174377,0.36281678,-0.44252414,-0.059378624
440,199276986,18.25919533,-88.66529083,-161.5964661,-0.010652293,-0.073549286,0.15008163
441,199293653,11.79305935,-88.46865082,-155.1144562,-0.475549,0.5727574,0.81101036
442,199310320,7.597956181,-88.28959656,-150.7031708,-1.0981449,0.83804107,0.7344246
443,199326987,5.444325447,-88.12633514,-148.1648712,-1.0828177,0.46333173,0.22065258
444,199343654,4.055267811,-87.96125793,-146.3193817,-0.6445066,-0.09980379,0.03169155
445,199360321,3.263431787,-87.78955078,-145.0872803,-0.137053,-0.325011,0.16142082
446,199376988,3.265351057,-87.6188736,-144.701004,0.18877022,-0.092497036,0.081650734
447,199393655,3.661296368,-87.43914032,-144.697403,0.24351753,0.08077792,-0.084952354
448,199410322,4.073503494,-87.26133728,-144.6216278,0.18990873,0.3372149,0.047953606
449,199426989,4.415529728,-87.08670807,-144.4208221,0.01597816,0.23248108,0.29089928
450,199443656,4.656783581,-86.92420197,-144.1372528,-0.15553445,0.12615283,0.42682552
451,199460323,4.795661449,-86.77414703,-143.7492371,-0.33322737,0.34355786,0.38724422
452,199476990,4.880926132,-86.62768555,-143.2795715,-0.5100918,0.4115865,0.3017559
453,199493657,4.954227924,-86.48832703,-142.7477112,-0.5821431,0.25213397,0.14528084
454,199510324,5.212499142,-86.3797226,-142.4172668,-0.2693876,0.062463153,0.033974648
455,199526991,5.670589924,-86.30133057,-142.3561859,0.017974911,-0.2063799,0.06417847
456,199543658,6.242885113,-86.2419281,-142.4866486,0.2242923,-0.13989866,0.19038391
457,199560325,7.06692028,-86.19496918,-142.9541321,0.21859908,-0.067635246,0.2205267
458,199576992,8.388370514,-86.14425659,-143.9680786,0.6428759,-0.036852594,0.08688831
459,199593659,9.847614288,-86.10494232,-145.1418152,0.40493926,0.1314293,0.047192574
460,199610326,11.2624445,-86.06488037,-146.2514343,0.42475954,0.42311853,0.14189434
461,199626993,12.67795181,-86.01356506,-147.350708,0.47273353,0.42407906,0.29147148
462,199643660,14.11809254,-85.95436859,-148.4806671,0.32166654,0.24401177,0.28763485
463,199660327,15.53473949,-85.89668274,-149.637146,0.25797233,0.08993077,0.22691536
464,199676994,16.80447769,-85.86312866,-150.6633148,0.026376428,-0.071286775,0.102993965
465,199693661,18.02277946,-85.81124115,-151.6488037,-0.3532986,0.06921448,0.09211731
466,199710328,19.08644867,-85.77108002,-152.4398651,-0.54615515,-0.019989211,0.1251545
467,199726995,20.15221024,-85.74531555,-153.2149658,-0.3811884,-0.24967101,0.13087082
468,199743662,21.3502121,-85.72822571,-154.1619568,-0.070830025,-0.50025374,0.018288612
469,199760329,22.45327759,-85.72900391,-155.0918732,0.1306758,-0.36276388,0.024201393
470,199776996,23.46544838,-85.73887634,-156.0029297,0.21739244,-0.13651925,0.19042873
471,199793663,24.56271362,-85.73685455,-157.0404053,0.4779863,-0.12123935,0.21920776
472,199810330,25.73433685,-85.745224,-158.1734924,0.5739023,0.033704523,0.090605736
473,199826997,26.85552979,-85.76955414,-159.2691193,0.25238252,0.21022801,0.1706543
474,199843664,27.60689926,-85.79508972,-159.9467316,-0.33946544,0.170069,0.21553326
475,199860331,28.1462326,-85.8184967,-160.3835602,-0.031791814,-0.47330543,0.08543301
476,199876998,28.85388184,-85.85433197,-161.0526886,0.3758767,-1.0958582,0.088495255
477,199893665,29.95052338,-85.92282867,-162.2174377,0.27509657,-0.9832183,0.12782383
478,199910332,31.21032524,-86.0047226,-163.6082916,0.3012193,-0.75346416,0.21646404
479,199926999,32.41368866,-86.06876373,-164.9819336,0.69117856,-0.4775894,0.32909775
480,199943666,33.54178238,-86.11058044,-166.3316193,0.8893471,-0.17537564,0.32617092
481,199960333,34.64238358,-86.14131165,-167.7003326,0.6693036,0.36375785,0.3122406
482,199977000,35.74501038,-86.15473175,-169.0288391,0.41638374,0.67546386,0.11101341
483,199993667,36.6240387,-86.13466644,-169.9467468,0.21146695,0.5196047,0.11038399
484,200010334,37.37084961,-86.08119202,-170.5662689,-0.126805,-0.23887612,0.094516754
485,200027001,37.93201447,-86.03888702,-170.9146881,-0.7565996,-1.0670941,-0.007092476
486,200043668,37.99116898,-86.00948334,-170.8483734,-0.12943394,-1.16987,0.11580181
487,200060335,38.16630173,-86.02083588,-171.0194855,0.12182255,-1.2747189,0.41268063
488,200077002,38.51094818,-86.09957123,-171.4100952,-1.7008634,-0.1551133,0.17456913
489,200093669,38.29432297,-86.18700409,-171.1938782,-1.6569747,-0.10456987,-0.10470295
490,200110336,37.73526382,-86.24756622,-170.670929,-0.21780354,-0.24631585,-0.10865784
491,200127003,36.96784973,-86.28279877,-169.9652557,0.35059276,0.003855375,0.26865387
492,200143670,36.47513962,-86.28659058,-169.52005,0.5264808,-0.10954716,0.5992546
493,200160337,36.4337883,-86.25027466,-169.4970245,0.9634184,-0.2293994,0.6042814
494,200177004,36.70447159,-86.19353485,-169.7622833,0.9236135,-0.2068152,0.37948704
495,200193671,36.9574585,-86.10509491,-169.9604797,0.7306066,-0.25344166,-0.07269192
496,200210338,36.76425552,-85.9834137,-169.6546021,0.4098235,-0.34636405,-0.27526283
497,200227005,36.23442841,-85.84772491,-168.9887848,0.03871334,-0.2212139,0.1272831
498,200243672,35.77788544,-85.71536255,-168.397995,-0.22517969,-0.045495056,0.5432873
499,200260339,35.57067108,-85.57685852,-168.0639038,-0.6130439,0.06110319,0.4452858
500,200277006,35.52858734,-85.40019226,-167.8835297,-0.41702852,-0.08955281,-0.036250114
501,200293673,35.48715591,-85.18793488,-167.6932068,-0.58978057,-0.23404858,0.063985825
502,200310340,35.48546219,-84.96865082,-167.5620575,-0.5132843,-0.2191493,0.3581133
503,200327007,35.44916534,-84.78541565,-167.4307709,-0.4445229,-0.102045625,0.483943
504,200343674,35.4220047,-84.65031433,-167.3891144,-0.56753993,0.14432019,0.43506813
505,200360341,35.39031982,-84.56567383,-167.3471832,-0.8758804,0.44529045,0.29428864
506,200377008,35.30714417,-84.50299835,-167.1976166,-1.0607765,0.48516718,0.026320457
507,200393675,35.12687683,-84.46070099,-166.8728638,-0.5427515,0.076469034,-0.17803192
508,200410342,34.78575516,-84.43627167,-166.3999329,-0.016001068,-0.09591723,-0.092051506
509,200427009,34.41640472,-84.4328537,-165.8969421,0.46924108,-0.34172794,0.17933655
510,200443676,34.26833725,-84.45574951,-165.6358337,0.5465679,-0.507512,0.21267986
511,200460343,34.23205185,-84.49227905,-165.584259,1.0656289,-0.77397007,-0.015778542
512,200477010,34.26231766,-84.54127502,-165.7055359,1.4244109,-0.7314082,-0.04727745
513,200493677,34.17303848,-84.58332825,-165.8041534,1.6430693,-0.14804336,0.1771841
514,200510344,34.02354431,-84.59516907,-165.9247437,1.4013301,0.25296706,0.47620583
515,200527011,33.93312073,-84.56296539,-166.1340332,0.9219672,0.30568862,0.4889326
516,200543678,33.93004608,-84.49221039,-166.3802338,0.2856264,0.19379713,0.24683571
517,200560345,33.93421936,-84.41131592,-166.5496674,-0.43209574,-0.15379792,-0.051550865
518,200577012,33.83684921,-84.35906982,-166.5279083,-0.720406,-0.53145224,-0.20675373
519,200593679,33.54974747,-84.3348999,-166.3092194,-0.7650958,-0.68603355,-0.04338169
520,200610346,33.18889999,-84.3369751,-166.0557861,-0.6053866,-0.6177271,0.14481926
521,200627013,32.77380753,-84.33739471,-165.7795715,-0.2113073,-0.28669548,0.31915092
522,200643680,32.40854263,-84.34057617,-165.5518494,-0.17814939,-0.114461206,0.38392162
523,200660347,32.0942688,-84.35205078,-165.3401184,-0.33747524,-0.05054388,0.27153397
524,200677014,31.77158928,-84.36650085,-165.0868225,-0.28476948,-0.020049894,0.18065262
525,200693681,31.50963974,-84.39366913,-164.8959656,-0.09320988,-0.120028354,0.080070496
526,200710348,31.17686653,-84.42185211,-164.6633301,0.06667648,-0.10727147,0.10533619
527,200727015,30.84971046,-84.45458221,-164.4521484,0.16736455,-0.1773829,0.16032219
528,200743682,30.46417809,-84.4881134,-164.2125092,0.17327127,-0.06295622,0.23924732
529,200760349,30.1505394,-84.52603912,-164.0784302,0.10632383,-0.14229785,0.21853065
530,200777016,29.92020798,-84.5682373,-164.0435486,0.062151633,-0.15722382,0.16748238
531,200793683,29.68486023,-84.61380768,-163.9997101,0.0477498,-0.06728578,0.2405262
532,200810350,29.52533722,-84.6623764,-163.9923401,-0.095437795,0.19407059,0.27855873
533,200827017,29.34243584,-84.70014191,-163.8673401,-0.28347662,0.2611054,0.14474773
534,200843684,29.14505577,-84.73069,-163.6483002,-0.17153485,0.019211274,0.0648365
535,200860351,28.86088562,-84.76972961,-163.3263397,0.080416724,-0.1343903,0.11527634
536,200877018,28.53226852,-84.81182861,-163.0198364,0.3639075,-0.14169258,0.13013935
537,200893685,28.25306892,-84.85722351,-162.8149109,0.38940108,-0.22143517,0.14650536
538,200910352,28.06972122,-84.92225647,-162.7657776,0.30361587,-0.19918625,0.17787743
539,200927019,27.96114922,-85.0096283,-162.8531189,0.27383974,-0.17261112,0.0958004
540,200943686,27.79206467,-85.09859467,-162.923584,0.29659894,-0.25570038,0.11414051
541,200960353,27.58579254,-85.18065643,-162.9794159,0.3435582,-0.18736923,0.20112133
542,200977020,27.46200562,-85.25872803,-163.1479492,0.20584,-0.11713062,0.17282009
543,200993687,27.42959404,-85.33990479,-163.4162598,0.16237652,-0.023651805,0.11653328
544,201010354,27.39013863,-85.42782593,-163.6853485,0.061353356,-0.013475708,0.18836498
545,201027021,27.40587425,-85.52740479,-164.0313721,0.08121427,-0.2877772,0.14773941
546,201043688,27.30488396,-85.63013458,-164.303833,0.1255565,-0.37174127,0.14564323
547,201060355,27.21728134,-85.73758698,-164.6239166,-0.088005655,-0.34020427,0.27155113
548,201077022,27.08805084,-85.8289032,-164.8868713,-0.106071144,-0.0570395,0.2514019
549,201093689,27.03565979,-85.89965057,-165.1658783,-0.18321693,0.095136836,0.23886585
550,201110356,27.04564857,-85.95838165,-165.4325562,-0.27507505,0.13245602,0.13720226
551,201127023,27.00292397,-86.0178833,-165.5871429,-0.20753603,0.1638445,0.15232182
552,201143690,26.83292007,-86.07215118,-165.5823975,-0.36323062,0.099506736,0.3076601
553,201160357,26.54463959,-86.13481903,-165.4324188,-0.5021802,0.14493407,0.29106998
554,201177024,26.24752617,-86.19919586,-165.2332001,-0.3134909,0.10000104,0.30558586
555,201193691,26.01003265,-86.25383759,-165.0700989,-0.10961986,0.049234428,0.2801113
556,201210358,25.8200798,-86.28959656,-164.9374847,-0.057031844,-0.018435907,0.24553871
557,201227025,25.81942368,-86.33013916,-164.9849548,-0.09296809,0.007505565,0.26269913
558,201243692,25.93235207,-86.38887024,-165.1660309,-0.053247437,-0.036387462,0.14548874
559,201260359,26.03216934,-86.47064209,-165.3276215,-0.029792992,-0.020096162,0.09451866
560,201277026,26.0364666,-86.56349945,-165.401001,0.16102114,0.1571362,0.04537964
561,201293693,25.7508297,-86.65052032,-165.1543579,0.35970464,0.13927159,0.024938583
562,201310360,25.28616905,-86.73043823,-164.7204285,0.41466978,-0.009751982,0.22306061
563,201327027,24.86630821,-86.81987,-164.3461151,0.13356636,-0.1699245,0.27727604
564,201343694,24.42967033,-86.91466522,-163.9724426,0.052071758,0.05143603,0.07108021
565,201360361,24.14253426,-86.99391174,-163.7598724,0.9458087,0.09606547,-0.2432766
566,201377028,23.81850624,-87.09828949,-163.5011902,0.4441026,-0.2881321,0.00137043
567,201393695,23.23235512,-87.24558258,-163.0234985,0.044850055,-0.37268728,0.40595722
568,201410362,22.72727013,-87.42139435,-162.7145386,0.09855413,-0.31305224,0.40850544
569,201427029,22.74214554,-87.61501312,-162.999527,0.24943247,-0.10187173,0.11649513
570,201443696,23.2931118,-87.81375885,-163.8687439,0.41252032,-0.2364349,-0.1282196
571,201460363,23.94207382,-88.03377533,-164.8978577,0.34560522,-0.15936674,-0.1261282
572,201477030,24.43065071,-88.24900055,-165.8344879,0.32651392,0.05731051,0.15481567
573,201493697,25.16128731,-88.44833374,-167.0665894,0.36714116,0.12522514,0.3642664
574,201510364,27.03569221,-88.64246368,-169.4307251,0.19802208,0.27006656,0.3943758
575,201527031,30.10703659,-88.82363892,-172.9193726,0.10845715,0.2619041,0.26992512
576,201543698,34.64906311,-88.99575043,-177.7827301,4.77E-04,0.22891158,0.17468357
577,201560365,41.04766083,-89.13861084,175.5868378,-0.0875812,0.14913645,0.05206871
578,201577032,48.39027023,-89.25297546,168.0514984,0.03087323,0.02153279,0.027885437
579,201593699,57.10309982,-89.35958862,159.1472321,-0.042335365,-0.002758038,0.25421238
580,201610366,70.08557892,-89.44928741,145.9463348,-0.16315429,-0.046108376,0.46972275
581,201627033,89.2663269,-89.50623322,126.5360565,-0.24723305,-0.17182659,0.3160782
582,201643700,112.4899063,-89.50111389,103.0600357,-0.26687092,-0.24279329,0.16072941
583,201660367,132.0734406,-89.42256927,83.19393921,-0.12570617,-0.27143446,0.15395355
584,201677034,145.6776428,-89.29975128,69.25949097,-0.14931786,-0.33729872,0.17543983
585,201693701,154.2890015,-89.1516571,60.27111816,-0.053581167,-0.1985527,0.41513062
586,201710368,158.4855499,-88.9870224,55.67814636,0.036004502,6.10E-04,0.3563404
587,201727035,161.2667999,-88.83534241,52.51459503,-0.07106097,0.30763718,0.2204771
588,201743702,162.8788605,-88.67721558,50.57249832,-0.1467509,0.43172434,0.33210468
589,201760369,163.4566803,-88.50904846,49.76718521,-0.29587018,0.4827225,0.23207569
590,201777036,163.1380005,-88.31425476,49.95344162,-0.22539043,0.19975017,0.1482296
591,201793703,162.5782013,-88.12028503,50.32630539,0.00935181,-0.2802858,-0.09590912
592,201810370,162.4006958,-87.93806458,50.15802002,0.04497416,-0.54756284,0.026439667
593,201827037,162.2237701,-87.76760864,49.83729172,0.43484855,-0.31879273,0.2005167
594,201843704,161.9147949,-87.59165955,49.59467316,0.6151207,0.1019218,0.13268185
595,201860371,160.8177948,-87.39608765,50.1495018,0.666254,0.21664473,0.35539532
596,201877038,159.0635986,-87.18826294,51.41794968,0.13373898,0.22421691,0.08479214
597,201893705,157.3953094,-86.97825623,52.64288712,-0.21992588,0.11358482,0.037757874
598,201910372,156.1526489,-86.77371979,53.46310806,-0.45948038,0.26230788,0.13317871
599,201927039,155.43573,-86.58815002,53.79175568,-0.6154962,0.10465849,-0.019721985
600,201943706,154.8693848,-86.42182159,53.96461487,-0.39295262,-0.19546801,-0.18830109
601,201960373,154.1717224,-86.26304626,54.19623184,-0.3434774,-0.3694973,-0.08682346
602,201977040,153.3605804,-86.10042572,54.51639938,-0.25668162,-0.21653354,-0.016961098
603,201993707,152.6255493,-85.94662476,54.81489944,-0.15283276,0.0922704,-0.023290634
604,202010374,152.1002502,-85.82364655,55.02412033,-0.20884648,-0.06501366,0.052392006
605,202027041,151.599823,-85.72988129,55.28659821,-0.048975084,-0.62655175,0.25715256
606,202043708,151.1534882,-85.6400528,55.46774673,0.39562392,-0.74681085,0.35086155
607,202060375,150.7126923,-85.58531952,55.58454895,0.6316205,-0.413123,0.38431168
608,202077042,150.3194885,-85.57229614,55.69112396,0.41063014,-0.3328772,0.6038399
609,202093709,149.7696991,-85.54790497,56.03689575,0.001177299,-0.31777647,0.63891697
610,202110376,149.1993561,-85.51223755,56.53153992,-0.25651526,-0.28077888,0.3711586
611,202127043,148.7657776,-85.49202728,57.00906754,-0.26260695,-0.17411709,0.1369381
612,202143710,148.4963379,-85.50988007,57.41444778,-0.18185374,-0.11391763,-0.004398346
613,202160377,148.2744141,-85.56460571,57.81957245,0.06254516,-0.318077,0.18127155
614,202177044,148.0091553,-85.63179779,58.26646042,0.2918018,-0.26986986,0.35852623
615,202193711,147.6755981,-85.68738556,58.76741791,0.5300249,-0.24847348,0.3253975
616,202210378,147.2669678,-85.73410034,59.32571793,0.62789786,-0.19430193,0.20231819
617,202227045,146.7001495,-85.77302551,59.99812317,0.67624617,-0.10606316,0.13104153
618,202243712,146.1399384,-85.79854584,60.62716293,0.39091957,0.15795359,0.15328693
619,202260379,145.7268982,-85.84498596,61.11343765,0.22504072,-0.058703106,0.11355972
620,202277046,145.6576385,-85.90356445,61.21946335,0.13713343,-0.49780107,0.21121311
621,202293713,145.6034546,-85.96216583,61.22343826,0.09215382,-0.59603673,0.20208168
622,202310380,145.3022919,-86.02881622,61.45544815,0.09750453,-0.26788542,0.2883005
623,202327047,144.9937592,-86.08063507,61.76790619,0.192345,0.24705726,0.16320515
624,202343714,144.8240509,-86.13259125,62.0548439,0.22524959,0.44363466,0.18844795
625,202360381,144.8870544,-86.19203949,62.19758224,0.3119353,0.42160198,0.041381836
626,202377048,145.1528931,-86.2739563,62.17737198,0.44897264,0.088419825,0.08234024
627,202393715,145.6035919,-86.37799072,61.99793625,0.28394932,-0.1673888,0.24585342
628,202410382,146.1800995,-86.48426056,61.72565079,-0.28313756,-0.6115662,0.27300262
629,202427049,146.8421021,-86.58138275,61.3556366,-0.5661323,-0.51442426,0.21137238
630,202443716,147.9333954,-86.66423035,60.52387238,-0.59904224,-0.22868997,0.08211613
631,202460383,149.3341522,-86.75098419,59.35390854,-0.5419703,-0.15633704,0.11197853
632,202477050,150.9104614,-86.84011841,57.97072601,-0.058385022,-0.22596993,0.19623375
633,202493717,152.4436646,-86.91980743,56.58815002,0.33510584,-0.18481538,0.20065403
634,202510384,153.884201,-86.99319458,55.30418777,0.553692,-0.059481155,0.31732082
635,202527051,154.9873657,-87.07089996,54.4029541,0.57385004,0.05432259,0.24311256
636,202543718,155.8684235,-87.15724182,53.7387886,0.48604596,0.07359421,0.29850292
637,202560385,156.6857758,-87.28538513,53.12401581,0.2809381,-0.11642678,-0.3162861
638,202577052,158.2871094,-87.39608765,51.64904022,0.37105852,-0.084791094,0.12182331
639,202593719,159.6608887,-87.48191833,50.37310791,0.10970212,0.038824424,0.21364307
640,202610386,161.1542053,-87.56377411,48.97382355,-0.13702126,-0.06779796,0.22602367
641,202627053,162.6613312,-87.64051056,47.52396393,-0.171444,0.014980732,0.4180374
642,202643720,163.8936157,-87.70024109,46.35335159,-0.42142197,0.19526762,0.17862606
643,202660387,164.9736023,-87.76918793,45.40939713,-0.46408424,0.44771904,0.073851585
644,202677054,165.9682922,-87.84823608,44.6444397,-0.44891337,0.44956145,0.18195629
645,202693721,166.8056641,-87.94805145,44.10004425,-0.29821014,0.31614688,0.262249
646,202710388,167.3579712,-88.05247498,43.88421631,-0.31270847,0.35495836,0.29732418
647,202727055,167.4842834,-88.15422058,44.13615036,-0.2267771,0.23212446,0.22808647
648,202743722,167.0494232,-88.26381683,44.96380615,-0.0733693,0.03635617,0.04660988
649,202760389,165.8352356,-88.36541748,46.50688171,0.1067981,-0.16549167,-0.127244
650,202777056,164.0731049,-88.44870758,48.49907684,0.3241264,-0.2531634,-0.2763033
651,202793723,162.2509918,-88.53286743,50.45266724,0.25533968,-0.056068003,-0.001483917
652,202810390,160.5974274,-88.61634064,52.20220184,0.22854893,0.10262787,0.38392448
653,202827057,158.7827148,-88.68359375,54.11505508,0.1381935,0.14596659,0.59668636
654,202843724,156.7794495,-88.72451019,56.20001221,0.17155753,0.0314086,0.47649002
655,202860391,155.2109528,-88.73329163,57.82353592,0.27544242,-0.25783896,0.10122681
656,202877058,154.3054199,-88.73576355,58.72365189,0.43630463,-0.48880965,-0.22566032
657,202893725,154.121582,-88.74057007,58.81344223,0.54259616,-0.4716643,-0.0859499
658,202910392,153.9633789,-88.75071716,58.79566956,0.39082512,-0.13215728,0.23913193
659,202927059,153.6027985,-88.76172638,58.96143723,0.23201276,0.0919577,0.42041302
660,202943726,153.2558746,-88.76551819,59.15050507,0.15109342,0.2055661,0.3156824
661,202960393,152.8848114,-88.7604599,59.42437363,0.06528146,0.23821954,0.12195015
662,202977060,152.2606354,-88.76488495,59.99891663,0.07328188,0.2415538,0.06461334
663,202993727,151.1683502,-88.78179932,61.09194565,0.001116503,0.24789587,0.13641071
664,203010394,149.591629,-88.80450439,62.72528076,-0.07041485,0.26069802,0.30659485
665,203027061,147.652832,-88.82614136,64.76573944,-0.16914846,0.16250308,0.37605762
666,203043728,145.8153992,-88.83887482,66.73436737,-0.19773912,-0.062882245,0.26991844
667,203060395,143.9063873,-88.84039307,68.77397156,-0.088934466,-0.18528822,0.02769947
668,203077062,141.8899536,-88.84207916,70.89082336,-0.048603453,-0.26104882,-0.030070305
669,203093729,139.8935242,-88.84835052,72.94423676,0.13264756,-0.2408722,0.10966873
670,203110396,137.7323151,-88.8522644,75.11047363,0.27120948,-0.17426445,0.28688622
671,203127063,135.0931091,-88.85482788,77.72399139,0.5279136,-0.09904653,0.24307537
672,203143730,131.8753357,-88.85619354,80.90197754,0.36851388,-0.008691749,0.22015476
673,203160397,127.8277054,-88.85431671,84.93219757,0.1562289,-0.013184023,0.26979065
674,203177064,122.928093,-88.84716034,89.82170868,0.040744457,-0.10434367,0.07816887
675,203193731,118.6844177,-88.82830811,94.05813599,0.12865567,-0.13889799,0.02050209
676,203210398,115.0767899,-88.80958557,97.64444733,0.07178179,-0.10588369,0.16069317
677,203227065,112.3160019,-88.79374695,100.3669739,0.03902237,-0.04556904,0.297019
678,203243732,109.9309158,-88.78340912,102.700325,0.05624715,-0.003115771,0.30973148
679,203260399,108.7537842,-88.76551819,103.8119659,0.029714372,0.004690755,0.15991497
680,203277066,108.0074234,-88.74197388,104.4815521,-0.10118756,-0.05394083,-0.005350113
681,203293733,107.6637573,-88.72144318,104.7454224,-0.00597886,-0.11112762,-0.0281744
682,203310400,107.2713699,-88.71017456,105.0568695,0.08917793,-0.042460755,0.17731762
683,203327067,107.0621643,-88.70397186,105.1903,0.103712216,0.03776095,0.31149292
684,203343734,107.242485,-88.69404602,104.9453812,0.09595808,0.043936614,0.36130428
685,203360401,107.5569382,-88.67721558,104.5654984,0.2751136,0.10337038,0.1770029
686,203377068,107.4951859,-88.66308594,104.5778122,0.15101399,0.03483874,0.054707527
687,203393735,107.2866669,-88.6505661,104.7388382,0.13916138,-0.10004652,0.07396793
688,203410402,107.0554962,-88.64333344,104.9192581,0.16516283,-0.1428382,0.18428802
689,203427069,106.9057159,-88.63369751,105.0111542,0.21086246,-0.19662334,0.20477772
690,203443736,106.4610291,-88.62527466,105.3655472,0.25296375,-0.17833552,0.27435398
691,203460403,105.6361618,-88.61520386,106.0871429,0.04808655,-0.018852536,0.30308723
692,203477070,104.6320496,-88.60030365,107.0138321,-0.27920693,0.11839537,0.2882824
693,203493737,103.8424759,-88.58266449,107.8133926,-0.44201872,0.15567565,0.18139362
694,203510404,103.0693588,-88.57976532,108.6830521,-0.33536544,-0.015292198,0.059051514
695,203527071,102.5129929,-88.58556366,109.3285446,-0.25178236,-0.12124896,0.0881691
696,203543738,101.794487,-88.59486389,110.129097,-0.02692979,-0.08323131,0.1870203
697,203560405,100.4699249,-88.60984802,111.5443115,0.18604341,-0.07655542,0.24459267
698,203577072,98.79959106,-88.61450195,113.304924,0.16312543,-0.106586955,0.19611931
699,203593739,96.81552887,-88.6046524,115.3618851,0.013327574,-0.04906344,0.23008442
700,203610406,94.67514038,-88.59263611,117.6108322,-0.04836351,0.029940343,0.2251339
701,203627073,92.66603851,-88.58404541,119.780098,-0.14297101,0.056141537,0.19718838
702,203643740,90.39297485,-88.56892395,122.2435989,-0.07741712,-6.73E-04,0.14789677
703,203660407,88.10462189,-88.55422974,124.7334595,0.097458914,0.03795239,0.11012745
704,203677074,85.42440033,-88.54492188,127.636528,0.17937385,0.09940951,0.18234444
705,203693741,82.53380585,-88.53673553,130.7845001,0.18583661,0.027333735,0.19694233
706,203710408,79.93430328,-88.52170563,133.6374817,0.24235998,-0.07736812,0.24597836
707,203727075,77.85346985,-88.49962616,135.9467773,0.12499839,-0.19638641,0.23585796
708,203743742,76.43940735,-88.47697449,137.5298004,0.10525541,-0.24888414,0.14660072
709,203760409,75.26451874,-88.45896149,138.8128815,0.21939342,-0.25690725,0.030082703
710,203777076,74.2873764,-88.46252441,139.8424683,0.3508505,-0.2621408,0.13345623
711,203793743,73.5016861,-88.47646332,140.6212311,0.43598878,-0.21133004,0.20238876
712,203810410,73.10281372,-88.49259949,140.9850006,0.4770465,-0.40190357,0.18445206
713,203827077,72.50808716,-88.51088715,141.4687958,0.49672124,-0.37333426,0.26018047
714,203843744,72.15387726,-88.52541351,141.6384735,0.32932612,0.02407648,0.2354641
715,203860411,71.56783295,-88.52541351,142.094986,-0.008880729,0.33617154,0.19532108
716,203877078,70.57581329,-88.50747681,143.0935516,-0.37241036,0.47049823,0.20777512
717,203893745,69.62509918,-88.48173523,144.1828461,-0.6098043,0.42217618,0.18644714
718,203910412,68.77015686,-88.45820618,145.242981,-0.5885676,0.05102812,0.16279984
719,203927079,68.27826691,-88.44745636,145.9328461,-0.44127718,-0.07739192,0.17582417
720,203943746,67.78684235,-88.45098114,146.5888977,-0.2001329,-0.037136342,0.17128658
721,203960413,67.13320923,-88.45212555,147.3613586,0.13878813,0.015554379,0.16993809
722,203977080,66.48783875,-88.4405365,148.0747375,0.49288395,-0.012205483,0.1536932
723,203993747,66.1437149,-88.41390228,148.4676666,0.46339908,-0.036624946,0.14251518
724,204010414,65.88521576,-88.38638306,148.7879486,0.3984825,-0.11709721,0.20403004
725,204027081,65.48210144,-88.36087799,149.2415619,0.3826664,-0.11006728,0.16720009
726,204043748,64.89912415,-88.33563995,149.8619537,0.1480063,-0.073457755,0.19212723
727,204060415,64.41283417,-88.31008148,150.3616943,0.10680827,-0.18977368,0.1743145
728,204077082,64.07116699,-88.28856659,150.6469574,0.15179689,-0.50793755,0.15273857
729,204093749,63.60498428,-88.27796173,150.9335327,0.019217867,-0.60398185,0.17625809
730,204110416,63.0064888,-88.27648926,151.3165436,-0.34041864,-0.29589763,0.2470026
731,204127083,61.95068359,-88.26381683,152.2059784,-0.64823914,0.061708573,0.2738104
732,204143750,60.69213867,-88.24097443,153.4361877,-0.69405293,0.37705463,0.25846672
733,204160417,59.36565399,-88.20779419,154.9156952,-0.6270826,0.50246036,0.22057152
734,204177084,57.55372238,-88.16155243,157.0570526,-0.49041146,0.47467694,0.21290779
735,204193751,55.40979767,-88.09443665,159.5868683,-0.2544478,0.07278308,0.23914623
736,204210418,53.12362671,-88.01308441,162.2846832,-0.2222643,-0.17561838,0.22898006
737,204227085,50.6901741,-87.92443848,165.1282043,-0.2800488,-0.43360934,0.15848827
738,204243752,48.28188705,-87.83129883,167.8748169,-0.161214,-0.6809523,0.13432884
739,204260419,46.03440475,-87.73817444,170.3453369,0.031571567,-0.6247439,0.11220837
740,204277086,44.08152771,-87.63818359,172.3994598,0.24022552,-0.28687552,0.17774868
741,204293753,42.34060287,-87.51005554,174.1782074,0.44099817,-0.013328189,0.2215662
742,204310420,40.63408661,-87.35137177,175.9098053,0.39362106,0.17298606,0.28961754
743,204327087,39.06972885,-87.15641785,177.4967957,0.112192884,0.23686339,0.27959156
744,204343754,37.47366333,-86.9340744,179.1494904,-0.12308216,0.22765085,0.2378931
745,204360421,36.05926514,-86.6866684,-179.3610229,-0.41524383,-0.020529889,0.23554707
746,204377088,34.92453003,-86.44080353,-178.1490326,-0.39347216,-0.36869937,0.17399693
747,204393755,33.98390198,-86.20687866,-177.2111206,-0.21271974,-0.501008,0.23038864
748,204410422,33.12201309,-85.97971344,-176.4651184,-0.16451414,-0.3451466,0.24992943
749,204427089,32.31528473,-85.75029755,-175.8282318,-0.15922214,0.11625791,0.1343956
750,204443756,31.53137016,-85.50350952,-175.2059631,-0.019583534,0.26632765,0.13698006
751,204460423,30.83192444,-85.22488403,-174.6599731,0.2546087,0.36683103,0.2428217
752,204477090,30.1838913,-84.90691376,-174.1316986,0.4722359,0.39907077,0.3872471
753,204493757,29.75830078,-84.56520081,-173.7973633,0.24612923,0.23414926,0.3464594
754,204510424,29.426651,-84.2066803,-173.5298157,-0.15046127,-0.056062415,0.24284172
755,204527091,29.07270813,-83.82883453,-173.2393799,-0.26291707,0.14576375,0.20475197
756,204543758,28.69462967,-83.41137695,-172.8594513,-0.19537865,0.3716418,0.27082634
757,204560425,28.28001595,-82.90872955,-172.3714294,0.4229477,0.53003705,0.535861
758,204577092,27.96704292,-82.35258484,-171.9582062,0.16651335,0.2754796,0.63527775
759,204593759,27.95465469,-81.76316833,-171.8112183,-0.35543618,-0.21614273,0.23864555
760,204610426,28.09408951,-81.15080261,-171.8558655,-0.8515383,-0.70384836,-0.2293663
761,204627093,28.1171875,-80.4908905,-171.8340302,-0.5834777,-0.7148447,0.033064842
762,204643760,28.03853798,-79.71960449,-171.7874298,0.21596034,-0.05433153,0.7135811
763,204660427,27.81463814,-78.79957581,-171.6863251,1.2750133,0.51366174,0.8991842
764,204677094,27.62911224,-77.83958435,-171.6201935,-0.37170708,0.6629457,0.42315388
765,204693761,27.84683418,-76.91930389,-172.0363007,-2.4034638,-0.05568926,-0.12646389
766,204710428,28.13247299,-76.00551605,-172.46138,-2.1307487,-0.8210686,-0.6868429
767,204727095,28.24480057,-75.13449097,-172.7662811,-1.2928758,-0.7048531,-0.05862713
768,204743762,28.12216949,-74.16595459,-172.8925476,0.10266078,0.33818963,0.97633743
769,204760429,27.83226776,-72.98868561,-172.8974915,1.949982,1.3970292,1.884922
770,204777096,27.62549782,-71.60058594,-172.8251495,2.592337,2.2095964,1.856638
771,204793763,27.72258759,-70.21898651,-172.9665222,-0.4467212,1.331014,0.024895668
772,204810430,28.17182541,-68.91107178,-173.3704529,-2.511917,-4.02E-04,-1.6345425
773,204827097,28.79675674,-67.8221283,-173.9090424,-2.7950854,-1.7348211,-2.5755725
774,204843764,29.24388123,-66.8928299,-174.4267883,-0.95293206,-2.7743614,-1.3214178
775,204860431,29.16189575,-65.93586731,-174.7835388,0.42518193,-1.7039438,1.3392315
776,204877098,28.75157547,-64.89886475,-175.1980743,1.436653,0.59640473,3.6017551
777,204893765,28.25018883,-63.85341644,-175.6188812,-0.13381475,0.8863976,2.2200346
778,204910432,28.03156853,-62.84584808,-176.2022095,-0.5451344,1.847105,-0.1749773
779,204927099,27.95518684,-61.78024292,-176.7255249,0.8383622,1.6617075,-1.8313003
780,204943766,27.76623917,-60.51364517,-176.9940491,1.284827,0.669113,-1.1116858
781,204960433,27.29567146,-59.04541016,-177.1786346,0.9568963,-0.86112857,0.18693542
782,204977100,26.59797478,-57.53055954,-177.5475922,0.4152061,-0.24527614,-0.22462082
783,204993767,25.94567871,-56.1362114,-177.8661957,0.13812044,1.3430451,-1.4745493
784,205010434,25.46162605,-54.63383484,-177.8815613,-1.2727263,0.64770174,-2.1302724
785,205027101,25.06415558,-53.08159256,-177.9645233,-0.4490655,-0.018862817,0.39866352
786,205043768,24.24504852,-51.57104492,-178.008667,0.16545,-2.5733914,2.2070198
787,205060435,23.10693359,-50.04110336,-177.9864197,-1.8609078,-1.6082351,-0.46754074
788,205077102,22.14938354,-48.39699173,-177.8512726,-0.46643114,2.5827096,-2.61903
789,205093769,21.50297928,-46.78342056,-177.5611115,-0.34547603,2.5153527,-2.264855
790,205110436,20.9757328,-45.24916077,-177.2239227,-2.2444468,0.2916748,-0.11250973
791,205127103,20.19486809,-43.76735306,-176.9358063,-2.05112,-1.967937,2.6290178
792,205143770,19.18092728,-42.30801773,-176.7002411,-2.2576451,-1.7957917,0.89385986
793,205160437,18.56363106,-40.87665558,-176.5538788,-0.24622305,0.97673655,-1.5479269
794,205177104,18.08612633,-39.48793793,-176.342865,0.84394383,0.36056557,-0.77738285
795,205193771,17.56982994,-38.10539627,-176.0534821,-0.63291305,-0.7980201,0.22379684
796,205210438,16.89232826,-36.71349716,-175.716629,-0.6459037,-1.4270437,1.2401848
797,205227105,16.07512283,-35.30386353,-175.3980713,-0.35714838,-1.2492565,-0.5548477
798,205243772,15.63959694,-33.91790771,-175.1595306,1.0863975,1.0765274,-1.7683258
799,205260439,15.38808823,-32.60079193,-174.878006,1.1188642,0.445884,0.060359955
800,205277106,15.12656021,-31.32040596,-174.5548706,0.047251597,-0.32683897,1.2280102
801,205293773,14.75776958,-30.01465797,-174.1422729,0.110657424,-0.22744584,1.1471815
802,205310440,14.20497036,-28.62629318,-173.654892,0.29389447,-0.13399705,-0.64509106
803,205327107,13.87495613,-27.16641998,-173.2009583,1.4059995,0.6671039,-1.2994108
804,205343774,13.67239189,-25.74370193,-172.7387543,2.0413287,-0.3685219,0.35267448
805,205360441,13.45706272,-24.33719635,-172.2851105,1.9513097,-1.904146,0.67664146
806,205377108,13.07210255,-22.8255558,-171.8701324,1.5935062,-1.3138869,-0.008253098
807,205393775,12.80004406,-21.30816078,-171.5188293,1.4125093,-0.34948984,0.25787735
808,205410442,12.5248003,-19.84666252,-171.1701202,0.029739922,-0.34684333,0.5619955
809,205427109,12.40796661,-18.60973167,-170.8929749,-0.33088917,0.80810165,1.2279606
810,205443776,12.46300316,-17.67296791,-170.681839,0.6121994,-0.40292743,1.7624388
811,205460443,12.40658283,-17.06087112,-170.5229492,0.5855496,-1.5653371,1.2583513
812,205477110,12.15530682,-16.68032646,-170.4328003,0.32775483,-1.2225529,0.8931465
813,205493777,11.97145462,-16.50185394,-170.4312897,-0.114099674,-0.8174085,0.81137943
814,205510444,11.94558907,-16.47917747,-170.4364319,-0.71634775,-0.34838986,0.13669682
815,205527111,12.01879883,-16.56217003,-170.4106598,-0.89593935,1.0258635,-0.5175266
816,205543778,12.31009007,-16.6538372,-170.3505249,-0.100953884,1.9630741,-0.5471668
817,205560445,12.70055962,-16.70998955,-170.2913513,0.58796376,1.5470178,0.039027214
818,205577112,12.92688084,-16.73852921,-170.2667389,-0.046189707,0.9106436,-0.3750286
819,205593779,12.9687252,-16.70858765,-170.2906799,-0.48828563,0.99147016,0.046471596
820,205610446,13.12788486,-16.65818977,-170.3652191,-0.17511508,1.3898907,-0.41620064
821,205627113,13.49015141,-16.53142738,-170.3961639,0.17709954,0.69240606,-0.7504358
822,205643780,13.77791214,-16.28414536,-170.346344,0.123927176,-0.42720515,-0.42508698
823,205660447,13.97559357,-15.99189758,-170.2669067,0.2256817,-0.65165985,0.435256
824,205677114,14.06265736,-15.75451088,-170.2296906,0.37614793,-0.93234426,0.52616215
825,205693781,14.01784325,-15.5676899,-170.237915,0.22850423,-0.7375611,0.42725086
826,205710448,14.0314045,-15.45362377,-170.2893066,0.31611738,-0.10933708,0.45334244
827,205727115,14.0969696,-15.37675858,-170.3518524,0.5769027,-0.20711093,0.41540337
828,205743782,14.09558296,-15.32401466,-170.4087372,0.5197349,-0.2221423,0.14311314
829,205760449,14.03165436,-15.29998589,-170.4667206,0.29807544,0.269591,0.003453255
830,205777116,13.93928528,-15.28021049,-170.5173798,0.16311352,0.42751268,-0.007416725
831,205793783,13.8493948,-15.23495579,-170.5583954,-0.14147024,0.4557384,0.06583214
832,205810450,13.80531979,-15.1946373,-170.620163,-0.24339035,0.43489778,0.14384842
833,205827117,13.82246017,-15.16038227,-170.7066803,-0.17962031,0.3703003,0.00474453
834,205843784,13.87678623,-15.12135792,-170.8027039,-0.022523094,0.3954489,-0.014476776
835,205860451,13.93911076,-15.09195709,-170.872757,0.32300165,0.38518947,-0.065060616
836,205877118,13.92334652,-15.08905411,-170.9048157,0.32852176,0.1849033,-0.12973118
837,205893785,13.82261467,-15.09688187,-170.8940887,0.2138286,0.08907055,-0.11989117
838,205910452,13.69735813,-15.07336712,-170.852066,-0.071370035,0.13194741,-0.02559185
839,205927119,13.5716095,-15.03190422,-170.8236389,-0.3112123,0.17593199,-0.061552048
840,205943786,13.48446369,-14.95862865,-170.8038483,-0.23203067,0.26108208,-0.060728073
841,205960453,13.48574257,-14.92215157,-170.7986298,0.007538589,0.3392043,0.25987244
842,205977120,13.55583096,-14.94045353,-170.8126984,0.043261085,0.26856256,0.5438194
843,205993787,13.65350056,-14.97587776,-170.8054504,0.10386062,0.1175962,0.61998844
844,206010454,13.7569561,-15.01211739,-170.7882996,0.17234404,-0.35757408,0.5037546
845,206027121,13.79590797,-15.05455875,-170.7806091,0.3573908,-0.55158216,-0.051413536
846,206043788,13.7474947,-15.10429764,-170.7552032,0.57380986,-0.06845722,-0.4975481
847,206060455,13.66768551,-15.15217876,-170.692337,0.7426966,0.6279616,-0.6192503
848,206077122,13.60390282,-15.18107605,-170.605423,0.5124696,0.6776077,-0.14018631
849,206093789,13.58443546,-15.18476582,-170.535614,0.05555514,0.18351866,0.3612156
850,206110456,13.57999897,-15.16298103,-170.5055542,-0.2922516,-0.06709409,0.4369297
851,206127123,13.58846378,-15.13453674,-170.5141144,-0.1372353,-0.17856304,0.3004837
852,206143790,13.60348225,-15.11484337,-170.529953,-0.009212087,-0.13200766,0.09383583
853,206160457,13.60068703,-15.0976162,-170.5355225,-0.07876078,-0.079379454,-0.07054615
854,206177124,13.57347298,-15.0732336,-170.5362244,-0.12729202,0.08425419,-0.08390999
855,206193791,13.54912758,-15.0524168,-170.5528259,-0.12733755,0.19179381,-0.17723656
856,206210458,13.54072857,-15.0231142,-170.5635681,-0.15424965,0.01038518,-0.09786034
857,206227125,13.52898693,-14.99722576,-170.5607605,-0.17626229,-0.16207357,0.1461544
858,206243792,13.50082493,-14.98821545,-170.542572,-0.16688423,-0.050917983,0.20927715
859,206260459,13.44785404,-14.98448372,-170.5114746,-0.111891955,0.12865685,0.119342804
860,206277126,13.3965807,-14.98313904,-170.4881134,-0.20521389,0.17653486,0.08047867
861,206293793,13.38062859,-14.96819592,-170.486145,-0.19303098,0.1403039,-0.045820236
862,206310460,13.39172077,-14.95083714,-170.5057373,-0.03973904,0.116868034,-0.003806114
863,206327127,13.42178631,-14.94482136,-170.5313721,0.07572207,0.15653959,0.00617981
864,206343794,13.44756413,-14.94107437,-170.5514679,0.12948354,0.22556905,0.019127846
865,206360461,13.46604633,-14.93070793,-170.5624084,0.006432409,0.15507324,0.20544147
866,206377128,13.49429226,-14.91623497,-170.5822754,-0.11179738,-0.025580248,0.13970375
867,206393795,13.52287579,-14.90028858,-170.6104889,0.003653145,-0.06274453,0.00383091
868,206410462,13.54285145,-14.89117336,-170.6361237,0.13566431,0.15959552,-0.11468601
869,206427129,13.56748009,-14.89031124,-170.6611786,0.16633394,0.28268278,-0.04355812
870,206443796,13.60853672,-14.905303,-170.6917572,-0.03017223,0.004328978,-0.102318764
871,206460463,13.61095047,-14.90913486,-170.7141113,-0.0883832,-0.04216234,0.03231716
872,206477130,13.57224369,-14.87659931,-170.7339935,-0.16140701,0.11998539,0.6434336
873,206493797,13.54855633,-14.85966587,-170.7686615,-0.1832584,0.15170935,0.3065157
874,206510464,13.52457333,-14.84163094,-170.7825928,0.042308543,0.27259094,0.04344654
875,206527131,13.53740215,-14.85271263,-170.7898102,-0.004528512,0.4380971,0.1280365
876,206543798,13.56748581,-14.89560604,-170.8037109,-0.14808843,0.47180948,-0.11126518
877,206560465,13.56050873,-14.91395092,-170.808548,-0.32108167,0.3652999,-0.06782627
878,206577132,13.51476288,-14.91263199,-170.8218079,-0.23978704,0.20069875,-0.052269936
879,206593799,13.48246574,-14.89379501,-170.8181763,-0.047632203,0.33236292,-0.014816284
880,206610466,13.50566673,-14.88515949,-170.8214264,-0.115829796,0.41686618,0.092739105
881,206627133,13.56721592,-14.86867332,-170.8182068,-0.101777226,0.18740694,0.1636877
882,206643800,13.66135502,-14.86263371,-170.8158417,-0.00757681,-0.10857581,0.2929945
883,206660467,13.73169804,-14.88398457,-170.8253479,0.12511805,-0.2675107,0.05465603
884,206677134,13.68933868,-14.91592312,-170.8174286,0.25110844,-0.27688128,-0.08378792
885,206693801,13.56416702,-14.97089577,-170.8057098,0.23766105,-0.013635436,-0.15857029
886,206710468,13.47944641,-15.01911354,-170.7854462,0.2582801,0.20054741,-0.12183952
887,206727135,13.48437214,-15.07213211,-170.7580109,0.12514192,0.18637761,0.11719608
888,206743802,13.50720406,-15.10442257,-170.7628174,-0.08518333,-0.13422084,0.26938534
889,206760469,13.51109695,-15.12746048,-170.7954559,0.1466582,-0.46904394,0.49374485
890,206777136,13.48769855,-15.17598343,-170.8484192,0.4189204,-0.8453093,0.43275356
891,206793803,13.36365128,-15.27438641,-170.9139709,0.2821049,-0.62755483,-0.05132389
892,206810470,13.12040234,-15.42976952,-170.9690704,0.2657002,0.14002466,-0.1604824
893,206827137,12.96454144,-15.54531765,-170.9742126,-0.46986145,1.0643986,-0.16495228
894,206843804,12.91451073,-15.58679581,-170.9647064,-1.4173757,1.0412422,-0.1536045
895,206860471,12.93951702,-15.58651447,-170.9650116,-1.4188681,0.6446687,0.006990433
896,206877138,12.97881126,-15.60156631,-171.009964,-1.0886173,0.5229805,-0.27936554
897,206893805,12.84928894,-15.74084759,-171.0955505,-0.7978774,0.6517591,-0.459198
898,206910472,12.93575573,-15.83965302,-171.0934601,-0.36200586,0.73821753,-0.075746536
899,206927139,13.15486145,-15.913764,-171.071167,0.10278691,0.23073055,0.473876
900,206943806,13.29807663,-15.96968746,-171.0899506,0.32620752,-1.1827744,0.9402609
901,206960473,13.26291656,-16.05591965,-171.1024628,0.11996388,-1.0440602,0.08311558
902,206977140,13.22089481,-16.11553192,-171.1217041,0.6593559,-0.303616,-0.32237244
903,206993807,13.22428131,-16.15988541,-171.172348,0.97812647,-0.04538533,-0.24239159
904,207010474,13.3200531,-16.17447662,-171.233963,1.0318995,-0.1856078,0.12480831
905,207027141,13.37236118,-16.19862556,-171.3338776,1.2812166,-0.9459597,0.725749
906,207043808,13.23032379,-16.26688576,-171.4693146,0.89969456,-1.3617756,0.3038864
907,207060475,12.87897587,-16.36644745,-171.5648041,0.23066285,-0.70598143,-0.65618896
908,207077142,12.45036983,-16.52113152,-171.5618134,-0.04273871,0.35460514,-1.0228405
909,207093809,12.29290581,-16.70108223,-171.5280457,-0.75463927,1.0749565,-0.03718853
910,207110476,12.25614738,-16.90102768,-171.6392059,-0.49123207,0.7562225,1.1906853
911,207127143,12.2314539,-17.06924438,-171.7850037,0.063784406,0.7613415,1.4264202
912,207143810,12.0241909,-17.14299011,-171.8397675,-0.2305723,0.8272674,-0.08312321
913,207160477,11.65581131,-17.39309311,-171.9341583,0.81426156,2.350578,-1.6298056
914,207177144,11.49576473,-17.91106987,-172.0743408,2.7188118,2.388758,-2.3263183
915,207193811,11.59075928,-18.33429146,-172.0151367,2.3805065,2.249512,1.4554358
916,207210478,11.70713997,-18.8501339,-172.0400238,0.32735243,1.1484755,3.1717072
917,207227145,12.00692844,-19.49672699,-172.2208862,0.07576165,0.14487998,-0.331151
918,207243812,12.37961292,-20.27247238,-172.4939575,3.225043,-0.5710889,-0.42168427
919,207260479,12.56356621,-21.10628891,-172.687439,4.5864887,-1.2708906,0.85629845
920,207277146,12.68538952,-21.95261955,-172.905304,1.6380495,-1.2031107,0.70011806
921,207293813,12.83585262,-22.81783485,-173.2374115,1.6082916,-1.5370294,0.5824547
922,207310480,12.88759995,-23.68599319,-173.5505066,1.0959796,-0.7296626,0.4601555
923,207327147,13.02845478,-24.63527107,-173.8548889,0.1156991,1.1319197,-0.1023798
924,207343814,13.26372051,-25.66252518,-174.127594,-0.20399943,1.1482729,0.2932396
925,207360481,13.44443035,-26.74615097,-174.3602448,-0.6081242,0.11367112,0.46030617
926,207377148,13.59900665,-27.83489037,-174.5795135,-0.09329191,-0.3594217,0.4146719
927,207393815,13.76369858,-28.93292427,-174.7948914,0.054105084,-0.6629228,0.07609081
928,207410482,13.98208141,-30.08236694,-175.0335236,-0.20770252,-0.36372262,-0.21565342
929,207427149,14.29648685,-31.27723312,-175.3155975,-0.70695484,0.019947931,-0.03751278
930,207443816,14.66227818,-32.50540161,-175.5791016,-1.1452514,-0.04896754,0.42517567
931,207460483,14.98424339,-33.78678894,-175.803299,-1.1505599,-0.22199777,0.6447315
932,207477150,15.23428154,-35.10616684,-176.003067,-0.9333883,-0.60437727,0.05922985
933,207493817,15.53005886,-36.41514969,-176.2237396,-0.25991768,-0.46134108,-0.43712807
934,207510484,15.90719795,-37.71668625,-176.4738922,-0.120539054,-0.51311785,-0.3171997
935,207527151,16.34373093,-39.03065109,-176.7359619,-0.5544643,-0.47938567,0.0233078
936,207543818,16.80370331,-40.3796196,-177.0147705,-0.8244335,-0.24439703,0.3897047
937,207560485,17.27305603,-41.73936844,-177.288559,-0.9294419,0.25247434,0.08249092
938,207577152,17.79157448,-43.09209824,-177.5314636,-0.7912468,0.7095619,-0.3651991
939,207593819,18.34433365,-44.45796967,-177.7434387,-0.7752055,0.529894,-0.40902805
940,207610486,18.96069336,-45.82955551,-177.9384766,-1.0377129,0.1456694,-0.15362263
941,207627153,19.62520027,-47.21404648,-178.1245117,-1.2625821,-0.5477649,0.1998949
942,207643820,20.3037014,-48.62300873,-178.3335419,-1.1820519,-1.0755308,0.4539795
943,207660487,21.02075958,-50.06725693,-178.6300354,-0.7224158,-0.9146531,0.21770954
944,207677154,21.76642418,-51.50528717,-179.0027618,-0.17730315,-0.6407258,-0.36343575
945,207693821,22.54034996,-52.90900421,-179.3999634,0.35112277,-0.3523016,-0.6299391
946,207710488,23.32354164,-54.31190109,-179.8184662,-0.10283045,-0.32246637,-0.60350513
947,207727155,24.06334305,-55.71792984,179.7783203,-0.5172269,0.38101107,-0.23306274
948,207743822,24.79785728,-57.135746,179.3699188,-0.3981076,0.65000844,0.01933384
949,207760489,25.5204258,-58.5750351,178.9473724,0.04900242,0.74677396,0.13737392
950,207777156,26.20863342,-60.01470184,178.5318756,0.063305825,0.8837832,-0.1813469
951,207793823,26.84255409,-61.33304977,178.2509766,0.06323642,1.0169253,-0.6635866
952,207810490,27.54389,-62.60403061,178.0702209,-0.31458127,1.4354843,-0.87542343
953,207827157,28.41488457,-63.87994766,177.8893433,-0.512455,0.6477197,-0.66501904
954,207843824,29.49058533,-65.16655731,177.6260071,-0.2735469,-0.3705256,0.07087135
955,207860491,30.63526726,-66.46292114,177.2341766,-0.66926295,-1.073126,0.523407
956,207877158,31.68876457,-67.74478912,176.7197876,-0.23434113,-0.8977599,0.69297314
957,207893825,32.72278976,-69.06496429,176.053833,0.03249539,-0.31650636,0.18860626
958,207910492,33.66825867,-70.35316467,175.4152527,-0.10633196,0.21127288,-0.4315672
959,207927159,34.64365387,-71.66480255,174.7547302,-1.028871,0.20533162,-0.65085983
960,207943826,35.7131958,-72.98925018,174.1012573,-1.5991578,0.081581555,-0.5753298
961,207960493,36.95359039,-74.33932495,173.3806915,-1.8062755,0.15455005,0.17495346
962,207977160,38.44638443,-75.69458008,172.4524994,-1.3504462,-0.25371268,1.1018476
963,207993827,40.24862671,-77.01180267,171.0917206,-0.78209066,-0.5366354,0.9560652
964,208010494,42.01196289,-78.27085876,169.5729523,-0.0758853,0.34392777,0.23914623
965,208027161,43.64378738,-79.44725037,168.0547028,0.2177704,0.9097539,-0.4241228
966,208043828,45.27287674,-80.54838562,166.5678558,0.40562072,0.96845496,-0.0977478
967,208060495,47.14227295,-81.54701233,164.9281006,-0.31427962,0.41559607,0.020590782
968,208077162,49.25896835,-82.45163727,163.1494904,-0.24523987,0.11980317,0.21684265
969,208093829,52.36808395,-83.33447266,160.3426056,-0.5554985,-0.57627565,0.2572775
970,208110496,56.53059006,-84.1782608,156.3503265,-0.36816025,-1.1437168,0.48814678
971,208127163,61.79484558,-84.96572876,151.0836487,0.09678731,-1.0126525,0.2591715
972,208143830,68.16883087,-85.66622925,144.5258942,0.3384302,-0.26010975,0.19212627
973,208160497,75.39859772,-86.23948669,137.0351868,0.5672951,0.28437442,0.60937595
974,208177164,82.75776672,-86.64683533,129.4190063,0.7969337,0.50684625,0.69812393
975,208193831,89.46069336,-86.90895844,122.573143,0.15712497,0.50778425,0.42070103
976,208210498,95.21248627,-87.08496857,116.773056,-0.63754636,0.7155365,0.32069874
977,208227165,100.9023972,-87.21435547,111.1742477,-1.0278223,0.6633677,0.40159988
978,208243832,106.8154526,-87.30165863,105.5003662,-1.3899262,0.19533613,0.45954514
979,208260499,112.3478546,-87.33795929,100.274231,-0.89937824,-0.10817133,0.5072098
980,208277166,116.7798462,-87.33464813,96.14776611,0.31895676,-0.43292066,0.41162586
981,208293833,120.4261932,-87.28690338,92.68489075,1.2565501,-0.3585959,0.3928585
982,208310500,123.1632996,-87.23643494,90.08393097,1.510786,0.24237633,0.35843658
983,208327167,124.9752655,-87.21056366,88.49516296,1.1309081,0.7589159,0.21527195
984,208343834,125.9154282,-87.2215271,87.90453339,0.62341404,0.51369166,0.11345863
985,208360501,126.7996597,-87.24132538,87.42839813,0.11720488,-0.12247437,0.04233837
986,208377168,128.114975,-87.26319122,86.45665741,-0.33273137,-0.49019164,0.047761917
987,208393835,130.0132599,-87.2771759,84.73590088,-0.32080743,-0.61787003,0.0457983
988,208410502,132.2250519,-87.29592896,82.5255127,-0.20947483,-0.24315639,0.22068119
989,208427169,134.2390442,-87.30805206,80.35253143,-0.16733138,-0.14822373,0.30078793
990,208443836,136.1792908,-87.28588867,78.17567444,-0.015925102,-0.047746614,0.31603146
991,208460503,137.8241119,-87.23898315,76.27120972,-0.018741896,0.21004753,0.21373081
992,208477170,139.1399994,-87.19104767,74.75430298,-0.006822007,0.48272696,0.24213314
993,208493837,139.9287262,-87.16468811,73.89279175,-0.044110786,0.63764435,0.31241703
994,208510504,140.1989899,-87.15332031,73.67767334,-0.007989471,0.5623856,0.35834503
995,208527171,140.1681976,-87.13967133,73.86175537,-0.14142576,0.43453065,0.22101116
996,208543838,139.9767456,-87.13837433,74.28135681,-0.40019253,-0.04739313,0.026884079
997,208560505,139.7967224,-87.14679718,74.6624527,-0.5231387,-0.3068427,0.11787319
998,208577172,139.5087128,-87.15208435,75.04862976,-0.73071504,-0.5374093,0.10864353
999,208593839,139.2014923,-87.1628952,75.37142944,-0.5554646,-0.5237605,0.08323479
1000,208610506,138.713623,-87.18360138,75.82421875,-0.0962784,-0.29070252,0.30566978
1001,208627173,137.4514313,-87.21723175,77.01859283,0.41231272,-0.025010206,0.41716576
1002,208643840,134.9425354,-87.27258301,79.42948151,0.4045535,-0.103850715,0.4812889
1003,208660507,131.4193573,-87.32578278,82.85881805,0.14895856,-0.22684029,0.3440342
1004,208677174,126.9498825,-87.3804245,87.25534821,-0.37832248,-0.433111,-0.023251534
1005,208693841,121.4598923,-87.43738556,92.70246124,-0.4496599,-0.4853013,-0.22925091
1006,208710508,114.4233627,-87.48510742,99.65544128,-0.31523836,-0.34576067,0.17777729
1007,208727175,106.1796875,-87.48044586,107.7864914,-0.065187216,-0.03315323,0.43918037
1008,208743842,97.90441132,-87.40912628,115.9624634,-0.06766989,0.27647278,0.5128803
1009,208760509,89.18177032,-87.25997925,124.6317749,0.21098469,0.26243517,0.39989853
1010,208777176,80.48127747,-87.01148224,133.2958679,0.60720384,0.12463049,0.40771294
1011,208793843,72.85638428,-86.66757202,140.8752136,-0.073949315,0.02560788,0.27284622
1012,208810510,66.2650528,-86.29255676,147.5182343,-1.1367258,-0.33499518,0.3182268
1013,208827177,60.89625931,-85.90609741,152.9963379,-1.2089736,-0.2601883,0.27398586
1014,208843844,56.27082443,-85.51511383,157.7688293,-0.8251346,-0.036190547,0.2690916
1015,208860511,51.51227188,-85.04393768,162.6846466,-0.016740367,-0.0546193,0.43059158
1016,208877178,46.9012146,-84.41622925,167.4309692,0.78815395,0.2515304,0.60412884
1017,208893845,43.35441208,-83.6711731,171.0725098,0.13662705,-0.07659409,0.33899307
1018,208910512,41.14821625,-82.93439484,173.368454,-0.6634916,-0.37976873,-0.0873127
1019,208927179,39.28041077,-82.18222046,175.3297882,-0.8282668,-0.773693,-0.17114067
1020,208943846,37.38323593,-81.3918457,177.2441254,-0.2912193,-0.2941836,0.37693405
1021,208960513,35.78837585,-80.58032227,178.7275391,-0.51821405,0.5991581,0.6282892
1022,208977180,34.33421326,-79.65552521,-179.8147736,-0.20278643,0.95137304,0.38112164
1023,208993847,33.21566772,-78.63768005,-178.576004,-0.5162004,0.7520946,0.25612068
1024,209010514,32.47327042,-77.56446075,-177.5909271,-0.026146155,0.6275027,0.31867695
1025,209027181,31.91129684,-76.49454498,-176.8218079,-0.07212216,0.7769755,0.722332
1026,209043848,31.35629654,-75.41060638,-176.1674652,-0.3054945,1.2443193,0.66184044
1027,209060515,30.82963753,-74.31019592,-175.5251312,-0.7177484,1.2519289,0.1895256
1028,209077182,30.34360695,-73.10754395,-174.7054138,-0.4118336,0.6326031,-0.39863586
1029,209093849,29.98096466,-71.8789978,-173.9535828,-0.21440338,-0.18307365,-0.45101166
1030,209110516,29.69906998,-70.72371674,-173.3458252,-0.8451121,-1.6780082,-0.55680275
1031,209127183,29.46510887,-69.72258759,-173.0147705,-0.5182988,-2.8735468,-0.07470703
1032,209143850,29.06933022,-68.80091095,-172.9098816,-0.28424585,-3.0106637,0.3257656
1033,209160517,28.60496712,-67.87836456,-173.0608978,0.7973496,-1.3353018,1.2076206
1034,209177184,28.07315063,-66.90878296,-173.3158417,1.2892616,-0.1869991,1.4511852
1035,209193851,27.48760986,-65.95269775,-173.548996,0.76057327,0.7404567,0.3825636
1036,209210518,26.93317604,-65.01043701,-173.7609558,0.34754598,2.1100035,-0.8432083
1037,209227185,26.47114944,-64.03969574,-173.9201508,0.34944126,2.077478,-1.7410583
1038,209243852,26.2462616,-63.09549713,-174.0499725,0.52503204,1.1015157,-1.195756
1039,209260519,26.14620972,-62.17930222,-174.2655487,0.65318954,-0.5891022,0.5424986
1040,209277186,25.97137451,-61.28397369,-174.6198883,1.3113645,-1.7238191,1.4944916
1041,209293853,25.39583015,-60.2882309,-174.9319153,0.53516275,-0.6823057,0.8202629
1042,209310520,24.56981277,-59.16816711,-175.085434,0.19026314,0.6334104,-0.8065891
1043,209327187,23.67420769,-57.98827362,-175.1327362,0.5596105,1.3616525,-1.8337574
1044,209343854,23.05868721,-56.85822678,-175.0522461,-0.36601314,0.9853848,-1.4490967
1045,209360521,22.6609478,-55.75353622,-175.0631409,-0.8034039,-0.06011867,0.38517094
1046,209377188,22.19437408,-54.70298004,-175.1598816,-0.64790267,-0.9494824,1.7013216
1047,209393855,21.49736977,-53.60361481,-175.2243042,-1.1455247,-0.27356645,0.9411993
1048,209410522,20.7720871,-52.41970825,-175.144928,-0.29436788,1.1320522,-0.1555214
1049,209427189,20.09293556,-51.25096893,-175.013855,0.39721245,1.4871264,-1.036562
1050,209443856,19.55913353,-50.03343964,-174.8261261,0.52997774,1.3611993,-1.012434
1051,209460523,19.03980064,-48.85415268,-174.6341858,-0.15370245,0.95717627,-0.43690205
1052,209477190,18.53330994,-47.72823715,-174.460083,-1.0226719,0.24011031,-0.25001526
1053,209493857,17.97261429,-46.62572861,-174.279129,-0.70192444,-0.5773757,0.0608263
1054,209510524,17.33649826,-45.51009369,-174.0761261,-0.5196807,-0.80771077,0.33276844
1055,209527191,16.56345177,-44.37722778,-173.8387756,-0.5234949,-0.99244803,0.2882948
1056,209543858,15.82178879,-43.19099045,-173.6565247,-0.39349118,-0.6533648,-0.7346983
1057,209560525,15.30614471,-42.00904465,-173.561264,0.31649023,0.20356573,-0.4195528
1058,209577192,14.81112194,-40.83531952,-173.5016479,-0.31283897,0.05445463,-0.044049263
1059,209593859,14.24015427,-39.65248489,-173.361618,-0.46249115,0.31681946,0.2642975
1060,209610526,13.59794617,-38.47499847,-173.1318512,-0.42000818,0.9109848,-0.23435879
1061,209627193,13.08885384,-37.23591614,-172.8616791,-0.15891926,1.6482923,-0.8728428
1062,209643860,12.77431297,-35.97179413,-172.5812225,0.07982805,0.9757565,-0.3964033
1063,209660527,12.49612522,-34.72388458,-172.301651,-0.4485844,-0.92269313,0.6996298
1064,209677194,12.13055229,-33.4927597,-172.0259857,-0.41175047,-1.5514513,0.6003666
1065,209693861,11.66956425,-32.26901245,-171.771698,0.043922365,-0.97820634,0.068590164
1066,209710528,11.33007145,-31.05971146,-171.5361176,0.12402484,0.30512503,-0.37193298
1067,209727195,11.13313484,-29.87940788,-171.3385315,-0.084356405,0.65773803,-0.002924919
1068,209743862,11.04531097,-28.74312019,-171.1253052,-0.94111013,0.030945005,0.58549786
1069,209760529,10.95393467,-27.63752747,-170.9055328,-1.4079188,-0.6399559,1.0240946
1070,209777196,10.89473343,-26.57260895,-170.6190948,-0.8860145,-0.78248376,1.2394104
1071,209793863,10.78452301,-25.56716728,-170.2944336,0.64359564,-0.74481124,0.6657791
1072,209810530,10.64663601,-24.60968399,-169.9968872,1.0363017,-0.52841634,-0.65307903
1073,209827197,10.40580463,-23.64795685,-169.7354431,0.36167765,0.23874816,-0.3617344
1074,209843864,10.33899879,-22.81746292,-169.480545,-0.24459632,0.4341115,1.0894566
1075,209860531,10.41134357,-22.1192131,-169.2415771,-0.36368868,0.052674934,1.7819796
1076,209877198,10.64240265,-21.63108253,-169.0413666,-0.092725344,-0.18101597,1.9002361
1077,209893865,10.88400459,-21.28701591,-168.8751526,0.251747,-1.3416792,1.2034283
1078,209910532,11.02964497,-21.00022697,-168.7303467,0.83126444,-0.9235566,0.093987465
1079,209927199,11.06443501,-20.72380447,-168.6184845,1.4633671,-1.0085516,-0.70871353
1080,209943866,10.87672043,-20.36565971,-168.5491333,1.188511,-1.0612589,-0.5487337
1081,209960533,10.63252449,-20.00574112,-168.5335083,0.5152457,-0.15153873,-0.45250607
1082,209977200,10.51419163,-19.6919384,-168.5216217,0.2777365,0.5486123,-0.27592373
1083,209993867,10.53198814,-19.40030479,-168.5117035,0.20431846,1.3870176,-0.20515728
1084,210010534,10.65504169,-19.13672829,-168.4866486,0.36222768,1.9423493,-0.14535236
1085,210027201,10.76475143,-18.89262962,-168.4167938,0.2801398,1.8753238,-0.11901379
1086,210043868,10.80782032,-18.66341019,-168.3103485,-0.27034625,1.8190846,0.06958485
1087,210060535,10.81131744,-18.42292595,-168.1620331,-0.8085996,1.4431775,0.02888012
1088,210077202,10.87251091,-18.15260506,-167.9822998,-1.0912718,1.1973783,0.013116837
1089,210093869,11.02198696,-17.86144066,-167.8043213,-0.9513458,0.72517866,0.06665897
1090,210110536,11.28025818,-17.55792618,-167.6463776,-0.48469913,0.3841764,0.2789955
1091,210127203,11.59158611,-17.27520752,-167.5208588,-0.052051824,-0.2039211,0.3094473
1092,210143870,11.83143997,-17.03251839,-167.4260559,0.12177631,-0.7268138,-0.061048508
1093,210160537,11.96304512,-16.85403824,-167.3707123,0.28918022,-0.6534527,-0.03622341
1094,210177204,12.07069397,-16.69749641,-167.3743896,0.517482,-0.3825465,-0.14102268
1095,210193871,12.17615986,-16.54223442,-167.4075623,0.7933798,-0.54515404,0.014098167
1096,210210538,12.30482292,-16.38760185,-167.4389038,0.7204396,-0.92598724,0.3519125
1097,210227205,12.43893814,-16.25113297,-167.4754028,0.5164124,-0.9559239,0.26473808
1098,210243872,12.57780933,-16.14868736,-167.5329895,0.69221085,-0.61718583,0.05787182
1099,210260539,12.70680904,-16.0777359,-167.5961151,0.837948,-0.4797529,0.06957722
1100,210277206,12.8226099,-16.01850128,-167.6466675,0.54754394,-0.73799497,0.21596241
1101,210293873,12.87640285,-15.97244549,-167.7027283,0.19971287,-0.8230309,0.22745705
1102,210310540,12.8617239,-15.93203068,-167.7721863,-0.08383433,-0.5497482,0.14844036
1103,210327207,12.78703403,-15.90734386,-167.8598175,-0.44188833,-0.32772234,-0.048667908
1104,210343874,12.66296291,-15.86101246,-167.9506378,-0.5779368,-0.075887315,-0.14439487
1105,210360541,12.53324509,-15.79523277,-168.0245209,-0.38989666,0.3823156,0.011473656
1106,210377208,12.46419621,-15.73275661,-168.076355,-0.09953335,0.5807213,0.16384602
1107,210393875,12.4708271,-15.68244076,-168.1153717,0.005233388,0.54600954,0.2387371
1108,210410542,12.49697781,-15.64220047,-168.1699066,-0.16241232,0.41703948,0.3281994
1109,210427209,12.5379324,-15.61595249,-168.2626038,-0.314142,0.5292118,0.12445259
1110,210443876,12.58473301,-15.60591507,-168.389389,0.05177682,0.7813297,-0.119158745
1111,210460543,12.62136364,-15.60490799,-168.5086517,0.4544515,1.0417564,-0.19468403
1112,210477210,12.66655445,-15.61492634,-168.5817566,0.36180496,1.1506553,-0.10408974
1113,210493877,12.73382282,-15.62683392,-168.5931549,-0.0558441,0.86062723,0.102879524
1114,210510544,12.80714798,-15.62086678,-168.5562439,-0.3377367,0.47818235,0.06426525
1115,210527211,12.84950352,-15.58160496,-168.4889374,-0.15285769,0.2450631,-0.031126976
1116,210543878,12.85953426,-15.53699207,-168.4115601,0.080476984,0.20576899,-0.029141426
1117,210560545,12.86119556,-15.50736046,-168.3261719,0.15876897,0.114080176,0.08472824
1118,210577212,12.86186218,-15.49987793,-168.2420502,0.061347697,-0.091700636,0.13518429
1119,210593879,12.86069489,-15.49619484,-168.1661224,-0.10009795,-0.26871848,0.1169405
1120,210610546,12.84448528,-15.47079849,-168.0992432,-0.14554264,-0.54169434,-0.011176109
1121,210627213,12.80253506,-15.42586613,-168.044754,-0.07915416,-0.60979736,0.09090996
1122,210643880,12.75396156,-15.39858627,-168.0233612,-0.13252659,-0.44899914,0.113072395
1123,210660547,12.70649147,-15.3832798,-168.0279694,-0.060460646,-0.28275287,-0.06452274
1124,210677214,12.67511559,-15.36674404,-168.0404968,0.07868277,-0.05743487,-0.03376293
1125,210693881,12.65993023,-15.35900402,-168.0551605,0.09124368,0.067066684,0.16837215
1126,210710548,12.65244102,-15.3610239,-168.0740509,-0.07726245,0.019053264,0.26164818
1127,210727215,12.64912128,-15.37037754,-168.1031952,-0.0898694,-0.017336518,0.08491802
1128,210743882,12.62051678,-15.38045025,-168.1300049,0.014446983,0.12061339,-0.06000042
1129,210760549,12.57450676,-15.38534641,-168.1384888,0.056095324,0.31896192,-0.049682617
1130,210777216,12.54649544,-15.39492702,-168.1343536,-0.031253956,0.4146304,0.10498619
1131,210793883,12.53665543,-15.40134716,-168.1265717,-0.14961252,0.27603364,0.1174984
1132,210810550,12.52153111,-15.40179634,-168.1195374,-0.12718834,0.21566196,0.08968258
1133,210827217,12.50498581,-15.39330196,-168.1146545,-0.11620352,0.1553612,0.06271362
1134,210843884,12.49642849,-15.37872982,-168.1149445,-0.17419147,0.09443718,0.16754341
1135,210860551,12.49623871,-15.36000061,-168.1266632,-0.28238755,-0.029632803,0.19884396
1136,210877218,12.50926495,-15.33299828,-168.1543427,-0.3260457,-0.054290835,0.14168358
1137,210893885,12.54129601,-15.29642868,-168.1999054,-0.16110694,0.041338958,0.06457806
1138,210910552,12.58679771,-15.27020073,-168.2648315,0.028048627,0.13448615,0.082756996
1139,210927219,12.63723183,-15.26286411,-168.336731,0.054528974,0.10805633,0.17228508
1140,210943886,12.6928606,-15.2779417,-168.4168243,-0.041890394,0.036577575,0.065223694
1141,210960553,12.72359943,-15.28661251,-168.4859924,-0.082898274,0.060530216,-0.12498188
1142,210977220,12.74649906,-15.27741528,-168.5271454,0.037438698,0.2201149,-0.052937508
1143,210993887,12.79476929,-15.26806545,-168.5549316,0.23741664,0.24677663,0.16092777
1144,211010554,12.85529041,-15.28168297,-168.5927429,0.1269823,0.07304385,0.19708633
1145,211027221,12.87701511,-15.31284332,-168.6319275,0.0821767,0.115893565,-0.011100769
1146,211043888,12.87476349,-15.34569836,-168.6465302,0.07251249,0.28723747,-0.28226662
1147,211060555,12.87056828,-15.3555584,-168.62323,0.07416337,0.24011952,-0.25711155
1148,211077222,12.86962318,-15.34709167,-168.5836029,0.02513969,0.10996667,0.03231144
1149,211093889,12.87254524,-15.35210037,-168.5651398,-0.16056325,-0.07630326,0.37082577
1150,211110556,12.87552357,-15.38133144,-168.5839996,-0.20524433,-0.24790289,0.26473236
1151,211127223,12.8813324,-15.4198246,-168.6177673,-0.05521819,-0.1445914,0.021601677
1152,211143890,12.89168072,-15.4506464,-168.6487885,0.026759027,0.078191705,-0.1023407
1153,211160557,12.88399696,-15.4705286,-168.6671143,-0.05806988,0.09572226,-0.07053566
1154,211177224,12.86410427,-15.48208427,-168.6711273,-0.118705325,0.050723847,0.08192921
1155,211193891,12.875597,-15.50301361,-168.6866302,-0.18776299,-0.065042995,0.28284073
1156,211210558,12.90756702,-15.53731918,-168.7377777,-0.2526627,0.001814017,0.19248009
1157,211227225,12.94204521,-15.5743866,-168.8218689,-0.22272621,0.14849514,-0.023769379
1158,211243892,12.95228291,-15.59609032,-168.9098511,-0.13048433,0.23105378,-0.21061039
1159,211260559,12.9630127,-15.59781265,-168.9742279,0.027304413,0.28018075,-0.06953907
1160,211277226,12.99393559,-15.60872555,-169.0246124,0.047897417,0.2286829,0.12438011
1161,211293893,13.02861118,-15.63760757,-169.0704956,0.10103893,0.16474324,0.26116562
1162,211310560,13.07124329,-15.68030453,-169.1282806,0.040917497,0.048711043,0.31254196
1163,211327227,13.09801865,-15.75201797,-169.1972046,-0.113251485,0.2282123,-0.10614014
1164,211343894,13.09412766,-15.81723976,-169.2371826,-0.08829189,0.42199278,-0.307662
1165,211360561,13.10674953,-15.85342216,-169.2503204,-0.1261065,0.2590936,-0.0749588
1166,211377228,13.1455965,-15.86981487,-169.2715149,-0.16403207,-0.19765306,0.24113369
1167,211393895,13.16376495,-15.92246342,-169.3347015,0.023310991,-0.31176493,0.32752895
1168,211410562,13.16523933,-16.03895378,-169.4188385,0.25875717,-0.018493658,0.24901485
1169,211427229,13.08584118,-16.16110611,-169.4932098,-0.006986498,0.13888592,-0.28375912
1170,211443896,12.96280956,-16.26933098,-169.5393372,-0.002325499,0.31687284,-0.42906475
1171,211460563,12.83892632,-16.32354736,-169.5540314,0.001439368,-0.24307726,-0.15892601
1172,211477230,12.62390709,-16.37483025,-169.5437775,0.21872029,-0.62676084,-0.19074154
1173,211493897,12.11562634,-16.52737427,-169.4764862,0.5072762,0.15450087,-0.37122726
1174,211510564,11.32919693,-16.77997971,-169.3834686,0.96072006,1.3691313,0.05881977
1175,211527231,10.69935513,-17.18628883,-169.3170624,1.1239256,1.8661216,0.104307175
1176,211543898,9.853885651,-17.71224403,-169.2784271,1.1412312,-0.6990774,-1.1901388
1177,211560565,9.491580009,-18.18437767,-169.3165588,1.3992339,1.5623655,0.8881178
1178,211577232,9.415127754,-18.85563469,-169.4268494,0.6342624,0.5117096,2.2765818
1179,211593899,9.473161697,-19.64452171,-169.5438843,0.23803347,-0.8380768,0.81826496
1180,211610566,9.579128265,-20.59440422,-169.7331238,1.979266,-0.1331319,0.4031868
1181,211627233,9.663219452,-21.62677383,-169.9869843,2.92493,-1.2501773,0.84082985
1182,211643900,9.681516647,-22.71058464,-170.2898254,2.2143035,-1.7470276,0.53584576
1183,211660567,9.711625099,-23.81770897,-170.6721802,1.5693413,-0.514317,0.32241154
1184,211677234,9.770791054,-24.92975235,-171.0882721,0.575447,0.39898092,0.012814522
1185,211693901,9.998278618,-26.09386253,-171.4532776,-0.5650245,1.4618628,0.16300201
1186,211710568,10.34858131,-27.30233955,-171.7397461,-0.41905868,0.47425896,0.6142559
1187,211727235,10.74114323,-28.56117821,-171.9621277,-0.44885316,-0.6954664,0.7291527
1188,211743902,11.08837128,-29.89133263,-172.1548309,-0.5678172,-1.1208771,0.55288506
1189,211760569,11.3029623,-31.23485184,-172.3730469,-0.9249221,-0.8543751,-0.0642252
1190,211777236,11.474123,-32.55327606,-172.5736389,-0.6924264,0.16960844,-0.19452667
1191,211793903,11.73971081,-33.86622238,-172.7267456,-0.23971172,0.17780079,-0.1913557
1192,211810570,12.06515884,-35.192276,-172.8764954,-0.10272511,-0.25807634,-0.087052345
1193,211827237,12.42613316,-36.5318985,-173.0239716,-0.5552588,-0.6153681,0.17422485
1194,211843904,12.79809189,-37.91318512,-173.1715698,-1.1670148,-0.9136045,0.51884747
1195,211860571,13.19685268,-39.3754425,-173.3352203,-1.4809657,-0.6038467,0.5132675
1196,211877238,13.62346172,-40.88112259,-173.5208435,-0.6618762,-0.56027615,0.27770996
1197,211893905,13.97670937,-42.41923904,-173.7201538,-0.1942275,-0.2229557,-0.5528536
1198,211910572,14.30166912,-43.92403793,-173.8830872,-0.005255027,0.50155014,-0.5201807
1199,211927239,14.679142,-45.40934372,-174.0144653,-0.3858686,1.0953429,-0.40501976
1200,211943906,15.10429096,-46.88634109,-174.117569,-0.57689166,1.1743189,-0.07711983
1201,211960573,15.60860443,-48.34657288,-174.1695557,-0.7865318,1.2296871,0.06866455
1202,211977240,16.07862091,-49.79458237,-174.1796875,-0.38995323,0.40190285,-0.24411774
1203,211993907,16.53562546,-51.21367264,-174.17276,0.06626691,0.33996937,-0.17695332
1204,212010574,16.98613167,-52.62501144,-174.1846466,-0.20751865,0.12983523,-0.6041422
1205,212027241,17.49388123,-54.01753235,-174.2017059,0.022337578,-0.12941691,-0.2211132
1206,212043908,18.00346756,-55.37518311,-174.2371674,-0.23137905,-0.14665581,-0.19321823
1207,212060575,18.52293968,-56.70990753,-174.2866974,-0.2620322,0.3330447,-0.14333344
1208,212077242,19.07434845,-58.01262283,-174.3420715,-0.14845099,0.6236195,-0.22976017
1209,212093909,19.6680584,-59.27293396,-174.4003296,0.10017666,0.9199732,-0.24304104
1210,212110576,20.29580688,-60.50652313,-174.4402161,-0.27594984,1.0261406,-0.47811127
1211,212127243,20.97263527,-61.68758392,-174.3654633,-0.319735,0.757915,-0.26047802
1212,212143910,21.6937561,-62.842453,-174.2395325,-0.43884373,0.50019026,0.003768921
1213,212160577,22.40180016,-63.99968719,-174.096756,-0.37729132,-0.042255238,0.39077568
1214,212177244,23.09653854,-65.1386261,-174.0400543,-0.833767,-0.29180023,-0.02933979
1215,212193911,23.78875351,-66.32341003,-174.097702,-1.0009515,-0.20423853,-0.24925804
1216,212210578,24.47110558,-67.47682953,-174.1103516,-1.0263585,0.015151496,-0.19324207
1217,212227245,25.1538105,-68.62364197,-174.1295166,-0.81424856,0.13489644,0.18544197
1218,212243912,25.70209503,-69.68503571,-174.1149597,0.11567916,0.06223126,0.7473345
1219,212260579,26.26613235,-70.74862671,-174.2057343,-0.59624094,-0.5543383,0.21217823
1220,212277246,26.81733704,-71.81071472,-174.3876038,-0.77587116,-0.36613652,0.00112915
1221,212293913,27.42297935,-72.81624603,-174.6675262,-0.36201385,-0.23409753,-0.17921829
1222,212310580,28.05172729,-73.82879639,-175.0838928,-0.19460793,-0.051382054,-0.13429356
1223,212327247,28.65632248,-74.84108734,-175.4898376,-0.4195623,0.5873706,0.073679924
1224,212343914,29.04545784,-75.78757477,-175.7471008,0.44086075,1.1476523,0.21463108
1225,212360581,29.43828392,-76.66969299,-175.8347626,0.4532402,1.2666676,0.58798885
1226,212377248,30.00514412,-77.50802612,-176.0039978,0.24558313,0.85526294,0.5644398
1227,212393915,30.8067112,-78.35087585,-176.2962646,-0.0643693,-0.35730156,0.09203148
1228,212410582,31.81241608,-79.22796631,-176.8735352,-0.3186476,-1.1499395,-0.31783676
1229,212427249,32.86507797,-80.09386444,-177.6729736,0.108938485,-0.89674324,-0.09133625
1230,212443916,34.00026703,-80.97286987,-178.6860352,-0.34726536,-0.40738487,0.11838055
1231,212460583,35.14099121,-81.85237122,-179.7698364,-0.7306003,-0.04361017,0.15971279
1232,212477250,36.05552673,-82.68917084,179.3185577,-0.40242475,0.06384938,0.3243494
1233,212493917,36.86144638,-83.4852829,178.4388885,0.05622139,0.42937174,0.4326372
1234,212510584,38.00961304,-84.24868011,177.2149963,-0.31757185,0.4609332,0.39285183
1235,212527251,39.53594971,-84.96499634,175.7641907,-0.42935425,0.4687204,0.24246311
1236,212543918,41.27331924,-85.58984375,174.2406311,-0.22331549,0.12684292,0.33163166
1237,212560585,43.39543533,-86.12247467,172.4326019,0.06542517,-0.1879459,0.37661934
1238,212577252,46.05810928,-86.57343292,170.1010895,0.3097223,-0.22518528,0.3458624
1239,212593919,49.13599396,-86.95612335,167.3568726,0.5868618,-0.3002672,0.41446018
1240,212610586,52.39892197,-87.26076508,164.3865662,0.69112134,-0.25910416,0.43850136
1241,212627253,55.51901245,-87.50111389,161.4826508,0.6321715,-0.30272135,0.3825178
1242,212643920,58.83070755,-87.70578766,158.3425903,0.21325117,-0.24495545,0.25918484
1243,212660587,62.06736374,-87.87717438,155.2408295,-0.12079283,-0.15397282,0.1286745
1244,212677254,65.17680359,-88.02890778,152.2576904,-0.23514977,0.049949445,0.16018009
1245,212693921,67.78380585,-88.15422058,149.8072357,-0.201325,0.2961416,0.3194132
1246,212710588,69.3521347,-88.23863983,148.4163818,-0.18389992,0.16370524,0.40666008
1247,212727255,71.68833923,-88.30395508,146.2592316,-0.24447015,-0.18028298,0.3928957
1248,212743922,74.94701385,-88.35051727,143.1363373,-0.11436817,-0.45045516,0.12391758
1249,212760589,78.5070343,-88.39709473,139.6867371,0.15505508,-0.27559114,0.027960777
1250,212777256,81.52587128,-88.43351746,136.6921692,0.15836503,-0.06937887,0.08492565
1251,212793923,83.92525482,-88.46852112,134.30159,0.09033779,0.14351544,0.24465942
1252,212810590,85.92657471,-88.48858643,132.3200226,0.1826117,0.22579569,0.4443016
1253,212827257,88.49271393,-88.49741364,129.815033,0.20954876,0.27232292,0.39262104
1254,212843924,90.62023926,-88.49156189,127.7522049,0.044545237,0.082957506,0.2898178
1255,212860591,93.01717377,-88.48122406,125.4006882,-0.06483055,-0.016206924,0.121418
1256,212877258,94.82894135,-88.47582245,123.6042099,-0.05470379,-0.01468983,0.19291496
1257,212893925,96.06281281,-88.4704361,122.3524475,-0.45625377,0.21493922,0.20021152
1258,212910592,96.8010788,-88.45314026,121.6146622,-0.32825297,0.26780283,0.18292332
1259,212927259,97.55191803,-88.4235611,120.8929138,-0.09077336,0.11927556,0.1648035
1260,212943926,98.02783203,-88.39697266,120.477478,0.040335987,-0.06377428,0.26393318
1261,212960593,98.1002121,-88.36804962,120.4533768,0.044074688,-0.074578784,0.3717699
1262,212977260,97.99049377,-88.32789612,120.5897522,0.08993016,-0.24645577,0.22833824
1263,212993927,97.71784973,-88.2868576,120.8743515,0.029435484,-0.1763144,0.15108585
1264,213010594,97.46795654,-88.24475861,121.1218109,-0.04566325,-0.03081562,0.14902973
1265,213027261,97.35792542,-88.20834351,121.2486343,-0.25236395,0.06752539,0.11075878
1266,213043928,97.73060608,-88.17801666,120.9343491,-0.45286205,-0.112963,0.077487946
1267,213060595,97.79595947,-88.15538788,120.9077759,-0.5158965,-0.34473667,0.18453884
1268,213077262,97.90010834,-88.1240387,120.7933197,-0.29463696,-0.22795863,0.15383244
1269,213093929,97.35929108,-88.09248352,121.2906265,-0.09188768,-0.13575071,0.18198681
1270,213110596,96.1499176,-88.05761719,122.4461441,-0.15548907,-0.02186605,0.31050396
1271,213127263,94.26052856,-88.01229858,124.3001251,-0.31114736,-0.07407879,0.21868229
1272,213143930,92.08184052,-87.96077728,126.4750519,-0.5602102,-0.26842877,0.24491882
1273,213160597,89.74145508,-87.902771,128.8301697,-0.25456813,-0.24394338,0.26830196
1274,213177264,87.3936615,-87.83110809,131.1738586,-0.007573178,-0.08309798,0.2871828
1275,213193931,84.87497711,-87.74666595,133.6538086,-0.12845412,0.033335727,0.17402554
1276,213210598,81.92805481,-87.65607452,136.5752411,-0.31433383,-0.019980382,0.096426964
1277,213227265,78.72619629,-87.56000519,139.8288574,-0.1772536,-0.0383508,0.17553425
1278,213243932,75.69651794,-87.44426727,142.9506226,-0.09108102,-0.040599786,0.19314098
1279,213260599,72.43801117,-87.29679871,146.2906189,0.28566274,0.06314744,0.3492937
1280,213277266,69.21741486,-87.10856628,149.5584564,0.50043225,0.10914775,0.3489418
1281,213293933,66.24613953,-86.89272308,152.504837,0.29418704,0.080875814,0.285388
1282,213310600,64.08489227,-86.6866684,154.646225,-0.3509478,-0.12318157,0.05944729
1283,213327267,62.31115341,-86.5025177,156.4086151,-0.59323674,-0.31807938,-0.026888847
1284,213343934,60.72880554,-86.34114838,157.9595795,-0.41824666,-0.34428382,-0.08780289
1285,213360601,59.13222122,-86.19419098,159.4732513,0.09152157,-0.18796624,0.05373001
1286,213377268,57.04769516,-86.02462769,161.3841095,0.4364201,-0.114658795,0.37487411
1287,213393935,55.17343903,-85.8261261,163.00354,0.5124336,-0.17420109,0.4329567
1288,213410602,53.61148834,-85.60729218,164.2445068,0.10585696,-0.14162642,0.3419428
1289,213427269,52.26467514,-85.38509369,165.2888489,-0.40093967,-0.038704734,0.12502384
1290,213443936,50.81381607,-85.13546753,166.516098,-0.45261478,0.009443758,0.09169769
1291,213460603,49.17997742,-84.84064484,168.0040131,-0.36125404,0.028211247,0.2577324
1292,213477270,47.58798981,-84.51230621,169.4581909,-0.440874,-0.06830668,0.3484192
1293,213493937,46.44411469,-84.18877411,170.4495544,-0.61702013,-0.085816234,0.21806145
1294,213510604,45.49163055,-83.85636902,171.222702,-0.3523784,-0.13347602,0.06823158
1295,213527271,44.45104218,-83.49564362,172.0770569,-0.0931659,0.08059609,0.17706966
1296,213543938,43.41699219,-83.09584045,173.0102692,0.23888959,0.38585714,0.3841381
1297,213560605,42.07770538,-82.64112854,174.3458557,0.048361834,0.28823325,0.388484
1298,213577272,40.90925217,-82.16659546,175.6051636,-0.27908614,0.12952597,0.16013527
1299,213593939,39.87417221,-81.66685486,176.75354,0.084068336,-0.47138268,0.015620232
1300,213610606,38.8578949,-81.16433716,177.8012695,0.5275952,-0.6276691,0.33000946
1301,213627273,38.03625107,-80.67938995,178.4866486,0.511999,-0.3101345,0.33606434
1302,213643940,37.31602097,-80.23235321,179.0084076,-0.28477243,-0.34915885,-0.15335083
1303,213660607,36.5475502,-79.81454468,179.5772705,-0.5829256,-0.61954325,-0.4553175
1304,213677274,35.77860641,-79.42692566,-179.9093628,-0.38041624,-0.7955361,-0.1466589
1305,213693941,34.93376923,-79.07207489,-179.3859253,0.053732432,-0.54455453,0.42524147
1306,213710608,34.14850616,-78.7469635,-178.9871063,0.071390316,0.24963436,0.6388273
1307,213727275,33.54829025,-78.41928864,-178.6647797,-0.15666173,0.67558044,0.39451027
1308,213743942,33.17577362,-78.10507965,-178.4114532,-0.6039413,0.6912946,-0.09562588
1309,213760609,32.86983871,-77.79992676,-178.0535583,-0.45611662,0.4138292,-0.2958727
1310,213777276,32.54272842,-77.51394653,-177.5947266,-0.23662008,0.1136674,0.046780586
1311,213793943,32.24403,-77.24401855,-177.1735992,-0.3299556,-0.16542462,0.2942686
1312,213810610,31.92691803,-76.97155762,-176.7880554,0.13669616,-0.2360195,0.32862568
1313,213827277,31.57349968,-76.69342804,-176.4387665,0.6767441,0.15035136,0.52022076
1314,213843944,31.19987488,-76.37046814,-176.109726,0.8937132,0.37545773,0.42216778
1315,213860611,30.93590355,-76.05149078,-175.8887939,-0.09103705,0.641643,-0.011581421
1316,213877278,30.69153786,-75.70366669,-175.571579,-0.40979436,0.35077152,-0.2480011
1317,213893945,30.4557972,-75.3407135,-175.1672668,-0.57241994,0.115005575,0.1276846
1318,213910612,30.27258682,-74.94962311,-174.8144379,-0.14320156,0.21482746,0.54636383
1319,213927279,30.0447216,-74.49784088,-174.4647675,0.9029682,0.4984719,0.95546436
1320,213943946,29.7142868,-73.92990112,-174.0173492,2.023074,1.0642637,1.3366327
1321,213960613,29.40743446,-73.22699738,-173.5961456,0.45695078,0.60817844,0.3668909
1322,213977280,29.38162231,-72.5891037,-173.578064,-1.605425,0.23026484,-1.227437
1323,213993947,29.4351368,-72.00977325,-173.4170227,-0.94088787,-0.819411,-1.4316368
1324,214010614,29.33971024,-71.42300415,-173.1442719,-0.6272823,-0.9775286,0.08267975
1325,214027281,29.11736298,-70.73625946,-172.9004974,0.10550965,-0.66269493,1.411273
1326,214043948,28.79109955,-69.96308899,-172.6742401,1.2758248,0.25844288,1.9499102
1327,214060615,28.40522194,-69.1402359,-172.4983215,0.7484583,0.5063748,1.4680319
1328,214077282,28.24505806,-68.36139679,-172.5951996,-1.0724385,0.18079092,-0.4887352
1329,214093949,28.29910469,-67.6015625,-172.8292084,-0.94318825,0.0830135,-1.4289484
1330,214110616,28.2564106,-66.78255463,-172.8491058,0.4927731,-0.25041795,-1.0651598
1331,214127283,28.0923214,-65.94139862,-172.7954712,0.76297843,-0.7766986,0.30200195
1332,214143950,28.08900452,-65.11998749,-172.941925,0.72334474,-0.4695202,1.4383202
1333,214160617,28.20790863,-64.29039764,-173.3373718,1.1791703,-0.31574222,1.5857773
1334,214177284,28.33162117,-63.41159821,-173.8996277,0.98459303,-0.3224251,0.8981104
1335,214193951,28.03911018,-62.46755219,-174.3439331,-1.6192364,0.5477234,-1.2681017
1336,214210618,27.55183983,-61.45644379,-174.383667,-0.810077,1.6867374,-2.22612
1337,214227285,26.9607563,-60.46323776,-174.3449097,-0.40263385,1.5532963,-1.5953951
1338,214243952,26.50985718,-59.51553726,-174.2878418,-0.255653,0.056908075,0.52029514
1339,214260619,26.03463745,-58.54573822,-174.2699585,-0.33765027,-0.82414013,2.2225237
1340,214277286,25.58350182,-57.57837296,-174.3934479,-1.3036288,-0.39768744,1.7373943
1341,214293953,24.9270916,-56.38664627,-174.4593964,-1.6211841,1.0132781,-0.75259876
1342,214310620,24.34122086,-55.1509285,-174.331665,0.3643584,1.2731751,-2.0332012
1343,214327287,23.56553459,-53.92011642,-173.9469147,1.1085202,-0.23042706,-1.2521944
1344,214343954,22.82122612,-52.71487427,-173.5336151,-0.04786442,-1.1967428,-0.09875488
1345,214360621,22.25306702,-51.57046127,-173.3555603,-0.43451017,-1.6068372,1.0705185
1346,214377288,21.61557198,-50.45687103,-173.3260651,-0.31443155,-1.4242384,0.9832277
1347,214393955,20.83141518,-49.24590302,-173.2601166,-0.43119353,-0.37660113,-0.06717205
1348,214410622,20.01560211,-47.85514832,-173.0610809,0.17743962,1.438479,-1.3402338
1349,214427289,19.28960228,-46.45400238,-172.8079071,0.70751196,1.6357015,-1.610549
1350,214443956,18.75700378,-45.14941025,-172.5721893,-0.09539726,0.8636555,-1.0268927
1351,214460623,18.25984955,-43.90019989,-172.364502,-1.3130213,-0.5744461,0.3242216
1352,214477290,17.62796402,-42.69464874,-172.2253876,-1.7288632,-1.4793541,0.9451275
1353,214493957,16.85653687,-41.45095062,-172.0542145,-1.1938604,-0.7754797,0.29654503
1354,214510624,16.00981903,-40.15067291,-171.8515472,-0.41332173,0.07269929,-0.60085964
1355,214527291,15.30587673,-38.80967331,-171.6678009,-0.08123778,0.80812854,-0.65030193
1356,214543958,14.86912727,-37.55533981,-171.598526,-1.0190412,0.15554,0.15374184
1357,214560625,14.51537991,-36.36980057,-171.5431061,-1.4477788,-0.6610043,0.86295795
1358,214577292,14.01802063,-35.23691559,-171.4592438,-0.40049934,-1.1753772,0.63718796
1359,214593959,13.36708069,-34.10345078,-171.321991,0.4867355,-0.5115465,-0.58085155
1360,214610626,12.72413063,-32.88175964,-171.178772,0.6858229,1.3826352,-0.9132395
1361,214627293,12.40802288,-31.67433929,-171.0454712,0.4149212,1.8462442,-0.050750732
1362,214643960,12.20796776,-30.50565338,-170.8748932,-0.1121226,-0.09275595,0.65679455
1363,214660627,11.98295403,-29.3943615,-170.6636353,0.34511462,-1.1898671,0.9588051
1364,214677294,11.65979004,-28.30732346,-170.413147,1.086146,-1.5984435,0.14663982
1365,214693961,11.12133408,-27.16610527,-170.1759338,1.258097,-0.18551084,-1.1045036
1366,214710628,10.81353951,-26.04397583,-169.959198,1.2497307,1.3170877,-0.03092575
1367,214727295,10.65716457,-24.98411942,-169.6933594,-0.27490494,0.3841457,0.943491
1368,214743962,10.6710062,-23.98550987,-169.4373322,-0.6879872,0.20580944,1.1621981
1369,214760629,10.8570919,-23.15998077,-169.1932068,-0.007106874,-0.60213315,2.0266485
1370,214777296,10.98713493,-22.48071098,-168.9538269,-0.60939246,-1.5850011,1.4990606
1371,214793963,11.01881599,-21.80274773,-168.7545624,-0.6185909,-1.0103781,0.5442085
1372,214810630,11.03932762,-21.14146614,-168.5996552,0.07373697,-0.5086107,0.05606556
1373,214827297,11.0178051,-20.52205467,-168.4698639,0.40530363,-0.8479031,-0.11523247
1374,214843964,10.9081974,-19.93971252,-168.3462982,0.55978376,-1.0031353,-0.31714058
1375,214860631,10.73963642,-19.40488434,-168.2283478,0.77184635,-0.3045689,-0.2639866
1376,214877298,10.62392807,-18.9327755,-168.1330261,0.9074972,0.43361962,0.08390999
1377,214893965,10.58268738,-18.56674004,-168.0822754,0.5177022,0.7821688,-0.061276436
1378,214910632,10.60328102,-18.29265213,-168.0481262,0.19898409,1.447607,0.007637024
1379,214927299,10.68079472,-18.07444,-168.0167694,-0.14764996,1.4119436,0.21545601
1380,214943966,10.78705883,-17.88083076,-167.9822998,-0.393995,1.4642022,0.16701508
1381,214960633,10.90178967,-17.70933723,-167.9305115,-0.3703632,1.5019435,-0.046494484
1382,214977300,10.99326515,-17.56238937,-167.848526,-0.3569194,1.3349001,-0.0589962
1383,214993967,11.08198929,-17.41643524,-167.7661285,-0.313097,1.0984083,0.0325346
1384,215010634,11.23739719,-17.26402473,-167.6824036,-0.09781135,0.94694394,-0.14219093
1385,215027301,11.45447922,-17.09175682,-167.5762634,-0.11411907,0.5378087,0.067373276
1386,215043968,11.67858982,-16.90351295,-167.4607544,0.011708349,0.02026965,0.098864555
1387,215060635,11.86521149,-16.69837761,-167.3558044,0.30924687,-0.23206815,0.1473341
1388,215077302,12.01914501,-16.49339676,-167.2754974,0.3280829,-0.5782327,0.30508518
1389,215093969,12.14618015,-16.32938957,-167.2380371,0.36489597,-0.68358785,0.21082592
1390,215110636,12.23168945,-16.22015572,-167.2226868,0.52429235,-0.5343104,0.010941505
1391,215127303,12.30966759,-16.13669777,-167.2096558,0.51577985,-0.2685241,0.059318542
1392,215143970,12.43058872,-16.0417366,-167.2071381,0.28732267,-0.43270096,0.09841347
1393,215160637,12.52580643,-15.92434883,-167.2156372,0.3250511,-0.34713426,-0.08072376
1394,215177304,12.54870892,-15.79564571,-167.2157288,0.56726784,-0.014835463,0.055879593
1395,215193971,12.57192802,-15.71034718,-167.2205658,0.34915933,-0.001966188,0.3553362
1396,215210638,12.61330318,-15.6911459,-167.2476959,-0.11918034,-0.15365447,0.24845219
1397,215227305,12.65061188,-15.69321728,-167.2898407,-0.21456638,-0.04364286,-0.040236473
1398,215243972,12.68617344,-15.66379929,-167.3199463,-0.12552185,0.06064538,-0.03578949
1399,215260639,12.73051643,-15.59988785,-167.3334961,-0.022742666,-0.040808424,0.15150738
1400,215277306,12.76961613,-15.52949905,-167.3605957,0.06787218,-0.134308,0.2857933
1401,215293973,12.80207348,-15.50412655,-167.4241333,0.25168642,-0.040263902,0.09203434
1402,215310640,12.81706905,-15.53405857,-167.500824,0.4369918,0.27546003,-0.1862688
