PacketCounter_tibia,SampleTimeFine_tibia,Euler_X_tibia,Euler_Y_tibia,Euler_Z_tibia,FreeAcc_X_tibia,FreeAcc_Y_tibia,FreeAcc_Z_tibia
1,191960173,-168.7403259,-80.91876984,34.56534958,-0.16278477,0.10561982,-0.018074036
2,191976840,-168.7287903,-80.91939545,34.55561829,-0.16094895,0.12491882,-0.020165443
3,191993507,-168.727005,-80.91874695,34.55774689,-0.13888654,0.12564446,-0.027033806
4,192010174,-168.7336731,-80.91770935,34.57279587,-0.12210753,0.11401418,-0.017333984
5,192026841,-168.7399292,-80.91680145,34.58462143,-0.1029594,0.09614018,-0.013852119
6,192043508,-168.738739,-80.91563416,34.5876503,-0.085471965,0.05593367,-0.030175209
7,192060175,-168.7276306,-80.91459656,34.57881927,-0.06432927,0.038741164,-0.022942543
8,192076842,-168.7089539,-80.91200256,34.55617905,-0.09007025,0.039980434,-0.006217957
9,192093509,-168.6875763,-80.90925598,34.53167725,-0.11718075,0.08804846,-0.018295288
10,192110176,-168.6749573,-80.90655518,34.51934433,-0.14031456,0.09250732,-0.008465767
11,192126843,-168.6722717,-80.90497589,34.52020645,-0.16875413,0.06714821,-0.02577877
12,192143510,-168.6600647,-80.90496063,34.51270676,-0.15443684,0.049995378,-0.03437996
13,192160177,-168.6448822,-80.90549469,34.5010376,-0.13452026,0.08691715,-0.022068024
14,192176844,-168.6274567,-80.90379333,34.48729324,-0.1295109,0.11587683,-0.03967285
15,192193511,-168.6094055,-80.90228271,34.4722023,-0.1462884,0.11244434,-0.0170784
16,192210178,-168.6127625,-80.90189362,34.47834778,-0.13520953,0.11020105,-0.016304016
17,192226845,-168.6357574,-80.90137482,34.50650024,-0.14868858,0.11415388,-0.03507805
18,192243512,-168.6535797,-80.902771,34.53643799,-0.12608014,0.050504316,-0.025997162
19,192260179,-168.6586151,-80.90411377,34.54951096,-0.102233596,0.043351345,-0.014811516
20,192276846,-168.6424561,-80.90206146,34.53697586,-0.08945983,0.027752599,-0.01914215
21,192293513,-168.6184692,-80.90029144,34.5112915,-0.086462915,0.042829774,-0.017703056
22,192310180,-168.5926971,-80.90029144,34.48202515,-0.113040894,0.07925032,-0.010224342
23,192326847,-168.5785065,-80.89968109,34.46754456,-0.1323595,0.09791544,-0.0323143
24,192343514,-168.5599365,-80.90070343,34.45328522,-0.13238935,0.087658316,-0.021077156
25,192360181,-168.5366669,-80.89914703,34.43663406,-0.109595165,0.07437394,-0.012308121
26,192376848,-168.4983673,-80.89834595,34.40379715,-0.08963887,0.060671363,-0.01636219
27,192393515,-168.466217,-80.89614868,34.36954117,-0.10313659,0.07316417,-0.0244627
28,192410182,-168.4479065,-80.89485168,34.3468132,-0.12506332,0.10421303,-0.006587029
29,192426849,-168.4385529,-80.89199829,34.33584595,-0.14564322,0.10470967,-0.018838882
30,192443516,-168.4337921,-80.89170074,34.33483887,-0.1446953,0.10586993,-0.048030853
31,192460183,-168.4266663,-80.89134979,34.33331299,-0.16743372,0.060334083,-0.03422737
32,192476850,-168.4226837,-80.89247894,34.33381653,-0.17654662,0.07170016,-0.030133247
33,192493517,-168.4235687,-80.89263153,34.34335709,-0.13248406,0.11300871,-2.05E-04
34,192510184,-168.421524,-80.89273834,34.35603714,-0.10246672,0.08905974,-8.80E-04
35,192526851,-168.3990326,-80.89147949,34.34524155,-0.08776169,0.033574328,-0.023098946
36,192543518,-168.3778534,-80.8914032,34.33081055,-0.08571426,0.02403513,-0.021603584
37,192560185,-168.3520966,-80.89199829,34.30898285,-0.058425896,0.007534622,-0.013401985
38,192576852,-168.3244324,-80.89066315,34.26589966,-0.037631534,0.023935108,-0.014054298
39,192593519,-168.2917175,-80.88803101,34.22355652,-0.080149285,0.046608374,-0.023088455
40,192610186,-168.2602386,-80.88468933,34.17204285,-0.14049226,0.11301575,-0.012374878
41,192626853,-168.24086,-80.88327026,34.14168167,-0.16784325,0.119080104,-0.031437874
42,192643520,-168.2283478,-80.88173676,34.1252327,-0.15546907,0.10693832,-0.024119377
43,192660187,-168.2178955,-80.87872314,34.10986328,-0.1306317,0.09911324,-0.02527523
44,192676854,-168.2065735,-80.87665558,34.08963776,-0.12805638,0.09830927,-0.018343925
45,192693521,-168.2073975,-80.87428284,34.09370041,-0.15532088,0.089786716,-0.01999569
46,192710188,-168.2166901,-80.87432861,34.1035347,-0.1240712,0.055583537,-0.028660774
47,192726855,-168.2131653,-80.87364197,34.11775208,-0.083241194,0.016525207,-0.028113365
48,192743522,-168.1979523,-80.87340546,34.10952377,-0.063828535,0.001927129,-0.009302139
49,192760189,-168.1661224,-80.87290955,34.07899857,-0.06780048,0.014561757,-0.004594803
50,192776856,-168.1275482,-80.87299347,34.04182816,-0.06656288,0.030825678,-0.033578873
51,192793523,-168.0874329,-80.87284088,34.0008049,-0.064817525,0.03847608,-0.010890007
52,192810190,-168.0417938,-80.87213135,33.95198441,-0.08453813,0.07401006,-0.02306652
53,192826857,-167.9969788,-80.87086487,33.9028511,-0.12200528,0.08987635,-0.017745972
54,192843524,-167.9528351,-80.86851501,33.86076355,-0.1264129,0.117121235,-0.022880554
55,192860191,-167.9289398,-80.8662796,33.84179306,-0.12830745,0.11350167,-0.02274704
56,192876858,-167.9107666,-80.86438751,33.82647324,-0.13266924,0.10453511,-0.015156746
57,192893525,-167.8943024,-80.86274719,33.81100845,-0.13389286,0.10375762,-0.00395298
58,192910192,-167.882431,-80.8602829,33.80487442,-0.13020451,0.10349075,-0.022274017
59,192926859,-167.8701324,-80.85980225,33.80241013,-0.10011738,0.08055742,-0.022147179
60,192943526,-167.863266,-80.85887909,33.80319214,-0.09889594,0.041936506,-0.023148537
61,192960193,-167.8526611,-80.85678101,33.79850388,-0.089861035,0.033979446,-0.007324219
62,192976860,-167.8294678,-80.85649872,33.78294373,-0.07023034,0.032484703,-0.017507553
63,192993527,-167.7964783,-80.85389709,33.7538681,-0.05166133,0.007740812,-0.036471367
64,193010194,-167.7602692,-80.85227966,33.71378326,-0.07210282,0.050454587,-0.02045536
65,193026861,-167.7312775,-80.85110474,33.67718887,-0.10769262,0.08280406,-0.025870323
66,193043528,-167.7173309,-80.85019684,33.66354752,-0.12673101,0.09406755,-0.017764091
67,193060195,-167.700531,-80.84820557,33.65063477,-0.14288932,0.091938704,-0.021338463
68,193076862,-167.6898651,-80.84599304,33.64041519,-0.15706842,0.092538945,-0.022506714
69,193093529,-167.6825409,-80.84436035,33.63875198,-0.1516042,0.113752,-0.025485992
70,193110196,-167.687027,-80.84288025,33.65512085,-0.12867138,0.1298084,-0.003034592
71,193126863,-167.7050171,-80.84191132,33.68672943,-0.10112034,0.055028442,-0.013496399
72,193143530,-167.7175293,-80.84298706,33.70933914,-0.09730748,0.02519494,-0.04173374
73,193160197,-167.7177582,-80.8444519,33.71981049,-0.055885058,0.029666092,-0.0363245
74,193176864,-167.7004242,-80.84522247,33.71285629,-0.045324236,0.012146588,-0.028167725
75,193193531,-167.6562653,-80.84470367,33.67485809,-0.026125591,-0.006319829,-0.004162788
76,193210198,-167.6166077,-80.8445816,33.63203049,-0.042431645,6.50E-04,-0.002972603
77,193226865,-167.5679779,-80.84313965,33.57619095,-0.07277269,0.06832199,-6.02E-04
78,193243532,-167.5269165,-80.8415451,33.53204727,-0.08663647,0.093000054,-0.02956009
79,193260199,-167.4835968,-80.83768463,33.48894882,-0.122613564,0.09561292,-0.024739265
80,193276866,-167.4620819,-80.83288574,33.4642868,-0.12220325,0.086201124,-0.019442558
81,193293533,-167.4436035,-80.83063507,33.44747543,-0.15342209,0.08733389,-0.002095223
82,193310200,-167.4236755,-80.82672882,33.435009,-0.14034832,0.07773792,-0.045025826
83,193326867,-167.4047241,-80.8236084,33.42615128,-0.116485395,0.035011068,-0.03473091
84,193343534,-167.3720245,-80.82093048,33.40065765,-0.07594546,0.029685427,-0.026125908
85,193360201,-167.3359528,-80.81829834,33.36579514,-0.08949129,0.002965123,-0.023712158
86,193376868,-167.3176575,-80.81874847,33.34445953,-0.11084276,0.03163457,-0.018257141
87,193393535,-167.3048096,-80.81930542,33.33525085,-0.10989635,0.064515226,-0.0217247
88,193410202,-167.2915344,-80.8204422,33.33102798,-0.08800214,0.07065211,-0.022621155
89,193426869,-167.2625885,-80.82069397,33.31139755,-0.059386667,0.05190038,-0.031606674
90,193443536,-167.2267303,-80.82059479,33.28078842,-0.06919296,0.07960135,-0.00916481
91,193460203,-167.2066193,-80.81898499,33.26443863,-0.08213218,0.05772647,0.002681732
92,193476870,-167.1952667,-80.81791687,33.2554245,-0.08990345,0.068067186,-0.010467529
93,193493537,-167.1818695,-80.8156662,33.24356461,-0.08495934,0.0625016,-0.031345367
94,193510204,-167.1819458,-80.81271362,33.24422836,-0.11926769,0.060446396,-0.027296066
95,193526871,-167.1853027,-80.81076813,33.25187302,-0.12210999,0.08467844,-0.011384964
96,193543538,-167.1841278,-80.80982971,33.26254272,-0.13357581,0.07067726,-0.024585724
97,193560205,-167.1932526,-80.81089783,33.28603745,-0.09449692,0.028735496,-0.026918411
98,193576872,-167.1947784,-80.81134033,33.29803467,-0.04808043,0.03591641,-0.024540901
99,193593539,-167.191452,-80.81149292,33.30295181,-0.052693907,0.013047233,-0.017634392
100,193610206,-167.168808,-80.81074524,33.28494263,-0.064561106,0.01654443,-0.017412186
101,193626873,-167.1453857,-80.81002045,33.26613998,-0.04097255,0.030992307,-0.015985489
102,193643540,-167.1190643,-80.80922699,33.24266434,-0.02600143,0.020979485,0.003520966
103,193660207,-167.0775452,-80.80659485,33.19922256,-0.057600573,0.045330215,-0.02350235
104,193676874,-167.0440216,-80.80435944,33.16522598,-0.092815764,0.057791732,-0.033041
105,193693541,-167.0155792,-80.80303192,33.13708496,-0.113180704,0.06495231,-0.021122932
106,193710208,-166.9903717,-80.80149078,33.10820007,-0.1185468,0.09497189,-0.01021862
107,193726875,-166.9833832,-80.79899597,33.1010704,-0.108403504,0.078967236,-0.011989594
108,193743542,-166.9781494,-80.79756165,33.09258652,-0.10683137,0.06213772,-0.014734268
109,193760209,-166.9805603,-80.79708862,33.08952332,-0.11186583,0.03724329,-0.015228272
110,193776876,-166.9861603,-80.79766846,33.09181213,-0.1129264,0.07022844,-0.027508736
111,193793543,-166.9833069,-80.79892731,33.09017563,-0.06804332,0.034653112,-0.013816834
112,193810210,-166.9711761,-80.79867554,33.07247925,-0.076753624,0.050548125,-0.015375137
113,193826877,-166.9589081,-80.79790497,33.05640793,-0.0936783,0.046024,-0.03921032
114,193843544,-166.9532013,-80.79760742,33.0541954,-0.08312603,0.05806766,-0.030701637
115,193860211,-166.9478912,-80.79826355,33.05393982,-0.049019128,0.037158918,-0.024131775
116,193876878,-166.9343414,-80.79675293,33.03693771,-0.03400096,0.019586775,-0.00280571
117,193893545,-166.9090729,-80.79470062,33.00357437,-0.0470492,0.04983445,-0.004649162
118,193910212,-166.8816376,-80.79115295,32.96755219,-0.061629508,0.058463838,-0.02908516
119,193926879,-166.8562164,-80.78827667,32.93815613,-0.07878474,0.051083103,-0.023022652
120,193943546,-166.8286438,-80.78616333,32.90672684,-0.078465395,0.024945835,-0.021668434
121,193960213,-166.8024902,-80.78491211,32.87511826,-0.07926121,0.017030904,-0.007616043
122,193976880,-166.7691803,-80.78408051,32.83574295,-0.07584057,0.028242202,-0.02323246
123,193993547,-166.7392731,-80.78232574,32.79769516,-0.07717316,0.041727185,-0.025637627
124,194010214,-166.7071228,-80.78038788,32.75710297,-0.065993376,0.062155936,-0.016994476
125,194026881,-166.6784668,-80.7786026,32.7182045,-0.06328585,0.069092214,-0.026520729
126,194043548,-166.6573181,-80.77700043,32.69028473,-0.073701054,0.095757976,-0.013320923
127,194060215,-166.6330261,-80.77646637,32.6634407,-0.09504704,0.053903054,-0.012685776
128,194076882,-166.6190948,-80.77540588,32.64798737,-0.09390349,0.08569799,-0.012887955
129,194093549,-166.6203613,-80.7752533,32.64891815,-0.09312086,0.07280823,-0.02362442
130,194110216,-166.6234436,-80.77559662,32.64917755,-0.082879886,0.040159244,-0.01824379
131,194126883,-166.6298218,-80.77533722,32.64958954,-0.08073193,0.05512992,-0.02344513
132,194143550,-166.6280518,-80.77559662,32.64105988,-0.08074182,0.04570583,-0.014900208
133,194160217,-166.6154785,-80.77561188,32.62613678,-0.06781003,0.056405842,-0.023002625
134,194176884,-166.6038361,-80.77527618,32.62452316,-0.06341672,0.044890676,-0.011171341
135,194193551,-166.6002808,-80.77497101,32.63448715,-0.071721956,0.041040108,-0.017565727
136,194210218,-166.6046448,-80.77442169,32.65085983,-0.06545683,0.038337056,-0.012838364
137,194226885,-166.5967865,-80.77490997,32.65566254,-0.038574535,0.023799548,-0.01683712
138,194243552,-166.5869446,-80.77291107,32.65250778,-0.035373773,0.022386163,-0.020319939
139,194260219,-166.5609589,-80.77129364,32.62911606,-0.042377442,0.004111074,-0.021235466
140,194276886,-166.5302277,-80.76984406,32.60076904,-0.05878631,0.038223732,-0.00661087
141,194293553,-166.5012054,-80.76747894,32.57781982,-0.08031402,0.030619375,-0.011994362
142,194310220,-166.4733429,-80.76460266,32.55763245,-0.057766307,0.05259405,-0.03459835
143,194326887,-166.4531403,-80.76171875,32.54714584,-0.047447722,0.063259974,-0.011956215
144,194343554,-166.4286957,-80.75979614,32.52739334,-0.04697717,0.011731749,-0.012093544
145,194360221,-166.3941803,-80.75885773,32.49423218,-0.082376316,0.012162234,-0.030150414
146,194376888,-166.3576813,-80.75652313,32.45814896,-0.087342046,0.030915307,-0.024957657
147,194393555,-166.3182068,-80.7539978,32.4198494,-0.079949245,0.05971942,-0.024727821
148,194410222,-166.2846069,-80.75292969,32.38611221,-0.1003676,0.07439741,-0.004133225
149,194426889,-166.2605591,-80.75286865,32.36752701,-0.10681528,0.081909455,-0.01788044
150,194443556,-166.2519073,-80.7510376,32.37143707,-0.08354283,0.09030728,-0.016088486
151,194460223,-166.2519989,-80.74885559,32.38053513,-0.060940526,0.07427134,-0.014249802
152,194476890,-166.2576447,-80.74784851,32.38889313,-0.053618245,0.04174015,-0.020768166
153,194493557,-166.2753754,-80.74542999,32.40540314,-0.07263567,0.08008748,-0.011154175
154,194510224,-166.2849121,-80.74315643,32.42168427,-0.091446415,0.0504975,-0.020897865
155,194526891,-166.2923126,-80.74217987,32.44218826,-0.084578864,0.036213458,-0.027852058
156,194543558,-166.2939758,-80.74158478,32.45976257,-0.07656285,0.004109286,-0.039447784
157,194560225,-166.3010101,-80.74195099,32.47997665,-0.055707697,-0.014491574,-0.038435936
158,194576892,-166.2906799,-80.74326324,32.47873688,-0.038192663,-0.047383405,-0.0084095
159,194593559,-166.2785797,-80.74384308,32.46813202,-0.039787933,-0.003711544,-0.002206802
160,194610226,-166.2572937,-80.74451447,32.4469986,-0.04552115,0.036733348,-0.028050423
161,194626893,-166.2170258,-80.74390411,32.41278458,-0.05505521,0.06586804,-0.020962715
162,194643560,-166.1798706,-80.74208069,32.38360596,-0.02951511,0.052642554,-0.017190933
163,194660227,-166.1461639,-80.74085236,32.35867691,-0.025353018,0.033198155,-0.005706787
164,194676894,-166.1083069,-80.73802185,32.32693863,-0.023370404,0.028823225,-0.015881538
165,194693561,-166.0750732,-80.73448181,32.29552078,-0.04534016,0.026847146,-0.028446198
166,194710228,-166.0492706,-80.73057556,32.26829529,-0.059218474,0.028331608,-0.02749443
167,194726895,-166.0236359,-80.7276535,32.23748016,-0.06694716,0.021534914,-0.010191917
168,194743562,-165.9983521,-80.72425842,32.20807648,-0.08308859,0.069186874,-0.009261131
169,194760229,-165.966095,-80.72294617,32.17939758,-0.10765379,0.056112368,-0.03610134
170,194776896,-165.9471588,-80.72108459,32.16755676,-0.10598152,0.070432395,-0.024093628
171,194793563,-165.9356232,-80.7195816,32.16506958,-0.088325895,0.05852273,-0.026539803
172,194810230,-165.9309235,-80.71990204,32.16890717,-0.06642313,0.036920093,-0.016971588
173,194826897,-165.9244385,-80.72015381,32.16554642,-0.058599062,0.039620467,-0.001414299
174,194843564,-165.9278107,-80.71905518,32.17259598,-0.06878958,0.06858517,-0.037809372
175,194860231,-165.9371338,-80.71736145,32.1860733,-0.07077309,0.04478596,-0.037546158
176,194876898,-165.9490967,-80.71780396,32.20270157,-0.06365347,0.057015806,-0.018474579
177,194893565,-165.9635468,-80.71839905,32.2251358,-0.09846718,0.046739243,-0.028346062
178,194910232,-165.9772644,-80.72032166,32.25159836,-0.086955205,0.030762088,-0.030465126
179,194926899,-165.980835,-80.72096252,32.26853943,-0.042479362,0.015981624,-0.023601532
180,194943566,-165.9776917,-80.72028351,32.27715683,-0.016179098,0.036936074,-0.019207954
181,194960233,-165.9499054,-80.71994019,32.25783539,-0.001062022,-0.03932062,-0.025512695
182,194976900,-165.9158325,-80.71862793,32.2207756,-7.78E-04,-0.01017051,0.010091782
183,194993567,-165.8819122,-80.71588135,32.1852684,-0.036670204,0.039454732,-0.02125454
184,195010234,-165.8564758,-80.71354675,32.16227341,-0.021543184,0.044261824,-0.028981209
185,195026901,-165.8468628,-80.71052551,32.14936829,-0.052026384,0.017245812,-0.00783062
186,195043568,-165.8360596,-80.70906067,32.13421249,-0.09784224,0.058374766,-0.003025055
187,195060235,-165.8251038,-80.70792389,32.1231308,-0.10823609,0.085970014,-0.03454113
188,195076902,-165.8248444,-80.70635986,32.1285553,-0.10814004,0.07810895,-0.0446558
189,195093569,-165.8241577,-80.70523834,32.13790512,-0.077280104,0.06829863,-0.024076462
190,195110236,-165.8204041,-80.70368958,32.14465714,-0.07869439,0.058844145,-0.015777588
191,195126903,-165.8104706,-80.70153046,32.14547729,-0.05044855,0.04134833,-0.011601448
192,195143570,-165.805191,-80.70070648,32.15110397,-0.050566677,0.02184325,-0.029762268
193,195160237,-165.8112793,-80.70026398,32.16931915,-0.044583067,-0.00885536,-0.03379917
194,195176904,-165.8228912,-80.69989014,32.18633652,-0.026417108,-0.001333367,-0.010686874
195,195193571,-165.818222,-80.70233917,32.1820755,-0.04909138,-0.024776075,-0.012387276
196,195210238,-165.8056641,-80.70521545,32.1689415,-0.067027345,0.004520102,-0.031814575
197,195226905,-165.7820892,-80.70680237,32.15195465,-0.04039075,0.04580507,-0.03620243
198,195243572,-165.7550354,-80.70823669,32.13522339,-0.021952605,0.01164983,-0.01588726
199,195260239,-165.7275543,-80.70667267,32.11198807,-0.014124901,0.031495992,0.007647514
200,195276906,-165.7012329,-80.70307922,32.08552933,-0.046617538,0.04517644,-0.017141342
201,195293573,-165.6822357,-80.70212555,32.06765747,-0.0566198,0.044275124,-0.032057762
202,195310240,-165.6859283,-80.70176697,32.07378769,-0.06022579,0.046915147,-0.035614967
203,195326907,-165.686554,-80.69967651,32.07725143,-0.039136894,0.022612918,0.001677513
204,195343574,-165.6647644,-80.6986618,32.05581284,-0.04895744,0.035486594,-0.029297829
205,195360241,-165.6442566,-80.69671631,32.03657532,-0.07039775,0.018007545,-0.040065765
206,195376908,-165.6160278,-80.69399261,32.01218033,-0.0558422,0.009849993,0.012644768
207,195393575,-165.585022,-80.69114685,31.98439026,-0.03305008,0.006459971,-0.009261131
208,195410242,-165.5604553,-80.68993378,31.95924759,-0.039077498,0.017975023,-0.024627686
209,195426909,-165.5485382,-80.68947601,31.94267464,-0.076066434,0.041026473,-0.03222847
210,195443576,-165.530304,-80.68836212,31.92720795,-0.054268777,0.049706712,-0.007861137
211,195460243,-165.5148468,-80.68662262,31.91502571,-0.04554194,0.043264844,-0.012448311
212,195476910,-165.4873505,-80.68327332,31.88926888,-0.05207645,0.008924537,-0.009672165
213,195493577,-165.4546051,-80.68076324,31.85484505,-0.06324981,0.014457041,-0.02922535
214,195510244,-165.4140625,-80.6796875,31.8191433,-0.035094384,0.010696995,-0.032919884
215,195526911,-165.3654633,-80.67951202,31.77008629,0.001071801,-0.04713117,-0.026714325
216,195543578,-165.338562,-80.67568207,31.73015213,-0.03807901,0.08255205,-0.007400513
217,195560245,-165.2943573,-80.67416382,31.68920898,-0.024058431,0.061250262,-0.017549515
218,195576912,-165.2380981,-80.67215729,31.6429081,-0.01702325,-0.06590011,-0.040952682
219,195593579,-165.1475677,-80.67375946,31.55334282,-0.010660394,-0.16402622,0.002362251
220,195610246,-165.045105,-80.67696381,31.43249702,0.009466779,-0.15085739,0.01705265
221,195626913,-164.924408,-80.67923737,31.28108597,-0.004012561,-0.056318223,0.001670837
222,195643580,-164.8039856,-80.68071747,31.13511467,-0.013264656,0.013812542,-0.027859688
223,195660247,-164.6280212,-80.68518829,30.94838715,0.06963675,-0.20942537,-0.022763252
224,195676914,-164.3240509,-80.69548798,30.61632729,0.17313834,-0.52206415,0.07370281
225,195693581,-163.8492584,-80.71168518,30.07311821,0.19261028,-0.7334676,0.08903408
226,195710248,-163.2172394,-80.73163605,29.317379,0.16097392,-0.6917983,-0.010066032
227,195726915,-162.4902344,-80.75333405,28.43334961,0.038005527,-0.37315723,-0.07802677
228,195743582,-161.6861877,-80.77919006,27.494524,-0.052994084,-0.11822729,-0.047696114
229,195760249,-160.7700653,-80.82028961,26.47588348,-0.11612292,-0.28086984,0.13450432
230,195776916,-159.7634888,-80.86266327,25.3730526,-0.11132169,-0.15396276,0.18503284
231,195793583,-158.715683,-80.90483093,24.24132156,-0.27739868,-0.002801064,-0.09464741
232,195810250,-157.6587524,-80.95414734,23.12633705,-0.36044833,0.002206073,-0.26851463
233,195826917,-156.6147461,-81.00669098,22.03960609,-0.21291398,0.023413653,-0.09884453
234,195843584,-155.5584412,-81.05286407,20.94784355,-0.019170372,0.03185037,0.038194656
235,195860251,-154.4306946,-81.08701324,19.77029991,0.05893813,0.029420452,-0.026515007
236,195876918,-153.2752228,-81.11595917,18.53501129,0.069407426,0.06998302,-0.13599491
237,195893585,-152.1820526,-81.14048767,17.35304832,0.07768707,0.23127958,-0.09871769
238,195910252,-151.1711273,-81.15644836,16.27204132,0.0952059,0.28906572,-0.17966366
239,195926919,-150.2825928,-81.16331482,15.33444214,0.09607414,0.33344188,-0.20608234
240,195943586,-149.4427643,-81.16616058,14.47162533,0.13023207,0.24132906,-0.14908409
241,195960253,-148.6231537,-81.16464996,13.62983227,0.24309342,0.12834059,-0.04736042
242,195976920,-147.8276978,-81.15264893,12.77287197,0.2863531,0.0670835,0.031129837
243,195993587,-147.0564575,-81.12657928,11.90317726,0.24085505,0.10998022,0.038128853
244,196010254,-146.3394623,-81.08769226,11.07882023,0.17227714,0.25705945,0.033358574
245,196026921,-145.6929932,-81.04154205,10.33885002,0.06450098,0.26534876,-0.008392334
246,196043588,-145.1534119,-80.99247742,9.711061478,-0.0604678,0.31465328,-0.074409485
247,196060255,-144.747467,-80.94922638,9.225991249,-0.15542264,0.37245327,-0.05145073
248,196076922,-144.414917,-80.91723633,8.834355354,-0.16929536,0.24384414,-0.020975113
249,196093589,-144.1329956,-80.89131165,8.492134094,-0.20717813,0.17782445,0.024049759
250,196110256,-143.8928223,-80.87123108,8.189833641,-0.2427025,0.17626008,0.02303505
251,196126923,-143.6977234,-80.85355377,7.939011574,-0.27351874,0.26121813,0.011310577
252,196143590,-143.5592499,-80.84214783,7.765875816,-0.26798224,0.33524674,-0.06524277
253,196160257,-143.4753265,-80.83831024,7.682634354,-0.13122378,0.25899765,-0.13034344
254,196176924,-143.4561005,-80.84028625,7.674535751,0.014200281,0.17997845,-0.086071014
255,196193591,-143.4445496,-80.84993744,7.663002968,0.020357002,-0.035885006,0.029863358
256,196210258,-143.3952942,-80.86623383,7.594491005,-0.045085132,-0.12701772,0.13427734
257,196226925,-143.3720856,-80.88561249,7.538737774,-0.14425828,-0.013544662,0.05642891
258,196243592,-143.3908386,-80.90997314,7.547018528,-0.1490551,0.11756804,-0.077656746
259,196260259,-143.413147,-80.93802643,7.595657825,-0.040656727,0.04500031,-0.15071869
260,196276926,-143.4117737,-80.96852112,7.62496376,0.13087516,-0.11635637,-0.07391834
261,196293593,-143.3703308,-80.98986053,7.579574585,0.18579598,-0.16597234,-0.014749527
262,196310260,-143.2937012,-81.0021286,7.4609375,0.14139798,-0.08795905,-0.034936905
263,196326927,-143.2208557,-81.00946808,7.334983826,0.038270168,0.037956525,-0.030013084
264,196343594,-143.1342621,-81.01861572,7.222185612,0.012306679,0.011243372,0.045859337
265,196360261,-143.0257111,-81.02880859,7.106480122,0.07057203,-0.11722081,0.037923813
266,196376928,-142.8760681,-81.03564453,6.944528103,0.15975241,-0.19791122,-0.0329628
267,196393595,-142.6682434,-81.0349884,6.703025818,0.18914275,-0.19893447,-0.062625885
268,196410262,-142.4436646,-81.02494049,6.41594553,0.18176839,-0.047345854,-0.05984783
269,196426929,-142.2429962,-81.0121994,6.144978523,0.044772103,0.14370933,-0.028212547
270,196443596,-142.0809326,-81.00027466,5.93804884,0.004367332,0.19668794,-0.015045166
271,196460263,-141.9388428,-80.99064636,5.775094032,-8.01E-04,0.1309397,-0.006098747
272,196476930,-141.8204041,-80.98114777,5.640982628,0.055462282,0.055200323,-0.001747131
273,196493597,-141.7167511,-80.96987152,5.507582188,0.060829386,0.056052357,-0.018630028
274,196510264,-141.6460419,-80.95252228,5.398486614,0.06976957,0.16279969,-0.052570343
275,196526931,-141.6254272,-80.92942047,5.347771168,0.072651654,0.22149184,-0.04728794
276,196543598,-141.62323,-80.90769958,5.322189331,0.067947544,0.13469371,0.016343117
277,196560265,-141.6314392,-80.88833618,5.297364235,-0.010753487,0.06590056,0.12011528
278,196576932,-141.6687012,-80.8715744,5.302548409,-0.085411064,0.05983263,0.02382183
279,196593599,-141.7378998,-80.85887909,5.356162071,-0.10963227,0.11038701,-0.09923172
280,196610266,-141.8351746,-80.85136414,5.456772804,-0.06758132,0.112534635,-0.1511364
281,196626933,-141.9594421,-80.84650421,5.589114666,-0.004678126,0.06836971,-0.05851364
282,196643600,-142.0592346,-80.84474945,5.691149712,0.05729425,-0.014522308,0.007892609
283,196660267,-142.1671295,-80.84172058,5.782835007,0.06353037,-0.004308659,0.005410194
284,196676934,-142.2996216,-80.83576202,5.890688896,0.033629704,0.09186405,-0.065588
285,196693601,-142.450592,-80.83151245,6.033913136,0.009555738,0.08503081,0.010595322
286,196710268,-142.5801239,-80.82769775,6.168955326,0.08580311,-0.08528829,0.07831192
287,196726935,-142.6741486,-80.81906891,6.252763748,0.14734176,-0.23680203,0.007119179
288,196743602,-142.7201691,-80.80623627,6.265727997,0.1456882,-0.21512407,-0.07601833
289,196760269,-142.7168427,-80.78991699,6.216503143,0.16798669,-0.12027042,-0.079909325
290,196776936,-142.706955,-80.77148438,6.152072906,0.10921821,-0.006539766,-0.07434273
291,196793603,-142.7476654,-80.75201416,6.140977383,0.060726963,0.14116542,-0.05618
292,196810270,-142.7986908,-80.73394775,6.162403107,0.10447744,0.13967168,0.068694115
293,196826937,-142.8647919,-80.70874786,6.19892931,0.17684312,0.09180772,0.12137413
294,196843604,-142.9613342,-80.67211914,6.247639656,0.19158581,0.11103352,-0.004173279
295,196860271,-143.1106567,-80.62734222,6.328633308,0.094025865,0.18860146,-0.072772026
296,196876938,-143.3149414,-80.58205414,6.459455013,-0.020773461,0.27819586,-0.061969757
297,196893605,-143.6566315,-80.5379715,6.730834961,-0.0924658,0.4744135,-0.001329422
298,196910272,-144.1275635,-80.49781799,7.169282436,-0.13165025,0.58151144,0.010474205
299,196926939,-144.6684723,-80.46566772,7.721196175,-0.15084985,0.39860272,0.032262802
300,196943606,-145.2370148,-80.44007111,8.305579185,-0.16211478,0.12786472,0.014358521
301,196960273,-145.8066254,-80.41358185,8.885964394,-0.18225771,0.006438514,-0.05335331
302,196976940,-146.3670502,-80.38567352,9.467972755,-0.20939817,0.012545335,-0.06143284
303,196993607,-146.9179077,-80.3582077,10.05900478,-0.22489773,0.03495005,-0.085103035
304,197010274,-147.4773254,-80.33472443,10.67635441,-0.21759355,-0.022045754,-0.031490326
305,197026941,-148.0334167,-80.32225037,11.31131649,-0.218247,-0.08084262,0.06175804
306,197043608,-148.526413,-80.31941986,11.92591572,-0.25740975,-0.03215681,0.1251316
307,197060275,-148.9202881,-80.31768799,12.49478149,-0.18226415,-0.006407893,0.13065147
308,197076942,-149.2678375,-80.31162262,13.01135063,-0.08917413,-0.14769211,0.030942917
309,197093609,-149.6368866,-80.30417633,13.47991085,-0.08783579,-0.23418671,-0.15254879
310,197110276,-150.0591736,-80.30667114,13.9234457,-0.21376516,-0.10964696,-0.19604874
311,197126943,-150.4938202,-80.32815552,14.3734045,-0.26435253,0.14186244,-0.12929249
312,197143610,-150.7766113,-80.35942841,14.76138973,-0.035932556,0.09799031,0.020490646
313,197160277,-150.7932739,-80.38337708,14.95084381,-0.050520353,-0.20319216,0.107611656
314,197176944,-150.7071228,-80.37728882,15.04036999,0.1313637,-0.35045344,0.22056961
315,197193611,-150.7074127,-80.31079102,15.18463612,0.5086917,-0.2318054,0.047677994
316,197210278,-150.8604889,-80.20230865,15.35439396,0.44247112,-0.22323044,-0.058894157
317,197226945,-151.2998505,-80.07598114,15.70111275,0.28351557,-0.011634967,0.12003708
318,197243612,-151.9499512,-79.91082001,16.24530029,0.21373868,-6.88E-04,0.3066368
319,197260279,-152.9246063,-79.63557434,17.13359451,-0.26456082,-0.10785372,-0.2631483
320,197276946,-154.4925537,-79.20218658,18.69125938,-0.6168475,-0.09063875,-1.4437866
321,197293613,-156.480484,-78.57033539,20.81930542,-0.88086003,-0.41888517,-2.4417524
322,197310280,-158.4751892,-77.79619598,23.06769562,-0.6045828,-0.86153704,-1.4693136
323,197326947,-160.0702515,-77.00872803,24.85640717,-0.23642775,-0.2997548,0.9432621
324,197343614,-161.1968079,-76.23365784,26.13527107,-0.107735984,-0.5001737,0.8094759
325,197360281,-162.2758484,-75.52739716,27.27898788,-0.20318887,-0.3868864,-0.4329214
326,197376948,-163.0512695,-74.95768738,28.19242287,-0.21978337,-0.29595664,-0.51275444
327,197393615,-163.5234985,-74.59384918,28.80683136,0.3356589,-0.2837754,0.43949604
328,197410282,-163.8255463,-74.47701263,29.13596916,0.9255575,-0.19342521,1.3083458
329,197426949,-163.9051666,-74.58699036,29.13355446,1.3172578,-0.10435462,1.5508595
330,197443616,-163.7935181,-74.81522369,28.82828522,1.0702493,-0.26578584,0.9593258
331,197460283,-163.7442322,-74.9784317,28.46578407,0.55486184,-0.87718976,-0.21718788
332,197476950,-163.7433777,-75.0608139,28.1097393,0.11087718,-0.7229684,-0.2563238
333,197493617,-163.3904877,-75.13700104,27.4773674,0.085419916,-1.2232192,0.10067654
334,197510284,-162.7686768,-75.20267487,26.40966988,0.20666419,-1.6775026,-0.095788
335,197526951,-162.181015,-75.26679993,25.18939209,-0.0919263,-0.92513865,-0.4273529
336,197543618,-161.725174,-75.34094238,24.11240387,-0.07733716,0.18159355,-0.19167233
337,197560285,-161.3411255,-75.40622711,23.20280266,0.19950464,1.1790686,0.4059
338,197576952,-160.8762817,-75.41389465,22.36579514,0.5049672,1.5761752,0.21695423
339,197593619,-160.2736053,-75.33716583,21.51876068,0.5435648,1.815441,-0.6510134
340,197610286,-159.6832886,-75.20348358,20.81775856,0.7317308,2.7160423,-1.2402678
341,197626953,-159.4650269,-75.03205109,20.54190636,2.0420551,2.3816369,-1.1266422
342,197643620,-159.90065,-74.7511673,20.56872177,2.9749026,2.0958328,-0.2098465
343,197660287,-161.017746,-74.34554291,21.04049492,1.2474177,3.7410803,-0.72303295
344,197676954,-162.0462189,-73.99582672,21.75202942,-0.4511009,4.0710206,-2.4307995
345,197693621,-162.7169037,-73.78838348,22.52466011,-0.2858388,1.9569657,-2.2387466
346,197710288,-164.083313,-73.4886322,23.74140549,-0.09577055,-1.4315822,0.46016788
347,197726955,-166.024704,-73.03768921,25.21264076,-0.74757266,-0.5335609,1.2563438
348,197743622,-167.2170563,-72.57978821,26.20732498,-0.8235622,-0.7732722,1.4228382
349,197760289,-167.9840851,-72.16378021,26.94042778,-1.4858689,-1.268244,-0.14541149
350,197776956,-168.9232788,-71.81886292,27.8800602,-0.9751623,-2.005964,-0.37313175
351,197793623,-169.9167328,-71.44007874,28.70991898,-0.20390415,-1.9033505,0.81912327
352,197810290,-170.6200714,-71.02082825,29.26224518,0.05730601,-0.99917734,0.34847164
353,197826957,-170.9282379,-70.63660431,29.49347115,0.22840306,-0.90613997,0.5471144
354,197843624,-171.1771851,-70.31588745,29.59673691,-0.8021387,-0.5629753,0.506711
355,197860291,-171.4864655,-70.09485626,29.7508812,-1.7814722,0.6247099,0.85305023
356,197876958,-171.7319183,-69.8772049,30.12351418,-2.0251844,0.25519234,0.2318039
357,197893625,-171.8734741,-69.6812973,30.58631516,-1.8102729,-0.16136451,0.02389431
358,197910292,-171.9972229,-69.54495239,31.08774948,-1.0736251,-0.7911668,0.61731625
359,197926959,-172.0770569,-69.48113251,31.45346451,-0.5336718,-1.2819223,0.99026394
360,197943626,-171.962265,-69.51869202,31.59823227,-0.39700037,-1.5035577,1.0771723
361,197960293,-171.700943,-69.59594727,31.5752449,-0.30203715,-1.8780661,0.2129221
362,197976960,-171.3963623,-69.64014435,31.46387482,-0.31845534,-1.748313,-0.4416027
363,197993627,-170.9996033,-69.70793152,31.28188705,0.15835465,-1.1319946,0.19803143
364,198010294,-170.50383,-69.78525543,30.99390984,0.77729434,-1.0459038,0.3517542
365,198026961,-169.9469452,-69.8886261,30.49027634,0.5894267,-0.7995453,0.29047298
366,198043628,-169.3373718,-70.04715729,29.81463242,0.07404303,-0.5152765,0.23596954
367,198060295,-168.7394409,-70.21009064,29.12732124,-0.4437102,-0.3434642,-0.30359077
368,198076962,-168.1347198,-70.34267426,28.44449043,-0.34300366,0.0654361,-0.3987255
369,198093629,-167.4959717,-70.48429108,27.78265572,-0.23391369,0.55881166,0.25138664
370,198110296,-166.9246826,-70.64012146,27.18683434,-0.057286594,0.12884918,0.21596718
371,198126963,-166.457016,-70.80226135,26.62022209,-0.5217821,0.27549425,-0.16562748
372,198143630,-166.0146484,-70.94797516,26.10362053,-0.5997894,0.3792047,-0.2857132
373,198160297,-165.5733185,-71.07865143,25.64072418,-0.45949793,0.5300794,-0.17503643
374,198176964,-165.2339478,-71.18081665,25.31023026,-0.16777112,0.19864804,-0.19657898
375,198193631,-164.9776001,-71.26393127,25.01976585,0.1941728,0.21750873,-0.013875961
376,198210298,-164.759201,-71.34823608,24.70867729,0.31943232,0.44607374,0.13996506
377,198226965,-164.6499023,-71.42338562,24.47597504,0.14587255,0.79906577,-0.09060669
378,198243632,-164.5285339,-71.49278259,24.31106567,0.25434187,1.0167674,-0.29528713
379,198260299,-164.3321533,-71.56939697,24.16085815,0.37779522,0.5469854,-0.107281685
380,198276966,-164.1279755,-71.64211273,24.00428772,0.6105631,0.26358682,-0.06844807
381,198293633,-163.9580994,-71.69680023,23.8320713,0.63074416,0.07553017,-0.02827835
382,198310300,-163.7454071,-71.78253937,23.58541679,0.4815525,0.050763033,0.10874367
383,198326967,-163.5048065,-71.90101624,23.29986572,0.35744667,-0.23028852,0.21737099
384,198343634,-163.3738708,-71.95987701,23.0382309,-0.3767569,-0.38268447,0.0535717
385,198360301,-163.1703186,-72.00305176,22.78700256,-1.1358275,-0.1309369,-0.25812435
386,198376968,-162.853302,-72.08180237,22.5913353,-0.9743806,-0.3286359,-0.21073246
387,198393635,-162.5291595,-72.16297913,22.38331985,-0.079752885,-0.46909124,0.08712578
388,198410302,-162.2267456,-72.24324799,22.06268883,0.22386482,-0.59395754,0.21080303
389,198426969,-161.9498749,-72.33707428,21.61909866,-0.0726566,-0.766785,0.025191307
390,198443636,-161.714325,-72.44707489,21.08976936,-0.36106792,-0.27836013,-0.09656334
391,198460303,-161.5281982,-72.57107544,20.62581635,-0.43407887,0.5296047,-0.02626419
392,198476970,-161.2902374,-72.72583008,20.20927238,-0.276372,0.3585427,0.26366234
393,198493637,-160.9830627,-72.86571503,19.77484894,0.25204304,0.032436423,0.13527584
394,198510304,-160.7853546,-72.98691559,19.41091347,0.12305092,-0.015374003,-0.28081417
395,198526971,-160.6427002,-73.10507202,19.09803581,0.42027885,0.38712803,-0.28595448
396,198543638,-160.49617,-73.21968842,18.74328232,0.1725172,0.18236266,0.30749226
397,198560305,-160.450882,-73.32659149,18.53344727,-0.26567936,0.15792453,-0.015630722
398,198576972,-160.2597504,-73.42996216,18.31370926,-0.52764505,-0.054371092,-0.38218117
399,198593639,-159.8768311,-73.54779816,17.972435,-0.3073772,-0.66011804,-0.16176033
400,198610306,-159.523941,-73.67905426,17.54225731,-0.10212374,-0.97307515,0.13173676
401,198626973,-159.2099152,-73.81804657,17.04626465,0.017691944,-0.6377837,0.14957142
402,198643640,-158.8229065,-73.96520996,16.46356392,-0.24530067,-0.44527078,0.17621803
403,198660307,-158.3412628,-74.11898041,15.85312557,-0.10023548,-0.35030583,-0.08489132
404,198676974,-157.7503967,-74.2651825,15.15812111,0.23832041,-0.23264547,-0.13848877
405,198693641,-157.1443329,-74.40309906,14.4270668,0.4113732,-0.044687953,-0.0698452
406,198710308,-156.5417023,-74.53206635,13.71897316,0.39956897,0.43119437,-0.1285305
407,198726975,-155.9054565,-74.65223694,13.0715332,0.29149532,0.6355878,-0.03794861
408,198743642,-155.3000793,-74.75370026,12.5093689,0.22671014,0.4650016,-0.008579254
409,198760309,-154.7756653,-74.82911682,12.10372257,0.10011162,0.6078425,-0.38213253
410,198776976,-154.116684,-74.8920517,11.7345314,0.31848752,0.5438733,-0.41031742
411,198793643,-153.4418793,-74.94944,11.36492252,0.5820722,-0.07412885,-0.22326183
412,198810310,-152.8617859,-74.98621368,10.89970493,0.52562785,-0.25526822,0.052696228
413,198826977,-152.3906403,-74.9944458,10.40931988,0.14575805,0.040789213,-0.13258934
414,198843644,-151.9611511,-74.99640656,10.03673077,-0.09112579,0.5261904,-0.41284466
415,198860311,-151.426178,-74.99908447,9.70131588,-0.07462438,0.17033498,-0.301404
416,198876978,-150.8768463,-75.01432037,9.379445076,-0.008119835,-0.3371256,0.13143253
417,198893645,-150.3556213,-75.04136658,9.045321465,-0.036809232,-0.31655145,0.21402168
418,198910312,-149.8514862,-75.06491089,8.667970657,0.07968035,0.12501863,0.04731846
419,198926979,-149.4215088,-75.076828,8.258228302,0.048064448,0.2736249,-0.0962801
420,198943646,-149.0929565,-75.07648468,7.874613762,-0.067929834,0.4324665,-0.13637924
421,198960313,-148.825531,-75.06446075,7.594486713,-0.026938116,0.52609116,-0.035811424
422,198976980,-148.4985657,-75.05476379,7.373621941,0.15259543,0.21226266,0.14004326
423,198993647,-148.1798553,-75.04511261,7.181905746,0.38434282,-0.038871363,0.003166199
424,199010314,-147.9280548,-75.02407837,6.991323471,0.35741615,0.07856458,-0.21902752
425,199026981,-147.7524261,-74.99265289,6.819529057,0.18932118,0.17462856,-0.15088367
426,199043648,-147.5938873,-74.95301056,6.628970623,0.08269393,0.050978724,-0.10691738
427,199060315,-147.4405823,-74.91130829,6.404949665,-0.05106902,-0.062468294,-0.05343914
428,199076982,-147.2897339,-74.86707306,6.165001392,-0.1372555,-0.14230756,-0.08758259
429,199093649,-147.1047211,-74.82761383,5.898803234,-0.20434448,-0.32271427,-0.014325142
430,199110316,-146.8428955,-74.80170441,5.567697525,-0.23077165,-0.43759713,0.017967224
431,199126983,-146.55896,-74.78739929,5.231967926,-0.29266092,-0.23230964,-0.010972023
432,199143650,-146.230957,-74.77814484,4.92222023,-0.046905927,-0.031515215,-0.058992386
433,199160317,-145.9063416,-74.76667786,4.603505135,0.1378553,-0.1238454,-0.05893421
434,199176984,-145.6603088,-74.74124908,4.306793213,0.26603606,0.26573622,-0.17327118
435,199193651,-145.3889313,-74.68559265,3.969321012,0.44715998,0.3866735,-0.3946724
436,199210318,-145.1852112,-74.6031189,3.578770399,0.5696388,0.06644392,-0.32175732
437,199226985,-145.0930634,-74.5049057,3.236785412,0.4242234,0.14682834,-0.13833618
438,199243652,-144.9728088,-74.40823364,2.948676825,0.37574047,0.05333343,-0.2653761
439,199260319,-144.822403,-74.30247498,2.68402791,0.32856253,-0.15326205,-0.26698494
440,199276986,-144.6170502,-74.2072525,2.362525225,-0.20226263,-0.18150102,0.35290623
441,199293653,-144.4062195,-74.13012695,2.091777325,-0.57771105,0.06811602,0.6408968
442,199310320,-144.0727844,-74.07243347,1.917669535,-0.95350987,0.28873917,0.5216961
443,199326987,-143.5243835,-74.03150177,1.761497378,-0.86699736,-0.10201735,0.117191315
444,199343654,-142.8484192,-74.00337219,1.546894908,-0.44655716,-0.5292404,-0.045698166
445,199360321,-142.2082214,-73.98475647,1.342189074,0.028655171,-0.4493993,-0.13448524
446,199376988,-141.6921844,-73.96983337,1.214624882,0.19660741,0.00729144,-0.25792217
447,199393655,-141.2282715,-73.95422363,1.178281426,0.096452326,0.3346095,-0.38515854
448,199410322,-140.7865143,-73.93935394,1.233542323,-0.11842242,0.41748074,-0.19277859
449,199426989,-140.3639526,-73.93187714,1.366905451,-0.29341546,0.310335,0.09408474
450,199443656,-139.9698181,-73.93899536,1.551949501,-0.46348014,0.11679714,0.33927536
451,199460323,-139.568573,-73.96062469,1.717573285,-0.5317162,0.07865354,0.32113266
452,199476990,-139.1182861,-74.00297546,1.853158832,-0.69476694,0.17018679,0.2372837
453,199493657,-138.6030884,-74.06286621,1.946921945,-0.74767786,-0.07300179,0.0791378
454,199510324,-138.0868988,-74.1384201,2.015369892,-0.47677404,-0.17818296,-0.13585472
455,199526991,-137.6472168,-74.2179718,2.079591513,-0.13723561,-0.13872577,-0.12718296
456,199543658,-137.2587585,-74.29723358,2.106810331,0.106050976,-0.047806963,0.009727478
457,199560325,-136.9427338,-74.37379456,2.124356508,0.23490384,0.16627285,-0.105825424
458,199576992,-136.788559,-74.43510437,2.243605614,0.42692629,0.26349965,-0.408103
459,199593659,-136.7755585,-74.49246216,2.462041378,0.14617977,0.5333323,-0.07503319
460,199610326,-136.7830963,-74.55161285,2.711353064,0.107741125,0.6754416,-0.05203724
461,199626993,-136.8435822,-74.60984802,3.030542374,0.07447362,0.8911715,-0.053484917
462,199643660,-136.9225616,-74.66269684,3.381712914,-0.029194312,0.53656274,0.002562523
463,199660327,-137.0699921,-74.71212006,3.750158548,-0.08714736,0.20805971,-0.03581524
464,199676994,-137.2544403,-74.75618744,4.118699074,-0.22440767,0.06914351,0.017008781
465,199693661,-137.3851624,-74.80853271,4.451761246,-0.3935358,-0.08993491,0.024751663
466,199710328,-137.449173,-74.87593842,4.739354134,-0.5621759,-0.26678395,0.08436966
467,199726995,-137.4334412,-74.95570374,4.985451221,-0.34147632,-0.32257545,-0.023831367
468,199743662,-137.4720154,-75.03268433,5.27096653,-0.035098575,-0.4545232,-0.2246418
469,199760329,-137.5313721,-75.11134338,5.506733894,-0.030638821,-0.22871657,-0.049619675
470,199776996,-137.6573486,-75.18803406,5.733212948,0.07475078,0.06711133,-0.021266937
471,199793663,-137.8316803,-75.24488831,6.007295609,0.21158698,0.31369686,-0.17302608
472,199810330,-138.1640167,-75.26142883,6.416137218,0.052903,0.26399988,-0.2997551
473,199826997,-138.6928864,-75.24526978,7.010454655,-0.35643739,0.31484774,-0.12961674
474,199843664,-139.2064667,-75.23270416,7.666669846,-0.47777352,0.37131828,0.1715784
475,199860331,-139.5350342,-75.23605347,8.21026516,0.22381034,-0.2736371,0.11898804
476,199876998,-139.8718872,-75.23921204,8.641783714,0.6805171,-0.8800836,-0.008725166
477,199893665,-140.2699127,-75.24334717,8.968565941,0.632353,-0.83762085,0.05957985
478,199910332,-140.6623688,-75.251091,9.219238281,0.54601246,-0.274353,0.06003666
479,199926999,-140.9950714,-75.25552368,9.398966789,0.72097015,0.23305473,-0.0160532
480,199943666,-141.3556213,-75.240448,9.527813911,0.7742195,0.45808813,-0.023403168
481,199960333,-141.77211,-75.21520996,9.640621185,0.4080239,0.87598485,-0.050797462
482,199977000,-142.1760101,-75.19863129,9.797367096,0.06609893,1.0566729,-0.13131809
483,199993667,-142.5334015,-75.19261169,10.07548046,0.1395583,0.89095753,-0.14255524
484,200010334,-142.6949158,-75.20050049,10.33557987,0.2746111,0.01464971,0.124690056
485,200027001,-142.4129333,-75.26767731,10.22098827,0.15919615,-0.87119335,0.50121117
486,200043668,-141.9328308,-75.38954926,9.782418251,0.48784626,-1.2481936,0.1749649
487,200060335,-141.7625427,-75.4489975,9.440463066,-0.40624127,-1.5989825,-0.13777924
488,200077002,-141.7820587,-75.47062683,9.276999474,-1.81615,-0.6618015,-0.06867504
489,200093669,-141.4471741,-75.5068512,8.958612442,-1.2740506,-0.69850457,-0.02090931
490,200110336,-141.101059,-75.53063202,8.557893753,-0.29733962,-0.5468011,-0.53868294
491,200127003,-140.9699249,-75.53456116,8.295663834,0.022775132,0.27095714,-0.27472305
492,200143670,-140.9511108,-75.52687836,8.238888741,0.52806354,0.5461594,0.0628767
493,200160337,-141.0420227,-75.49667358,8.362474442,0.9086903,0.6039018,0.08207321
494,200177004,-141.2634277,-75.43822479,8.654075623,0.96047777,0.61475605,-0.08903885
495,200193671,-141.4675598,-75.35347748,8.983991623,0.96720827,0.47556224,-0.3900633
496,200210338,-141.5860596,-75.27108002,9.249334335,0.6856359,0.071997546,-0.34686184
497,200227005,-141.629303,-75.21167755,9.409296989,0.22027627,-0.053847846,0.08214474
498,200243672,-141.6363525,-75.17543793,9.528095245,-0.18750043,0.010232647,0.36690998
499,200260339,-141.5654602,-75.14924622,9.587067604,-0.4113002,0.058948413,0.20886993
500,200277006,-141.4184875,-75.13434601,9.586518288,-0.20583464,-0.2835148,-0.3461008
501,200293673,-141.2449341,-75.14524841,9.504259109,-0.263402,-0.4630679,-0.09137344
502,200310340,-141.0750122,-75.17908478,9.389828682,-0.36484873,-0.36557177,0.24599266
503,200327007,-140.9285126,-75.22083282,9.298937798,-0.6820802,-0.19951706,0.42426586
504,200343674,-140.7919617,-75.26811218,9.195663452,-1.0043684,-0.30756834,0.238163
505,200360341,-140.7544708,-75.29984283,9.162891388,-1.4489774,-0.17045613,0.12698936
506,200377008,-140.61409,-75.33020782,9.139222145,-1.3653957,0.017991005,-0.008242607
507,200393675,-140.3926239,-75.37417603,9.11269474,-0.73132443,-0.29996848,-0.20023155
508,200410342,-140.2071075,-75.43952179,9.09359169,-0.17402802,-0.18257454,-0.07607269
509,200427009,-140.114975,-75.49195862,9.16219902,0.28279623,-0.0615881,-0.003396034
510,200443676,-139.9832458,-75.53000641,9.219213486,0.5908924,0.023678962,0.09349823
511,200460343,-139.8682251,-75.54734039,9.253611565,1.0600115,-0.004227748,-0.32216358
512,200477010,-139.8742371,-75.53542328,9.239456177,1.3187296,0.1168623,-0.34931946
513,200493677,-140.0233154,-75.48355103,9.183318138,1.2788752,0.7767141,-0.26994133
514,200510344,-140.2850647,-75.40238953,9.160833359,1.0208875,1.1826357,-0.03025055
515,200527011,-140.6212006,-75.30191803,9.219819069,0.7706284,1.0578552,0.036492348
516,200543678,-140.9786377,-75.20018005,9.346482277,0.32906544,0.5454183,-0.07033062
517,200560345,-141.2697754,-75.11135864,9.474136353,-0.2456826,-0.24212489,-0.002342224
518,200577012,-141.4166107,-75.04260254,9.538140297,-0.43557334,-0.7384276,-0.042582512
519,200593679,-141.4210968,-74.99514008,9.486098289,-0.4395262,-0.9775671,-0.00457859
520,200610346,-141.3098297,-74.97299957,9.30065155,-0.3003822,-0.7667824,0.09495449
521,200627013,-141.144516,-74.96273041,9.033239365,-0.13484156,-0.35767257,0.045402527
522,200643680,-141.0428925,-74.9441452,8.815732002,-0.25158954,-0.16580214,0.09731388
523,200660347,-140.9174194,-74.91983032,8.605546951,-0.2579011,-0.19754522,0.2187109
524,200677014,-140.7754974,-74.90156555,8.392241478,-0.17086627,-0.14002617,0.0510149
525,200693681,-140.6078949,-74.90091705,8.164297104,-0.17620191,-0.022007309,0.001405716
526,200710348,-140.4137268,-74.91731262,7.902832031,-0.046252374,0.007718573,-0.029132843
527,200727015,-140.2548828,-74.93018341,7.647450447,0.007380677,0.022125548,-0.0840826
528,200743682,-140.1468811,-74.92701721,7.40077734,0.0439888,0.06572622,-0.037046432
529,200760349,-140.1004639,-74.9103775,7.174360752,0.06556752,-0.028460128,-0.017644882
530,200777016,-140.0779266,-74.88674164,6.935310364,0.055993963,0.004968023,-0.06784344
531,200793683,-140.0613708,-74.86201477,6.716949463,-0.01934868,0.055407967,-0.02849865
532,200810350,-140.0540771,-74.84123993,6.543152809,-0.17960562,0.24116378,0.02195263
533,200827017,-139.9873047,-74.83300018,6.411885262,-0.2922955,0.2794985,0.0707531
534,200843684,-139.8504028,-74.8398056,6.302465439,-0.20495221,-0.007206728,-0.02742672
535,200860351,-139.712677,-74.85260773,6.196543217,-0.058578108,0.064118266,-0.014606476
536,200877018,-139.5950165,-74.86434937,6.082306385,0.20089065,0.12690462,-0.10786629
537,200893685,-139.5588074,-74.86010742,5.977500916,0.22252184,0.06582233,-0.17203331
538,200910352,-139.5731049,-74.84067535,5.852679729,0.17623298,0.028783998,-0.01390934
539,200927019,-139.6347809,-74.81047821,5.723068237,0.12826447,0.04342432,-0.087739944
540,200943686,-139.7402496,-74.77420807,5.599368095,0.2120454,0.07145866,-0.107899666
541,200960353,-139.8713226,-74.73164368,5.472198963,0.29811427,0.08892977,-0.05044937
542,200977020,-140.0657959,-74.68424988,5.37848711,0.1750607,0.09609113,-0.08748913
543,200993687,-140.2859497,-74.6339798,5.292142868,-0.009273888,0.118796244,-0.091573715
544,201010354,-140.5045013,-74.58168793,5.205314636,-0.014629481,0.09193714,0.018974304
545,201027021,-140.7219238,-74.52445221,5.095673561,0.013637308,-0.12063039,-0.020443916
546,201043688,-140.9824982,-74.46090698,4.976869106,0.045251314,-0.2678483,-0.110058784
547,201060355,-141.2780457,-74.39137268,4.848362446,0.02910379,-0.23969395,0.041166306
548,201077022,-141.5629883,-74.32544708,4.712790966,-0.007328152,-0.005411919,0.02930069
549,201093689,-141.8027802,-74.26796722,4.586024761,-0.10786528,0.14217235,-0.001594544
550,201110356,-141.9478455,-74.23188782,4.456376553,-0.30005267,0.13263147,0.046004295
551,201127023,-142.0505524,-74.20806885,4.356399536,-0.41415286,0.088215426,-0.04501438
552,201143690,-142.1556702,-74.18580627,4.310181141,-0.50281304,-0.028108096,0.14758873
553,201160357,-142.2297363,-74.16848755,4.257173538,-0.56560016,-0.07058651,0.18130016
554,201177024,-142.3077545,-74.15670013,4.220414162,-0.44588935,-0.001963785,0.024471283
555,201193691,-142.3679657,-74.15270996,4.203994274,-0.21621157,0.12984158,0.016838074
556,201210358,-142.4172211,-74.15699768,4.204865456,-0.018027438,0.009868991,0.113043785
557,201227025,-142.4520416,-74.17694855,4.210320473,-0.14767903,0.026628217,0.12906742
558,201243692,-142.451889,-74.20707703,4.213813305,-0.22954418,-0.011326072,-0.014249802
559,201260359,-142.4532776,-74.23229218,4.211354256,-0.21015526,-0.06389252,-0.06649494
560,201277026,-142.4613953,-74.25101471,4.181434155,-0.031412736,0.18536109,-0.14564705
561,201293693,-142.4924316,-74.26944733,4.154684067,0.15194355,0.35652307,-0.121171
562,201310360,-142.5136414,-74.29225922,4.130356789,0.28517118,0.37477368,0.07011986
563,201327027,-142.4751587,-74.33338928,4.072531223,0.1600507,0.14102438,0.2950964
564,201343694,-142.2235565,-74.42459106,3.833496571,0.18233952,0.38596797,0.118634224
565,201360361,-142.1248474,-74.49282837,3.773983479,0.2959245,0.23172583,-0.83406067
566,201377028,-142.2401733,-74.51461792,3.873066187,0.09297284,-0.21884835,-0.186697
567,201393695,-142.287384,-74.52327728,3.852572203,0.09428927,-0.27394775,0.47331905
568,201410362,-142.3903656,-74.52583313,3.762526274,0.12389401,-0.22775859,0.28737164
569,201427029,-142.553299,-74.52327728,3.670964956,0.16526894,-0.001697134,-0.1936512
570,201443696,-142.7899628,-74.5016098,3.606415033,0.14213273,-0.101026066,-0.44407654
571,201460363,-143.1507416,-74.46578979,3.596955299,-0.015262471,0.015982071,-0.33651257
572,201477030,-143.5763092,-74.41941071,3.608726978,0.05182321,0.26345673,-0.17694664
573,201493697,-144.0949249,-74.35678864,3.671286106,0.15650903,0.36611903,-0.010117531
574,201510364,-144.6655884,-74.28240204,3.790569305,0.09495495,0.34948206,0.13337898
575,201527031,-145.2614441,-74.21112823,3.98285079,0.024094865,0.31374982,0.014003754
576,201543698,-145.8462982,-74.14971924,4.249232292,-0.056001507,0.31212825,-0.038968086
577,201560365,-146.3837128,-74.09889984,4.558677673,-0.048281983,0.22976461,-0.12493515
578,201577032,-146.9002075,-74.05165863,4.874530792,-0.11128632,0.049659885,-0.13389969
579,201593699,-147.4256897,-74.00440216,5.1835742,-0.20818031,-0.06564553,0.090247154
580,201610366,-147.9400024,-73.95610046,5.485174179,-0.25771883,-0.056520615,0.2625332
581,201627033,-148.3679504,-73.91795349,5.721843243,-0.29133996,-0.27771774,0.2509098
582,201643700,-148.7349854,-73.90104675,5.891340256,-0.21541737,-0.34711775,0.12113762
583,201660367,-149.1291809,-73.89761353,6.017529011,-0.120835826,-0.41622114,0.03360176
584,201677034,-149.5029449,-73.91390228,6.080252171,-0.06414358,-0.28941652,0.02369976
585,201693701,-149.8482513,-73.93729401,6.063569069,-0.020079566,-0.18417713,0.09457016
586,201710368,-150.2702026,-73.9510498,6.086781979,-0.021912986,3.54E-04,-0.06194973
587,201727035,-150.7573853,-73.95965576,6.214457989,-0.22840062,0.3311226,0.081251144
588,201743702,-151.2473755,-73.96799469,6.461824417,-0.31883234,0.32761905,0.053399086
589,201760369,-151.7050323,-73.98111725,6.8113904,-0.42162976,0.21516664,-0.061535835
590,201777036,-152.1331024,-74.00288391,7.222402573,-0.3182571,0.07860604,-0.15062904
591,201793703,-152.5389099,-74.02251434,7.573688507,-0.14318763,-0.21099488,-0.13598251
592,201810370,-152.9928131,-74.04872131,7.806807995,-0.06302233,-0.41720772,-0.10876179
593,201827037,-153.5439453,-74.07385254,7.941896439,0.22877018,-0.1383667,-0.05863762
594,201843704,-154.2134094,-74.08900452,8.081562042,0.48365912,0.37142277,-0.18662357
595,201860371,-154.9255829,-74.09410095,8.253125191,0.56462634,0.4385037,-0.24809837
596,201877038,-155.6478424,-74.10485077,8.45454216,0.19350511,0.21593453,-0.04456806
597,201893705,-156.3448639,-74.12916565,8.667116165,-0.36752203,-0.024339778,-0.103209496
598,201910372,-156.9999542,-74.17067719,8.845707893,-0.6557851,-0.056689255,0.010322571
599,201927039,-157.628952,-74.22238159,9.024172783,-0.6968349,0.02751992,-0.12111187
600,201943706,-158.1854553,-74.27993011,9.139414787,-0.4009465,-0.292384,-0.30473423
601,201960373,-158.7767639,-74.34895325,9.219239235,-0.2188845,-0.541739,-0.23642445
602,201977040,-159.4006805,-74.42823029,9.296111107,-0.20737928,-0.32442915,-0.18197155
603,201993707,-159.9759064,-74.51277161,9.403255463,-0.24574538,-0.04524651,-0.2833004
604,202010374,-160.4395752,-74.60092163,9.549906731,-0.08318239,-0.09091199,-0.14921093
605,202027041,-160.7735901,-74.6967926,9.670933723,0.268301,-0.4081284,0.14920998
606,202043708,-161.0893402,-74.7960434,9.713230133,0.45760345,-0.39673695,0.14618206
607,202060375,-161.4481659,-74.87776947,9.732186317,0.50977117,0.0697832,-0.005314827
608,202077042,-161.7377777,-74.93740082,9.744991302,0.46216267,0.002790448,0.31952667
609,202093709,-161.9477081,-74.98268127,9.7647686,0.29097673,-0.30821598,0.38593483
610,202110376,-162.0361633,-75.02289581,9.785259247,0.03403725,-0.2826851,0.072574615
611,202127043,-161.9759674,-75.0668335,9.773777008,-0.10189989,-0.30897492,-0.023247719
612,202143710,-161.8310242,-75.1098938,9.742845535,-0.07694034,-0.23557986,-0.11750698
613,202160377,-161.6136627,-75.15410614,9.705914497,0.092539646,-0.16521743,0.005964279
614,202177044,-161.3777618,-75.18942261,9.672952652,0.22997925,-0.062278084,-0.019285202
615,202193711,-161.1493378,-75.20983887,9.653812408,0.35156927,0.052173734,-0.014868736
616,202210378,-160.9342499,-75.21208191,9.638161659,0.49003035,0.101770364,-0.060973167
617,202227045,-160.7901611,-75.19478607,9.647301674,0.4401659,0.13169953,-0.12364769
618,202243712,-160.7416992,-75.16841888,9.696400642,0.12988868,0.264892,-0.035265923
619,202260379,-160.6654205,-75.13408661,9.723784447,-0.006093075,0.2873898,0.015651703
620,202277046,-160.5354462,-75.0905304,9.666091919,0.07540559,-0.35431084,0.031215668
621,202293713,-160.4871826,-75.04062653,9.572589874,0.16615236,-0.527858,-0.055361748
622,202310380,-160.4667206,-74.9935379,9.524544716,0.1919101,-0.1400217,-0.060175896
623,202327047,-160.3887024,-74.9453125,9.522954941,0.1047109,0.063647546,0.025589943
624,202343714,-160.2858734,-74.88819885,9.591209412,-0.03191818,0.37259755,-0.019751549
625,202360381,-160.149765,-74.82528687,9.694787025,-0.07344538,0.5644679,-0.12342548
626,202377048,-159.9330444,-74.75575256,9.72325325,0.08811387,0.3078539,-0.11371422
627,202393715,-159.6670074,-74.67688751,9.668451309,0.23669757,-0.14024153,0.09350109
628,202410382,-159.3619385,-74.60636139,9.574333191,0.038823027,-0.43629348,0.22877407
629,202427049,-159.0056305,-74.55697632,9.462766647,-0.25938737,-0.5871892,0.12927055
630,202443716,-158.6147003,-74.5220871,9.325173378,-0.5559681,-0.5281256,0.00733757
631,202460383,-158.1641083,-74.49961853,9.114742279,-0.49720126,-0.45705852,0.04125023
632,202477050,-157.6937866,-74.47925568,8.835661888,-0.13959087,-0.34144533,0.059681892
633,202493717,-157.2523804,-74.45133209,8.558428764,0.22083722,-0.01580952,-0.0828495
634,202510384,-156.8417969,-74.41452789,8.334202766,0.4567587,0.16037379,-0.13610077
635,202527051,-156.4558411,-74.36764526,8.167149544,0.5200753,0.32631102,-0.047808647
636,202543718,-156.0783997,-74.30556488,8.041707993,0.34798735,0.32717055,-0.05811119
637,202560385,-155.7490082,-74.23348999,7.96657896,0.14277983,0.18344557,-0.037158012
638,202577052,-155.4897156,-74.15570068,7.904791355,0.015363443,-0.057068333,-0.3294363
639,202593719,-155.2908936,-74.07590485,7.82797575,-0.010246141,-0.045950912,-0.101914406
640,202610386,-155.0239105,-74.00942993,7.648840427,-0.11046876,-0.12400365,0.24546146
641,202627053,-154.7830505,-73.95533752,7.44744873,-0.20654514,-0.16734102,0.14364338
642,202643720,-154.5578461,-73.91413116,7.287864685,-0.4637174,-0.019468872,-0.04954815
643,202660387,-154.2774353,-73.89073944,7.143766403,-0.5184784,0.041524906,-0.09468365
644,202677054,-153.9282379,-73.8864212,7.016364574,-0.46224806,0.09749289,-0.047195435
645,202693721,-153.5401917,-73.89723969,6.911056042,-0.3976976,0.10267459,0.07753849
646,202710388,-153.1366882,-73.92401886,6.842879295,-0.40058792,0.06564989,0.12091637
647,202727055,-152.7257233,-73.96068573,6.813155651,-0.3381165,0.10413424,-0.04527569
648,202743722,-152.2991333,-74.01078033,6.792752266,-0.15581825,0.04754791,-0.23062038
649,202760389,-151.9072266,-74.06290436,6.751068115,0.051180415,-0.17252395,-0.37353992
650,202777056,-151.6293335,-74.11118317,6.689351082,0.12789853,-0.19529533,-0.5029602
651,202793723,-151.4578705,-74.15955353,6.614125252,0.005882051,0.00576127,-0.18899155
652,202810390,-151.3403625,-74.20681763,6.559860229,-0.045185268,0.21256228,0.17403507
653,202827057,-151.2203369,-74.25226593,6.52268362,-0.08895888,0.22765186,0.38756657
654,202843724,-151.0773163,-74.29589844,6.477178097,0.002339175,0.044900734,0.31038475
655,202860391,-150.953186,-74.33361816,6.418331623,0.12202539,-0.14259724,0.002964973
656,202877058,-150.8520508,-74.36155701,6.324974537,0.28587407,-0.1794761,-0.33941936
657,202893725,-150.8173676,-74.38149261,6.198767185,0.35878655,-0.14986923,-0.31471062
658,202910392,-150.8608093,-74.39415741,6.060150146,0.2828335,0.055134166,0.028923988
659,202927059,-150.9301758,-74.40258026,5.930603504,0.115232944,0.24315271,0.21852684
660,202943726,-150.991806,-74.40540314,5.834448338,-0.032155972,0.2863058,0.08393383
661,202960393,-151.027298,-74.40497589,5.763207912,-0.09202425,0.19409898,-0.094955444
662,202977060,-151.0790253,-74.4043045,5.734574318,-0.096524656,0.22810636,-0.1850605
663,202993727,-151.12883,-74.4083786,5.747692585,-0.14394838,0.21424443,-0.10514927
664,203010394,-151.1512451,-74.42108154,5.790412426,-0.1849637,0.13631217,0.06969929
665,203027061,-151.1259155,-74.43911743,5.839838505,-0.24487795,0.10644682,0.17157173
666,203043728,-151.0315247,-74.46450043,5.860927105,-0.23113927,-0.17212923,0.0893631
667,203060395,-150.9191589,-74.49134827,5.854616165,-0.08718304,-0.34850007,-0.17015553
668,203077062,-150.8192139,-74.52632141,5.833183765,-0.001709064,-0.3327118,-0.15279484
669,203093729,-150.7660828,-74.57133484,5.812708378,0.06492914,-0.15079513,-0.08932972
670,203110396,-150.7229309,-74.61546326,5.78791666,0.16582909,0.095952995,0.031463623
671,203127063,-150.7222748,-74.64463806,5.775958538,0.36363688,0.13527831,-0.14177418
672,203143730,-150.7902832,-74.65414429,5.7993536,0.2957145,0.19837914,-0.13629723
673,203160397,-150.8806915,-74.65910339,5.857517719,0.200246,0.17478266,0.002711296
674,203177064,-150.9558411,-74.66821289,5.942122936,0.0634275,-0.02099826,-0.048740387
675,203193731,-151.0309296,-74.67993164,6.024414539,0.04541473,-0.20938973,-0.16076088
676,203210398,-151.1564941,-74.68450165,6.118100166,-0.057911564,-0.13713224,0.003074646
677,203227065,-151.2440796,-74.69155121,6.166925907,-0.066174895,0.008201361,0.17280293
678,203243732,-151.3203735,-74.69478607,6.190405846,-0.07079502,0.013309526,0.14660168
679,203260399,-151.4086761,-74.69632721,6.218575478,-0.09826026,-0.01971049,-0.023652077
680,203277066,-151.4572754,-74.70462036,6.205927849,-0.12342519,-0.19056569,-0.109270096
681,203293733,-151.4965057,-74.71903992,6.171921253,-0.05348176,-0.201104,-0.10895443
682,203310400,-151.5470123,-74.73928833,6.141621113,-0.0177545,-0.007072285,0.0157547
683,203327067,-151.6085968,-74.76115417,6.128464222,0.004082101,0.076134436,0.13804245
684,203343734,-151.6490173,-74.77883911,6.100847244,0.011466606,0.12619922,0.1652832
685,203360401,-151.6974945,-74.78464508,6.085783482,0.07455836,0.15251854,-0.1377182
686,203377068,-151.7483826,-74.78704834,6.086479187,0.10022223,0.15622506,-0.21801472
687,203393735,-151.7942657,-74.79169464,6.08940649,0.08804689,-0.021082636,-0.07037163
688,203410402,-151.8609009,-74.79425812,6.097221375,0.08036157,0.00140042,-0.027676582
689,203427069,-151.9388428,-74.79091644,6.11081934,0.123543404,0.04990564,-0.069405556
690,203443736,-152.0307159,-74.77692413,6.099722385,0.23519832,-0.080551274,-0.024956703
691,203460403,-152.1499176,-74.7596283,6.080773354,0.11170121,-0.054178424,0.09008312
692,203477070,-152.2669678,-74.74804688,6.098048687,-0.22421096,-0.044861846,0.09754467
693,203493737,-152.3052979,-74.74941254,6.137358189,-0.38951033,-0.080226846,0.049370766
694,203510404,-152.253891,-74.76040649,6.175240517,-0.37977558,-0.18340266,-0.04014969
695,203527071,-152.153656,-74.78143311,6.177811623,-0.27983433,-0.27976793,-0.017110825
696,203543738,-152.0409393,-74.80605316,6.146883488,-0.051878054,-0.1641535,-0.04314804
697,203560405,-151.9412689,-74.82639313,6.125049591,0.19372882,0.09586001,-0.03784275
698,203577072,-151.8379974,-74.84393311,6.100908756,0.19626927,-0.050473474,-0.09026241
699,203593739,-151.7518768,-74.86301422,6.088078976,0.052028984,-0.09540248,-0.023817062
700,203610406,-151.6574402,-74.88341522,6.103153229,-0.0742671,-0.006452037,0.027329445
701,203627073,-151.4972382,-74.90807343,6.115571976,-0.14221218,-0.042285074,0.030258179
702,203643740,-151.2842865,-74.94402313,6.108114243,-0.048644688,-0.15789413,-0.08317852
703,203660407,-151.105423,-74.97714233,6.121877193,-0.007567786,0.07447127,-0.15828228
704,203677074,-150.9251404,-75.00582886,6.159129143,0.06356166,0.2792886,-0.04827881
705,203693741,-150.7385406,-75.02812195,6.216885567,0.113775104,0.17381564,-0.024129868
706,203710408,-150.5509491,-75.04652405,6.275247097,0.1298686,0.059792064,0.050151825
707,203727075,-150.3852692,-75.06301117,6.33439827,0.08942644,-0.093681544,0.063118935
708,203743742,-150.2314301,-75.07803345,6.364706039,0.04427976,-0.13893643,-0.003094673
709,203760409,-150.0842438,-75.08909607,6.343122005,0.07461586,-0.14431617,-0.12557507
710,203777076,-149.9768066,-75.09274292,6.283432007,0.17119718,-0.08076462,-0.031292915
711,203793743,-149.8997955,-75.08486176,6.19093132,0.2407933,0.088449106,5.11E-04
712,203810410,-149.7455444,-75.06298828,5.988345146,0.41729563,0.14665858,-0.08564854
713,203827077,-149.6138,-75.02519226,5.730308056,0.48396075,-0.13065182,0.005994797
714,203843744,-149.6430206,-74.96911621,5.505246639,0.26459068,0.034065496,-0.07747269
715,203860411,-149.733139,-74.91530609,5.402558804,-0.006086872,0.39613056,-0.09202385
716,203877078,-149.7580261,-74.87223053,5.409318924,-0.26978517,0.20484427,0.052394867
717,203893745,-149.7326965,-74.85032654,5.516053677,-0.5835206,-0.013859033,0.07639885
718,203910412,-149.6334991,-74.85109711,5.641060352,-0.6037296,-0.24877405,0.040634155
719,203927079,-149.4878235,-74.8655014,5.704687119,-0.49835175,-0.4259824,0.06250477
720,203943746,-149.3436737,-74.88502502,5.711343765,-0.30837634,-0.17884098,0.022016525
721,203960413,-149.2187958,-74.91347504,5.709651947,0.034621596,0.025534566,-0.09099579
722,203977080,-149.1624603,-74.9355011,5.727098942,0.32201546,0.25102797,-0.25280094
723,203993747,-149.1536102,-74.94611359,5.787228584,0.34894094,0.28280792,-0.16042519
724,204010414,-149.156723,-74.95049286,5.871985912,0.3460441,0.20399357,0.044772148
725,204027081,-149.2094116,-74.94533539,5.983178139,0.27372313,0.11235382,-0.022846222
726,204043748,-149.2775574,-74.93457031,6.088432312,0.10410552,0.12642217,-0.02391243
727,204060415,-149.3362885,-74.91889954,6.158878803,0.05407544,0.10138257,-0.050883293
728,204077082,-149.3509216,-74.89350128,6.123260975,0.1466749,-0.2133249,-0.13953114
729,204093749,-149.3674622,-74.86190796,5.962502956,0.07676991,-0.6268735,0.044326782
730,204110416,-149.4339905,-74.8326416,5.770214081,-0.15489618,-0.46927226,0.11944008
731,204127083,-149.44664,-74.81993866,5.600647926,-0.4045545,-0.22711542,0.11368084
732,204143750,-149.3742065,-74.8324585,5.491542816,-0.53751045,-0.10185966,0.010473251
733,204160417,-149.1430206,-74.85982513,5.389178276,-0.51748574,0.09640829,0.076812744
734,204177084,-148.8126526,-74.89611053,5.327371597,-0.42253453,0.1445693,0.03691864
735,204193751,-148.431778,-74.93965149,5.306605816,-0.26132733,0.062195722,0.006289482
736,204210418,-148.0263824,-74.99198151,5.310166359,-0.053497743,-0.18549205,0.07331371
737,204227085,-147.5827332,-75.0605011,5.276825905,-0.065915085,-0.3736247,0.057257652
738,204243752,-147.0845032,-75.1348114,5.131946564,0.014968327,-0.6112066,-0.080527306
739,204260419,-146.6152802,-75.20524597,4.892601967,0.14704345,-0.50819033,-0.13365364
740,204277086,-146.2238007,-75.27258301,4.599573612,0.27957973,-0.09240875,-0.17884445
741,204293753,-145.920578,-75.32884216,4.326092243,0.36921674,0.40938723,-0.14146996
742,204310420,-145.6876984,-75.37158203,4.117732048,0.33309567,0.5861989,-0.11631966
743,204327087,-145.4670105,-75.40839386,3.9366889,0.08146075,0.35362008,-0.07728863
744,204343754,-145.3011322,-75.44615173,3.839419365,-0.12683003,0.2083228,-0.010011673
745,204360421,-145.1234283,-75.50020599,3.776656628,-0.2753218,-0.07336164,0.06807995
746,204377088,-144.9189453,-75.56455994,3.692402363,-0.2887642,-0.42527208,0.03699398
747,204393755,-144.6948853,-75.63576508,3.519407272,-0.15986292,-0.5086458,0.034708977
748,204410422,-144.4978943,-75.70627594,3.248242617,-0.0859547,-0.28994313,0.027747154
749,204427089,-144.3018341,-75.77548981,2.902490139,-0.19428645,0.049332887,-0.015975952
750,204443756,-144.0994873,-75.84721375,2.546002865,-0.100517355,0.32941508,-0.15838814
751,204460423,-143.9561768,-75.91516113,2.264176607,0.13964072,0.510287,-0.11955929
752,204477090,-143.8659515,-75.97776031,2.064250946,0.41962656,0.7322633,-0.022083282
753,204493757,-143.7499542,-76.03996277,1.877769709,0.32893696,0.4383602,0.1217289
754,204510424,-143.5518951,-76.1105957,1.628934622,0.011803887,-0.032845117,0.0799284
755,204527091,-143.4365234,-76.17958069,1.406948328,-0.2199663,-0.09023285,-0.10294628
756,204543758,-143.4083557,-76.24785614,1.316091537,-0.23279282,0.45265052,-0.12386322
757,204560425,-143.4586792,-76.30587006,1.404565692,0.36193225,0.9918421,-0.03452587
758,204577092,-143.5236053,-76.35662842,1.566089988,0.37905952,0.6846983,0.18573856
759,204593759,-143.5615387,-76.40997314,1.718494058,0.180277,-0.12666725,-0.1738596
760,204610426,-143.5173798,-76.47686768,1.775235772,-0.28214252,-0.7585911,-0.29108047
761,204627093,-143.4982758,-76.55884552,1.79180944,-0.08919522,-0.66950625,-0.11102009
762,204643760,-143.6363983,-76.60752869,1.883859038,0.581699,0.65763927,-0.07244682
763,204660427,-143.960083,-76.60165405,2.135994196,1.0695388,1.3711647,-0.034402847
764,204677094,-144.2527618,-76.58913422,2.326631308,0.2312731,0.36220643,0.296422
765,204693761,-144.3592987,-76.64472198,2.307458878,-1.3555864,-1.1188232,0.028780937
766,204710428,-144.2762451,-76.76914978,2.179444551,-1.657618,-1.3936828,-0.4996271
767,204727095,-144.1413269,-76.91808319,2.028044701,-0.95858985,-0.7332747,-0.13297272
768,204743762,-144.0824432,-77.03689575,1.874145269,0.5103672,0.7698205,0.23448944
769,204760429,-144.3618011,-77.06373596,1.985817075,1.897301,2.7603152,0.19337463
770,204777096,-145.1899261,-77.00023651,2.63288188,1.8933586,3.1487565,0.48912334
771,204793763,-146.1174469,-76.93486786,3.624226809,0.25012195,1.5305408,0.267457
772,204810430,-146.6634521,-76.97408295,4.60792923,-1.6426558,-1.0177158,-0.50597763
773,204827097,-146.659256,-77.16205597,5.270457745,-2.4573135,-2.9326134,-1.0871944
774,204843764,-146.32724,-77.3829422,5.473925591,-0.8867718,-3.056715,-0.88273335
775,204860431,-146.2133636,-77.53210449,5.265728951,1.0426311,-1.3616147,0.42585373
776,204877098,-147.0132904,-77.53262329,5.298086643,2.0149953,1.4980209,1.3036251
777,204893765,-148.293396,-77.47635651,5.783077717,0.6398777,2.1637151,1.0690622
778,204910432,-149.2220306,-77.47312927,6.33935976,-0.65579647,2.2660482,-0.6961689
779,204927099,-150.1477509,-77.45407867,7.355431557,-0.57540184,1.8343091,-1.4587936
780,204943766,-151.2322693,-77.36377716,8.785469055,1.0889448,1.158868,-0.22794724
781,204960433,-152.8706207,-77.15717316,10.49842644,2.1841383,0.34738037,0.64064217
782,204977100,-154.883728,-76.91841125,12.13056755,1.2761534,0.19982785,-0.21779156
783,204993767,-156.947937,-76.74919891,13.85597706,-1.1537448,1.2115288,-1.1643772
784,205010434,-158.5286713,-76.66456604,15.67575741,-1.6491385,1.0553942,-0.8054638
785,205027101,-159.7248535,-76.55076599,17.38733864,-0.4467314,-0.4185185,-0.11759281
786,205043768,-161.1828003,-76.27523041,19.09164238,1.504322,-0.339214,1.1265268
787,205060435,-162.6468506,-75.962677,20.47428703,1.3724542,-0.9025621,1.1983366
788,205077102,-163.9417877,-75.82098389,21.50477028,-1.2675834,0.6699629,-0.8851805
789,205093769,-165.168045,-75.8759613,22.80284691,-3.3930619,0.55857396,-1.4319057
790,205110436,-165.8296661,-76.04457855,24.04841995,-3.0392013,-0.9111474,0.007353783
791,205127103,-166.3781738,-76.1466217,25.20598602,-0.7643715,-2.2945595,1.7348757
792,205143770,-167.2815094,-76.11140442,26.24028969,1.0375837,-1.7409652,1.6721334
793,205160437,-168.250885,-76.21157837,27.06103516,-0.7465025,-0.6463824,-0.18384647
794,205177104,-169.0096893,-76.5188446,27.86122704,-1.911207,-0.6233973,-1.1486845
795,205193771,-169.3873901,-76.82673645,28.45426941,-0.88488156,-0.8115553,0.17818642
796,205210438,-169.7659607,-77.04104614,29.02578354,0.31727436,-0.8770128,0.8560791
797,205227105,-170.2280731,-77.13967896,29.57094193,1.6649628,-0.5292136,0.7518892
798,205243772,-170.6397247,-77.35149384,30.04885674,-0.003720038,0.35124257,-1.1002531
799,205260439,-171.0196838,-77.76722717,30.69857597,-0.87598586,0.030975431,-1.0772715
800,205277106,-171.2445221,-78.15455627,31.25599861,-0.22505447,-0.3717366,0.85629654
801,205293773,-171.7126007,-78.35109711,31.98960114,0.029429002,0.10563446,1.1522522
802,205310440,-172.4093781,-78.38061523,32.93457794,1.0415437,0.5715823,0.4158821
803,205327107,-173.1436157,-78.451828,33.85326767,1.1487806,0.46339422,-0.9526758
804,205343774,-173.9153595,-78.64211273,34.81877518,1.175626,0.30493236,-0.452981
805,205360441,-174.4063721,-78.75629425,35.57554245,2.2942555,-0.2040927,0.91248417
806,205377108,-174.4475861,-78.74329376,35.71982193,2.2499452,-0.24971996,0.7696495
807,205393775,-174.4627228,-78.62346649,35.64814758,0.75410014,-0.29419848,0.0651083
808,205410442,-174.5713348,-78.47246552,35.62850952,-0.46359286,-0.3113046,0.14004612
809,205427109,-174.5575409,-78.34805298,35.55929565,-1.0926864,-0.41032442,0.027004242
810,205443776,-174.3112335,-78.3049469,35.42585754,-0.6794202,-0.8091827,0.21092796
811,205460443,-173.5548248,-78.37008667,34.80397797,0.441776,-1.4484379,0.6538954
812,205477110,-172.4828033,-78.55917358,33.75104904,0.06347091,-1.9867882,-0.21454525
813,205493777,-171.3692627,-78.75106812,32.60325623,-0.55855966,-2.3967018,-1.0062094
814,205510444,-170.1026459,-78.92854309,31.31251335,-0.96178544,-1.4381458,-0.99712086
815,205527111,-168.9000092,-79.14554596,30.14781761,-0.99910873,-0.18632174,-0.9504938
816,205543778,-168.0289612,-79.42445374,29.29623985,-0.60651344,0.9461416,-0.96423817
817,205560445,-167.3818054,-79.73317719,28.62265205,-0.17500372,1.464532,-0.16121769
818,205577112,-166.8522491,-79.99712372,28.04014397,0.15187398,1.5232002,0.84716225
819,205593779,-166.5252075,-80.20345306,27.71672058,0.18655486,1.8412535,1.0337896
820,205610446,-166.4963684,-80.38454437,27.79502296,0.07891119,1.4948986,-0.13207245
821,205627113,-166.717453,-80.55706024,28.12890816,-0.11784307,0.9230056,-0.58576393
822,205643780,-166.8829041,-80.7178421,28.43688202,0.009058086,-0.055258103,-0.34887695
823,205660447,-166.8100128,-80.86406708,28.44598961,0.33351824,-0.72937006,-0.025426865
824,205677114,-166.4929962,-80.99640656,28.1089325,0.44681722,-0.7966726,0.13887787
825,205693781,-166.0567474,-81.13421631,27.59969139,0.54980975,-0.5547659,0.28443813
826,205710448,-165.5992126,-81.2727356,27.04743004,0.4867185,-0.36180678,-0.005302429
827,205727115,-165.1799011,-81.37236023,26.51132774,0.42885083,0.18444501,0.07976532
828,205743782,-164.5883636,-81.4265213,25.83348274,0.38115168,0.42285433,0.008867264
829,205760449,-163.7686768,-81.46066284,24.90326118,0.08887853,0.15830506,-0.26678848
830,205777116,-162.9386597,-81.48708344,23.94890785,-0.18312064,0.23093404,-0.17470646
831,205793783,-162.3689423,-81.51885986,23.31698608,-0.23000371,0.30982092,0.041499138
832,205810450,-162.0203094,-81.56585693,22.920084,-0.021605432,-0.035166413,0.04477787
833,205827117,-161.6936646,-81.61740112,22.4760685,0.016530069,0.058047656,-0.004055023
834,205843784,-161.384552,-81.67491913,22.03159523,-0.049697436,0.4334712,0.018530846
835,205860451,-161.1579285,-81.73573303,21.71882248,-0.08185251,0.799895,-0.16951084
836,205877118,-160.9700775,-81.7987442,21.49385071,-0.06212291,0.74272215,-0.138443
837,205893785,-160.7815094,-81.86209106,21.30478287,-0.07412634,0.53462374,-0.111722946
838,205910452,-160.5826874,-81.9331131,21.12355614,-0.09695869,0.20241468,-0.086523056
839,205927119,-160.316391,-82.01333618,20.87317085,-0.16621228,-0.1557445,-0.10426521
840,205943786,-159.9575958,-82.1209259,20.51675415,-0.33773634,-0.3654411,-0.34879303
841,205960453,-159.6788177,-82.24129486,20.22899628,-0.39731562,-0.44850668,-0.45062447
842,205977120,-159.6526947,-82.34470367,20.17412758,-0.32855076,-0.11899617,-0.012343407
843,205993787,-159.7795258,-82.42249298,20.3192749,0.085426204,0.36628821,0.42787647
844,206010454,-159.7845459,-82.47311401,20.37166023,0.49952537,0.29040167,0.6817808
845,206027121,-159.4603577,-82.49729156,20.04273033,0.7039866,0.117296696,0.24470043
846,206043788,-159.0492554,-82.49536133,19.5627327,0.49512672,0.5988958,-0.4492607
847,206060455,-159.0299683,-82.48931885,19.54125786,0.23998581,0.9461366,-0.8423605
848,206077122,-159.4117432,-82.50106049,20.0077343,0.33655855,0.66198915,-0.32052898
849,206093789,-159.7748718,-82.51670074,20.45763969,0.5512218,0.10339933,0.47210026
850,206110456,-160.0137329,-82.50309753,20.70217133,0.39945292,-0.17450617,0.6487293
851,206127123,-160.156189,-82.459198,20.83924294,0.13259056,-0.14217536,0.24066639
852,206143790,-160.2851715,-82.39571381,20.98118973,-0.025576252,-0.25011322,-0.11601162
853,206160457,-160.4708557,-82.31977844,21.16255188,-0.03793149,-0.117798924,-0.13875866
854,206177124,-160.6572571,-82.25370026,21.35483551,-0.040724788,0.0862066,-0.106744766
855,206193791,-160.726593,-82.21762085,21.42807579,-0.09736951,-0.112560004,-0.3086195
856,206210458,-160.6703949,-82.20339203,21.32790375,-0.24494438,-0.23739982,-0.31264877
857,206227125,-160.5699005,-82.2016449,21.19360542,-0.28987625,-0.107170776,-0.052365303
858,206243792,-160.5243683,-82.19409943,21.13426971,-0.20364948,7.54E-04,0.11000252
859,206260459,-160.4606171,-82.17782593,21.07097244,-0.11091109,0.08063878,8.39E-04
860,206277126,-160.2790527,-82.17484283,20.89128494,-0.003358673,-0.086255774,0.010765076
861,206293793,-159.9916534,-82.18865204,20.58092117,0.003200762,-0.19088487,-0.10680103
862,206310460,-159.7335205,-82.20653534,20.2928257,0.031029856,0.017925851,-0.16552734
863,206327127,-159.5529175,-82.22418976,20.10272598,0.14068335,0.2000289,-0.12379265
864,206343794,-159.4454193,-82.23679352,19.98373795,0.15513693,0.2418066,-0.04632187
865,206360461,-159.3253937,-82.24594879,19.8539772,0.16640233,0.21825817,0.16135979
866,206377128,-159.1525421,-82.25048065,19.66849709,0.18149246,0.10260306,0.23375511
867,206393795,-158.9323425,-82.25157166,19.43653679,0.15448551,0.09452251,-0.028374672
868,206410462,-158.7149811,-82.2598114,19.22854805,0.20556593,0.13735966,-0.21569443
869,206427129,-158.5830841,-82.2816925,19.11265564,0.17075422,0.19022785,-0.2341795
870,206443796,-158.5092468,-82.32154083,19.03970528,0.14097348,0.064977676,-0.07075119
871,206460463,-158.4231415,-82.36843872,18.93083382,0.041896217,0.09892829,0.09603214
872,206477130,-158.3560944,-82.38892365,18.84442711,-0.12353729,0.06973727,0.5616665
873,206493797,-158.3670349,-82.3735199,18.86365128,-0.098245285,0.25778463,0.3500185
874,206510464,-158.2508392,-82.35124969,18.79384613,-0.1922008,0.28537843,-0.16943455
875,206527131,-158.0325775,-82.32880402,18.61249161,-0.16362411,0.044623245,-0.2352438
876,206543798,-157.8952332,-82.31781006,18.47299385,-0.25697485,0.17188683,-0.20448017
877,206560465,-157.9422302,-82.32187653,18.54139137,-0.28552428,0.30198756,0.05926895
878,206577132,-158.0431824,-82.31936646,18.69856834,-0.19643565,0.3030144,0.0845232
879,206593799,-158.1408081,-82.31555939,18.86295128,-0.14845993,0.09406319,-0.17256641
880,206610466,-158.2577362,-82.32499695,19.0113945,-0.16241948,0.03215927,-0.20682716
881,206627133,-158.3338623,-82.3425293,19.12901688,-0.14024796,0.037051294,-0.034805298
882,206643800,-158.4070129,-82.34629822,19.25022507,0.04701774,-0.11426787,0.07635689
883,206660467,-158.5937042,-82.30426025,19.46648407,0.15355301,-0.076431595,0.036125183
884,206677134,-158.8735962,-82.20744324,19.7535305,0.08784534,0.04227289,-0.22841644
885,206693801,-159.1353455,-82.06425476,20.04333496,0.16721474,0.016881822,-0.46940994
886,206710468,-159.3608551,-81.92022705,20.32870674,0.27583158,0.20991711,-0.4033146
887,206727135,-159.5269623,-81.82598114,20.54630661,0.39031622,0.17037621,0.04728985
888,206743802,-159.5213928,-81.79651642,20.50997734,0.5124366,0.0363308,0.6005573
889,206760469,-159.4241638,-81.76095581,20.35130692,0.48025548,-0.20730324,0.48202705
890,206777136,-159.392334,-81.67984772,20.27097321,0.5998073,-0.3399679,0.14806366
891,206793803,-159.2467651,-81.53265381,20.08540344,0.32522908,-0.19992061,-0.17951488
892,206810470,-159.0431824,-81.29523468,19.79615211,-0.25103468,-0.025063848,-0.7844639
893,206827137,-158.954361,-81.06591797,19.64075279,-0.72126424,0.22661677,-0.41203308
894,206843804,-158.9980774,-80.92922211,19.68478012,-0.9118909,0.12709193,0.3750391
895,206860471,-159.3832245,-80.89305878,20.05673218,-0.8217624,-0.50107235,0.27732944
896,206877138,-160.1357574,-80.92305756,20.72056198,-0.99990064,-0.34822,-0.179039
897,206893805,-160.9503632,-81.04347229,21.52596664,-1.55147,0.22096278,-0.9278965
898,206910472,-161.462616,-81.32217407,22.23760986,-1.1979818,0.20125464,-0.84953976
899,206927139,-161.5158691,-81.5944519,22.50668907,-8.38E-04,-0.55982035,-0.006422997
900,206943806,-161.1997528,-81.75836182,22.17220688,0.7055666,-0.36437005,0.9360571
901,206960473,-160.4423065,-81.85396576,21.37673378,0.90957576,-0.049465653,0.75462055
902,206977140,-159.7267914,-81.85951233,20.54483414,1.2338961,-0.40828687,-0.4632082
903,206993807,-159.6000824,-81.81266022,20.2014122,1.254359,0.20345457,-0.35295868
904,207010474,-159.8635101,-81.75697327,20.3095665,1.2516149,0.71009886,0.120224
905,207027141,-160.022934,-81.66085052,20.36679268,1.551516,0.12930538,0.71198845
906,207043808,-160.0315094,-81.43406677,20.14634514,1.2771086,-0.18220821,0.5826187
907,207060475,-160.2866211,-81.06092834,20.15981865,-0.027228292,-0.10318923,-0.860096
908,207077142,-160.5832367,-80.69604492,20.33834076,-1.1655,0.3609218,-2.0501266
909,207093809,-160.156601,-80.61391449,19.91505241,-0.48611525,0.015848856,-0.50282764
910,207110476,-159.2096558,-80.69436646,18.72275162,0.10616676,-0.72630984,1.2487001
911,207127143,-159.4759827,-80.58934021,18.65638542,-0.1922232,0.19775845,1.4454641
912,207143810,-160.5975494,-80.40665436,19.63303947,-0.5328049,1.9743146,0.8316746
913,207160477,-161.7088623,-80.22835541,20.69628334,-0.3876317,2.9430866,-1.6272364
914,207177144,-162.8814697,-80.17418671,21.82971764,-0.23129791,2.9713125,-3.8210597
915,207193811,-164.0674744,-80.22975922,23.28582382,-0.3624134,2.1177282,-0.5073662
916,207210478,-165.9890289,-80.14200592,25.50754547,0.6478267,0.8458811,3.4691963
917,207227145,-168.2789459,-79.86338806,27.92555237,1.4775262,0.40606135,0.8214617
918,207243812,-169.8191681,-79.5194397,29.49999809,1.7972041,0.32445955,-1.7872019
919,207260479,-170.5981903,-79.16485596,30.28499413,2.0936162,0.46750763,-1.2218962
920,207277146,-171.2018738,-78.76314545,30.88137817,2.5515535,-0.9875819,0.660676
921,207293813,-171.959137,-78.2563858,31.46641541,1.4747013,-1.6363266,-0.04129219
922,207310480,-172.6135864,-77.68965912,31.86314011,0.5193677,-0.5210399,-0.0355196
923,207327147,-173.15625,-77.13761139,32.21279144,-0.43818715,0.7389561,-0.3843069
924,207343814,-173.5787964,-76.6526413,32.57496262,-1.2587123,0.89176005,-0.052991867
925,207360481,-173.7146759,-76.2138443,32.76498795,-0.7716686,-0.034471396,0.56848145
926,207377148,-173.7597046,-75.75534058,32.8667984,-0.21468952,-0.9096037,0.13128471
927,207393815,-173.8395996,-75.26990509,32.91327667,0.27581424,-0.8300658,0.028312683
928,207410482,-173.9487762,-74.82670593,32.99276733,0.072527915,-0.69156665,0.0690546
929,207427149,-173.9612732,-74.4508667,33.02186584,-0.77155644,-0.9007223,-0.051555634
930,207443816,-173.8171844,-74.14206696,32.96395874,-1.4167914,-0.81863153,0.13812351
931,207460483,-173.5958099,-73.84712982,32.84590149,-1.2611091,-0.77320385,0.60918903
932,207477150,-173.2760315,-73.53800964,32.60662842,-0.27539623,-0.7616424,0.5927496
933,207493817,-172.9518738,-73.25485992,32.24437332,0.07560683,-0.8633187,-0.05634308
934,207510484,-172.6369171,-73.05954742,31.87778664,-0.07258902,-0.8565945,0.04741001
935,207527151,-172.1407318,-72.9679184,31.40154839,-0.18302672,-0.8734418,0.43589878
936,207543818,-171.6462555,-72.91138458,30.88712692,-0.46270183,-0.83941543,0.48964882
937,207560485,-171.2976227,-72.79260254,30.46973038,-0.8016308,-0.23061374,0.13817215
938,207577152,-170.9330444,-72.67447662,30.1211586,-1.1161253,0.13647087,-0.037369728
939,207593819,-170.6137238,-72.60790253,29.86172104,-1.2823555,-0.58644277,0.108397484
940,207610486,-170.3207855,-72.5802002,29.56593895,-1.2954088,-1.1476952,0.10303593
941,207627153,-169.9624023,-72.57715607,29.19095802,-0.893219,-0.93242854,0.42084408
942,207643820,-169.5069275,-72.59256744,28.76344681,-0.037134442,-0.8791378,0.66590405
943,207660487,-168.9073334,-72.62490082,28.22731018,0.52901673,-0.7150175,0.31083584
944,207677154,-168.237854,-72.69327545,27.61941719,0.50536895,-0.54852426,-0.16155148
945,207693821,-167.4954224,-72.8094635,26.89944267,0.005261551,-0.64443153,-0.039657593
946,207710488,-166.5851898,-72.93417358,25.90668678,-0.27852127,-0.6516289,0.3985653
947,207727155,-165.6853027,-73.03644562,24.77980423,-0.49066615,-0.21386893,0.06972599
948,207743822,-165.0147095,-73.09590149,23.78015709,-0.51992077,0.23406355,-0.43084908
949,207760489,-164.4847565,-73.11849976,22.92256165,-0.31631157,0.99113804,-0.4343586
950,207777156,-164.0508728,-73.12323761,22.24778366,-0.027671294,1.4306002,-0.015406609
951,207793823,-163.5591888,-73.17455292,21.64507866,-0.12765534,1.5025873,0.16356182
952,207810490,-162.9250183,-73.28807068,21.11330986,-0.5803241,0.8076998,-0.10397148
953,207827157,-162.302475,-73.42545319,20.74562073,-0.43430293,-0.13111247,-0.72220135
954,207843824,-161.6779327,-73.55664063,20.37354469,0.13165125,-0.4227875,-0.19365978
955,207860491,-161.0623169,-73.63663483,19.8880291,0.4344036,-0.97838044,0.6045151
956,207877158,-160.6437225,-73.6467514,19.33490372,0.49059635,-0.543097,-0.06505585
957,207893825,-160.4054413,-73.64126587,18.80360031,0.18539628,0.18919724,-0.38523388
958,207910492,-160.1676331,-73.65892029,18.32160568,-0.023895714,0.31241232,-0.09388733
959,207927159,-159.6758728,-73.73422241,17.69517326,-0.62531614,0.03671312,0.37908268
960,207943826,-158.9462585,-73.87921143,16.92486,-1.0758429,-0.56833166,0.17885494
961,207960493,-158.0545197,-74.10945892,15.95701408,-1.2901222,-0.6929871,0.47019577
962,207977160,-157.1446075,-74.35876465,15.01463795,-0.42294872,-0.44870013,0.42591667
963,207993827,-156.401123,-74.53125,14.13537312,0.1827271,-0.14907196,0.107518196
964,208010494,-155.7334137,-74.69559479,13.2211895,0.30088297,0.61721617,-0.06838608
965,208027161,-155.194519,-74.87163544,12.31344795,0.16818333,0.6106916,-0.32352352
966,208043828,-154.8799286,-75.00979614,11.63085651,0.29379052,0.9923249,-0.64570904
967,208060495,-154.5746155,-75.12456512,11.1768589,0.098121576,1.0775079,-0.3928833
968,208077162,-154.1424561,-75.23892975,10.8721838,0.2868937,0.6859394,0.02865982
969,208093829,-153.4878693,-75.36087799,10.47290039,0.2896107,-0.36190224,0.2662754
970,208110496,-152.7989655,-75.47129059,9.908328056,0.28988662,-1.0722027,0.07101154
971,208127163,-152.2771301,-75.55516052,9.248518944,0.35370997,-0.8352043,-0.324008
972,208143830,-151.9197235,-75.61029053,8.552301407,0.5575088,0.032221068,-0.2945881
973,208160497,-151.6932678,-75.64765167,7.908071518,0.8043781,0.9214172,-0.26186657
974,208177164,-151.5632477,-75.65601349,7.426375866,0.89066064,1.3511907,-0.23551178
975,208193831,-151.4764252,-75.63427734,7.12705183,0.68318814,1.1093694,-0.35699368
976,208210498,-151.3334503,-75.62236786,6.884644508,-0.4183506,0.5141614,0.00892067
977,208227165,-151.2023315,-75.61886597,6.787811756,-1.0369867,0.12636517,-0.029439926
978,208243832,-150.9141998,-75.62464905,6.743976116,-1.1025248,-0.18440343,0.08304405
979,208260499,-150.4485168,-75.65472412,6.644996166,-0.34314367,-0.46442875,0.25460243
980,208277166,-150.0083008,-75.69345093,6.525606155,0.5917056,-0.22636074,-0.09537506
981,208293833,-149.7298431,-75.70929718,6.442122936,1.1560133,0.48173612,-0.30376244
982,208310500,-149.6403503,-75.68445587,6.465055943,1.1810285,1.1580149,-0.2860031
983,208327167,-149.6285095,-75.62332153,6.616224766,0.87034684,1.4095675,-0.21313477
984,208343834,-149.6109467,-75.54009247,6.886584759,0.49317473,1.0554836,-0.21381569
985,208360501,-149.5467834,-75.4540329,7.197629452,0.095895104,0.11130621,-0.055098534
986,208377168,-149.4736328,-75.37996674,7.42751503,-0.19141495,-0.6762236,0.07590771
987,208393835,-149.4989471,-75.30821991,7.571671963,-0.32575437,-0.6340108,-0.08455658
988,208410502,-149.56604,-75.2469101,7.595085144,-0.2790648,-0.36871278,0.16673183
989,208427169,-149.6842651,-75.19586182,7.53147316,-0.19330378,-0.2446317,0.15393543
990,208443836,-149.8554688,-75.14842987,7.459391594,-0.10608026,-0.11191584,-0.027077675
991,208460503,-150.0635223,-75.10503387,7.420046806,-0.066053726,0.19072573,-0.080905914
992,208477170,-150.245224,-75.07307434,7.404180527,-0.047107313,0.33473715,0.021564484
993,208493837,-150.4139709,-75.04576111,7.436460972,-0.13430262,0.43019718,0.045269012
994,208510504,-150.5541229,-75.02043915,7.56760025,-0.13503346,0.52037585,-0.007043839
995,208527171,-150.6365662,-75.00221252,7.766871929,-0.16759409,0.3046401,-0.001095772
996,208543838,-150.6718292,-74.99791718,7.988636494,-0.26074547,-0.16841131,-0.034395218
997,208560505,-150.6630707,-75.00961304,8.144805908,-0.3114276,-0.5121863,-0.058008194
998,208577172,-150.6658478,-75.02845001,8.228865623,-0.42500713,-0.6871633,-0.07222557
999,208593839,-150.6509857,-75.05742645,8.217060089,-0.2793536,-0.6824368,-0.08923626
1000,208610506,-150.6734619,-75.09192657,8.180142403,-0.002694533,-0.21934523,-0.046869278
1001,208627173,-150.7094574,-75.11872101,8.154493332,0.45549375,0.45520055,-0.14121819
1002,208643840,-150.7261658,-75.13578033,8.11533165,0.6138882,0.38086978,-0.0349741
1003,208660507,-150.757843,-75.14189148,8.070135117,0.41644916,-0.013112052,-0.08461475
1004,208677174,-150.7549133,-75.1359787,8.006567955,0.14036222,-0.25172153,-0.30155087
1005,208693841,-150.6703949,-75.1392746,7.882627487,0.10869172,-0.5079496,-0.3941288
1006,208710508,-150.5778351,-75.15553284,7.70518589,0.058656562,-0.34443638,-0.17913818
1007,208727175,-150.5955658,-75.16121674,7.61315012,-0.06808965,0.06566017,-0.23842621
1008,208743842,-150.6560059,-75.15433502,7.612294674,-0.13300596,0.36487105,0.09358406
1009,208760509,-150.7702332,-75.12147522,7.723872662,0.32830253,0.52592343,-0.09111881
1010,208777176,-150.9438934,-75.06500244,7.913901329,0.583338,0.44422162,-0.09626579
1011,208793843,-151.1109924,-75.0176239,8.100990295,0.19229236,-0.12263977,0.25204468
1012,208810510,-151.0310669,-75.01126862,8.075149536,-0.63805246,-0.7213752,0.5525999
1013,208827177,-150.8271179,-75.02883148,7.944454193,-0.9134665,-0.83419895,0.28693676
1014,208843844,-150.5219574,-75.06006622,7.764005184,-0.64479375,-0.26682886,0.023694038
1015,208860511,-150.2277679,-75.0885849,7.603805542,0.25039744,0.19029133,-0.10454655
1016,208877178,-150.0554047,-75.09111023,7.502402782,1.0353353,0.82463306,-0.16608906
1017,208893845,-149.9131317,-75.07848358,7.440330982,0.55159265,0.35641387,0.11585522
1018,208910512,-149.6656647,-75.08218384,7.324151039,-0.25373182,-0.67595357,-0.04231167
1019,208927179,-149.3728333,-75.08824921,7.148702621,-0.4181421,-0.77966326,-0.38226795
1020,208943846,-149.1718597,-75.08837891,7.013670444,0.037434675,-0.014406639,-0.12573624
1021,208960513,-148.997757,-75.09298706,6.831130505,-0.26271656,0.33067614,0.29300594
1022,208977180,-148.9134064,-75.07971954,6.778502464,-0.09645316,0.96709186,-0.08593845
1023,208993847,-148.6923523,-75.08146667,6.764846802,-0.18937421,0.7754557,0.08494377
1024,209010514,-148.5291901,-75.08061981,6.915344238,0.11600228,0.51172554,0.026270866
1025,209027181,-148.5128479,-75.08470917,7.24976778,-0.2735563,1.0394691,0.004118919
1026,209043848,-148.6917877,-75.09002686,7.847729683,-0.791384,1.297542,0.017787933
1027,209060515,-148.8680115,-75.11889648,8.575139046,-0.933192,1.1678702,-0.11197281
1028,209077182,-148.9959564,-75.15970612,9.364265442,-0.444772,0.50274634,-0.24263954
1029,209093849,-149.1082001,-75.21339417,10.16077328,0.03845043,-0.1271905,0.02393055
1030,209110516,-149.1040802,-75.31824493,10.78896427,-0.22291322,-1.6715776,0.24775028
1031,209127183,-148.9889069,-75.42182922,11.16182041,0.37239337,-2.2323322,-0.2787447
1032,209143850,-148.8060913,-75.48975372,11.13984871,0.7324153,-2.255036,-0.09039688
1033,209160517,-148.8426666,-75.48570251,10.96229649,1.5891829,-0.70001966,0.081560135
1034,209177184,-149.2189484,-75.36853027,10.88693428,1.8285922,1.1458215,0.41051674
1035,209193851,-149.5776062,-75.20932007,10.83145046,1.0894662,1.3950452,0.038409233
1036,209210518,-149.9910889,-75.08142853,10.89428329,-0.26853836,1.6698827,-0.80917835
1037,209227185,-150.5150299,-75.03029633,11.32315254,-1.103655,1.9903239,-0.90920544
1038,209243852,-150.7976685,-75.03409576,11.90156841,-0.87432915,0.8351877,-0.024851799
1039,209260519,-150.9109497,-74.97351074,12.41025734,0.7685889,-0.2439654,0.16867352
1040,209277186,-151.3239594,-74.76442719,12.8578701,2.2778833,-0.49881533,-0.09265232
1041,209293853,-152.3235474,-74.46910095,13.42582512,1.7725908,0.44397575,-0.06614685
1042,209310520,-153.5935669,-74.19017029,14.22282505,0.41277757,1.5161266,-0.28505516
1043,209327187,-154.6627045,-73.9785614,15.14253616,-1.0256726,1.581107,-0.41043854
1044,209343854,-155.1864471,-73.8628006,15.97202206,-1.1372272,-0.05547547,-0.22129726
1045,209360521,-155.4413452,-73.76818848,16.58924484,-0.49905553,-1.1801311,0.13125896
1046,209377188,-155.8871155,-73.59153748,17.11323738,0.34061447,-0.6975636,0.38912296
1047,209393855,-156.7284241,-73.31335449,17.7334671,0.3299601,0.06459413,0.37690735
1048,209410522,-157.7023621,-73.01473236,18.49053192,-0.3815477,1.2124369,0.22554111
1049,209427189,-158.6536407,-72.75898743,19.49536133,-0.58453834,1.1220896,-0.40417385
1050,209443856,-159.5661774,-72.54273224,20.61854553,-0.9177065,0.75094205,-0.48457623
1051,209460523,-160.4596558,-72.34576416,21.78086853,-0.8120422,0.42957336,-0.03406048
1052,209477190,-161.220108,-72.20310211,22.80212021,-0.86670226,-0.37774047,0.07444668
1053,209493857,-161.8282776,-72.13322449,23.58768272,-0.42950645,-1.0448165,0.11654854
1054,209510524,-162.3898468,-72.06517029,24.12359428,0.1253908,-1.2152286,0.22317219
1055,209527191,-163.0563049,-71.89836884,24.62709045,0.6068893,-0.5782185,0.14953804
1056,209543858,-163.6652832,-71.70329285,25.11354065,0.50430435,-0.39785752,-0.20445538
1057,209560525,-164.1851807,-71.57805634,25.58280182,-0.20051397,-0.663093,-0.26386166
1058,209577192,-164.7268219,-71.44558716,26.03584671,-0.3307291,-0.4486399,0.18950176
1059,209593859,-165.1861115,-71.29714203,26.47406387,-0.56964415,0.5565278,0.24144363
1060,209610526,-165.6388245,-71.14189911,26.94102097,-0.5740351,0.50998837,0.092552185
1061,209627193,-166.3401489,-70.99228668,27.59186554,-0.9277128,0.8466436,-0.36753464
1062,209643860,-167.1210938,-70.95055389,28.46043968,-1.2022444,0.63613755,-0.11694908
1063,209660527,-167.8030701,-70.97107697,29.36566734,-0.20210788,-1.1207255,0.5752945
1064,209677194,-168.4810791,-70.9285965,30.13448715,0.39735648,-1.4873085,0.605196
1065,209693861,-169.0645599,-70.82759857,30.69120979,0.67152417,-0.73196137,0.30996227
1066,209710528,-169.4647369,-70.75889587,31.06833839,0.2737842,0.06413581,-0.046414375
1067,209727195,-169.7532501,-70.83231354,31.35322952,-0.5329002,-0.006147053,-0.15531158
1068,209743862,-170.073349,-71.00756073,31.72774124,-1.1395526,-0.89245826,0.27318478
1069,209760529,-170.3994751,-71.1462326,32.13803482,-1.1058764,-1.4417516,0.46950054
1070,209777196,-170.6687469,-71.24259949,32.52928162,-0.7687537,-1.0160112,0.8584013
1071,209793863,-170.8132782,-71.28133392,32.79755402,0.24263772,-0.56096476,0.5468645
1072,209810530,-170.7693939,-71.32444763,32.80082703,0.86330175,-0.25391418,-0.48655415
1073,209827197,-170.6005096,-71.48658752,32.66263962,0.44295004,0.17121439,-0.50356007
1074,209843864,-170.5387421,-71.72766876,32.70308304,-0.7290447,-0.5508129,0.069413185
1075,209860531,-170.4284973,-71.97405243,32.7999382,-1.2280108,-1.2562969,0.34942627
1076,209877198,-170.1377258,-72.20006561,32.71013641,-0.78564787,-1.5930318,0.3020401
1077,209893865,-169.5507965,-72.39618683,32.25078583,0.31703392,-1.0818408,0.61397934
1078,209910532,-168.7409668,-72.55293274,31.56413841,1.2015908,-0.124803156,0.14807796
1079,209927199,-168.0317535,-72.65703583,30.97045898,1.6181022,0.14112273,-0.4154768
1080,209943866,-167.4666443,-72.68565369,30.3822937,1.7453805,-0.059689917,-0.23136044
1081,209960533,-166.8896179,-72.63738251,29.67467308,1.1649797,0.14818908,-0.31990814
1082,209977200,-166.3541565,-72.57872772,29.05013657,0.37965465,0.49573183,-0.39243603
1083,209993867,-166.0608368,-72.53338623,28.61208916,-0.24463616,0.72991025,-0.38685608
1084,210010534,-165.9597473,-72.51621246,28.38443375,-1.0598551,1.7132664,-0.44507694
1085,210027201,-165.8865204,-72.53259277,28.33177757,-1.2573472,1.8272526,-0.19726658
1086,210043868,-165.8871613,-72.56581116,28.42823792,-1.3263835,1.6628046,0.19618416
1087,210060535,-165.9798431,-72.63582611,28.71099854,-1.4057045,1.2874385,0.21355438
1088,210077202,-166.1642609,-72.75617218,29.15392494,-1.1907346,0.44773477,0.002200127
1089,210093869,-166.4979858,-72.88736725,29.73892403,-0.8127257,-0.29538712,-0.12896061
1090,210110536,-166.8991394,-73.0099411,30.36033821,-0.3719294,-0.61344874,-0.15381622
1091,210127203,-167.2709045,-73.12441254,30.90340233,0.15794542,-0.68099684,-0.002313614
1092,210143870,-167.5905609,-73.24383545,31.34767532,0.5090602,-0.55528164,0.012037277
1093,210160537,-167.8751984,-73.37230682,31.72565842,0.66972744,-0.3016483,-0.068092346
1094,210177204,-168.113678,-73.49932861,32.05096817,0.6893396,-0.05747792,-0.33896065
1095,210193871,-168.2751465,-73.61392212,32.2923851,0.7474676,-0.16490294,-0.33057213
1096,210210538,-168.332962,-73.7215271,32.40891647,0.91981125,-0.3187868,0.033006668
1097,210227205,-168.284317,-73.81491089,32.3986969,1.0551186,-0.3969493,0.06150818
1098,210243872,-168.2066956,-73.88260651,32.30681992,0.99580383,-0.4772156,-0.3338642
1099,210260539,-168.1637115,-73.9160614,32.19174576,0.75637037,-0.2855863,-0.3813963
1100,210277206,-168.0514374,-73.914711,32.00270462,0.61941934,-0.11299083,0.11393738
1101,210293873,-167.7812042,-73.88549042,31.65838814,0.5617337,-0.14062072,0.3507681
1102,210310540,-167.4197235,-73.83838654,31.19450569,0.16915807,-0.4547768,0.06520462
1103,210327207,-167.0575562,-73.80446625,30.69678688,-0.33315545,-0.73840487,-0.26328182
1104,210343874,-166.7370911,-73.79639435,30.23283958,-0.561653,-0.48236477,-0.27703285
1105,210360541,-166.4311523,-73.80831146,29.82379532,-0.5096668,-0.030787345,-0.1473341
1106,210377208,-166.1509857,-73.82398224,29.47693253,-0.33068737,0.2703807,-0.063144684
1107,210393875,-165.839798,-73.83764648,29.155756,-0.28502104,0.26560593,-0.044769287
1108,210410542,-165.4488678,-73.84983826,28.8178215,-0.07156712,0.11640633,0.16078281
1109,210427209,-165.0512085,-73.85845184,28.40195465,0.13316992,0.12183256,0.28619862
1110,210443876,-164.7454071,-73.86330414,27.96931076,0.040337943,0.51975155,-0.024932861
1111,210460543,-164.608551,-73.86743164,27.68666458,-0.25394183,0.90498483,-0.35093307
1112,210477210,-164.6353912,-73.86844635,27.62272453,-0.5807971,1.2369887,-0.31109238
1113,210493877,-164.7221375,-73.87854767,27.71991539,-0.6103452,1.0294853,0.064787865
1114,210510544,-164.8258057,-73.8911972,27.9175148,-0.45083207,0.7386415,0.26784992
1115,210527211,-164.9123535,-73.91161346,28.13487244,-0.21904035,0.32551366,0.06984615
1116,210543878,-164.9871368,-73.93933868,28.32518768,-0.08467984,0.10198628,-0.19872665
1117,210560545,-165.1003418,-73.96187592,28.54342079,-0.01184574,-0.055499386,-0.22513962
1118,210577212,-165.2838287,-73.97544861,28.82476425,0.035774533,-0.15599819,-0.023568153
1119,210593879,-165.5110626,-73.98418427,29.13574028,0.13711129,-0.3360068,0.07242298
1120,210610546,-165.7277832,-73.97942352,29.41557884,0.19870341,-0.45431432,0.043445587
1121,210627213,-165.849884,-73.96360016,29.60708809,0.27792025,-0.5068142,-0.004226685
1122,210643880,-165.8617706,-73.95055389,29.66263771,0.32809624,-0.56780136,-0.03210354
1123,210660547,-165.8366852,-73.94576263,29.61113739,0.2673966,-0.5160104,-0.18451214
1124,210677214,-165.8185272,-73.95072174,29.52688026,0.12827922,-0.2805338,-0.28321362
1125,210693881,-165.8108063,-73.95858765,29.45890617,0.05037669,-0.032082267,-0.078308105
1126,210710548,-165.7585907,-73.96305084,29.37777519,0.04321064,0.030453194,0.20340538
1127,210727215,-165.6561279,-73.95805359,29.24166489,0.080047034,-0.010477616,0.09719849
1128,210743882,-165.5654907,-73.94303131,29.10317421,-0.04597768,0.098493665,-0.13611412
1129,210760549,-165.5081024,-73.92984009,29.00638199,-0.14056037,0.26565096,-0.18107605
1130,210777216,-165.4497375,-73.92506409,28.94379807,-0.15567766,0.2625896,-0.033732414
1131,210793883,-165.4057617,-73.92783356,28.91658211,-0.09636118,0.15943737,0.13455963
1132,210810550,-165.3903961,-73.93297577,28.9109993,-0.055325046,0.109051526,0.10042381
1133,210827217,-165.3857574,-73.93669891,28.91273117,-0.08400203,-0.05321933,-0.018507004
1134,210843884,-165.3835449,-73.93390656,28.9072113,-0.131903,-0.23525755,-0.021030426
1135,210860551,-165.377182,-73.93125916,28.89600945,-0.11056538,-0.31593367,0.054401398
1136,210877218,-165.3452759,-73.9325943,28.86095428,-0.055545203,-0.3557659,0.09528923
1137,210893885,-165.2899628,-73.93751526,28.77265358,-0.001567832,-0.26410225,-0.023427963
1138,210910552,-165.223938,-73.943367,28.66038513,0.02661067,-0.058627225,-0.14637184
1139,210927219,-165.1287537,-73.95165253,28.51917839,0.018663164,7.61E-04,-0.046229362
1140,210943886,-165.0011902,-73.96144104,28.35331917,0.024540326,-0.018610919,-0.02772808
1141,210960553,-164.868454,-73.97310638,28.17639923,-0.03098046,0.02171853,-0.11432552
1142,210977220,-164.7442932,-73.98985291,28.02398872,-0.042527195,0.19099092,-0.1775465
1143,210993887,-164.6111603,-74.00629425,27.89381027,0.08893402,0.24406576,-0.06728935
1144,211010554,-164.4611206,-74.00748444,27.74669456,0.2463548,0.24139825,0.18545341
1145,211027221,-164.3282318,-73.98968506,27.59202957,0.17223863,0.2338026,0.04126644
1146,211043888,-164.2796631,-73.95954895,27.52212143,-0.08693369,0.4010282,-0.2346487
1147,211060555,-164.2806396,-73.93894196,27.56023407,-0.12900469,0.37800857,-0.29658985
1148,211077222,-164.2632599,-73.93859863,27.61729813,0.0777002,0.041769095,-0.083660126
1149,211093889,-164.2326508,-73.9475174,27.60785103,0.14447224,-0.34829822,0.20115566
1150,211110556,-164.2054749,-73.95341492,27.55892372,0.12872134,-0.3628515,0.1738615
1151,211127223,-164.169632,-73.94043732,27.49673271,0.042838044,-0.27001035,-0.120970726
1152,211143890,-164.1092072,-73.92127991,27.3966732,-0.051300805,-0.10515323,-0.22438812
1153,211160557,-164.0049896,-73.91503906,27.26868629,-0.09582811,0.07446032,-0.13834953
1154,211177224,-163.861557,-73.93455505,27.12735558,-0.08762702,-0.07485918,-0.05679989
1155,211193891,-163.7071075,-73.97138977,26.97689819,0.03339306,-0.3373688,0.06447983
1156,211210558,-163.5760803,-74.00327301,26.82397842,0.10074422,-0.51892436,-0.017518997
1157,211227225,-163.4877625,-74.02384949,26.64569473,-0.012405584,-0.2853076,-0.07354832
1158,211243892,-163.364975,-74.04756165,26.41821671,-0.13363811,0.17678645,-0.13684559
1159,211260559,-163.2151489,-74.0869751,26.1997776,-0.19343224,0.29264417,-0.13140106
1160,211277226,-163.0552368,-74.13824463,26.0293808,-0.037669197,0.3151534,-0.015080452
1161,211293893,-162.9051666,-74.19841003,25.90055656,0.07687717,0.08448589,0.10574436
1162,211310560,-162.7988892,-74.2493515,25.76730347,0.08988512,-0.23311552,0.096642494
1163,211327227,-162.7655029,-74.2717514,25.62710953,-0.05467032,-0.020802798,-0.10101414
1164,211343894,-162.8133545,-74.28286743,25.59519958,-0.41919437,0.41915587,-0.26787663
1165,211360561,-162.8471222,-74.31650543,25.6464653,-0.29596534,0.33365577,-0.14408398
1166,211377228,-162.7282867,-74.39521027,25.57396126,-0.007693484,-0.1652,0.20737171
1167,211393895,-162.4289856,-74.48454285,25.2566185,0.3195916,-0.57191235,-0.008257866
1168,211410562,-162.1792145,-74.54632568,24.86520195,0.26459274,-0.41234866,-0.20876122
1169,211427229,-162.195816,-74.56185913,24.71149063,0.14690255,0.07010707,-0.10710716
1170,211443896,-162.4213867,-74.5585556,24.80539894,-0.034082428,0.54492736,-0.04327774
1171,211460563,-162.6078491,-74.57504272,24.90472794,0.08912333,0.37853998,0.04354
1172,211477230,-162.6408844,-74.59114075,24.8583107,0.013833719,0.23342095,-0.23141384
1173,211493897,-162.7455444,-74.53986359,24.90101242,-0.3891821,0.7189265,-0.7364454
1174,211510564,-163.0560913,-74.45594788,25.20562553,-0.38852194,1.5362121,-0.85722256
1175,211527231,-163.6644135,-74.36164856,25.83521461,0.044398166,2.0301661,-0.6495762
1176,211543898,-164.163147,-74.28343964,26.44916534,0.89024526,1.0686752,-0.8272829
1177,211560565,-164.387619,-74.23009491,26.81044579,0.5627708,-0.4621203,-0.75339794
1178,211577232,-164.974823,-74.13749695,27.49890709,0.12566641,-0.3109653,1.3372059
1179,211593899,-165.8773651,-73.92350006,28.56268692,0.71432036,0.13292249,1.0332079
1180,211610566,-166.5033417,-73.69248199,29.29434395,1.2994938,-0.04165108,-0.50043106
1181,211627233,-166.6273193,-73.43041992,29.33366585,2.0199673,-1.1535473,-0.61798763
1182,211643900,-166.484436,-73.0921402,28.9735527,2.2716844,-1.2489588,-0.16588879
1183,211660567,-166.4969635,-72.74807739,28.65309906,1.3205824,-1.1906875,-0.14299965
1184,211677234,-166.8758698,-72.3950119,28.52383232,-0.037436128,-0.40906748,-0.106155396
1185,211693901,-167.450592,-72.05518341,28.66864395,-1.3172762,1.1153541,-0.09638977
1186,211710568,-167.7677612,-71.77774048,28.93675995,-1.3615743,0.82078135,0.4542799
1187,211727235,-167.6263885,-71.52728271,28.93462181,-0.75055605,-0.9074549,0.6016388
1188,211743902,-167.3737946,-71.23269653,28.70070457,-0.24505639,-1.919732,0.366436
1189,211760569,-167.3440857,-70.89899445,28.50032234,-0.16877626,-1.39129,0.2525139
1190,211777236,-167.3619385,-70.62807465,28.3637619,-0.43620247,0.22637281,0.17624187
1191,211793903,-167.0839081,-70.46427155,28.22392654,-0.4313496,0.5764703,0.43798065
1192,211810570,-166.4717407,-70.38339996,27.91066551,-0.40729243,-0.8655217,0.13326263
1193,211827237,-165.8892212,-70.33390045,27.43840027,-0.5470527,-1.7995604,0.3278637
1194,211843904,-165.2916718,-70.30210114,26.82117081,-0.7524665,-1.6041585,0.7398548
1195,211860571,-164.5145264,-70.29088593,26.03427696,-0.44721863,-0.7886148,0.5110636
1196,211877238,-163.7607727,-70.26599884,25.26490021,-0.0944963,-0.73124105,0.15899754
1197,211893905,-162.9298553,-70.26006317,24.40182495,-0.15677953,-0.17862575,0.10166645
1198,211910572,-162.0409088,-70.32382202,23.49522781,-0.5414584,-0.1383857,0.16461468
1199,211927239,-161.2496338,-70.39905548,22.65284538,-0.992061,-0.058703218,0.038599014
1200,211943906,-160.537384,-70.47529602,21.90517998,-1.3183644,0.7066344,0.008291245
1201,211960573,-159.7249908,-70.5917511,21.19372177,-0.8068393,1.0044158,0.3457365
1202,211977240,-158.8453674,-70.746315,20.4347744,-0.26980016,0.33692142,0.21923542
1203,211993907,-157.9947357,-70.88461304,19.60003471,-0.113216914,-0.3113541,-0.20239353
1204,212010574,-157.2236328,-71.02675629,18.82419586,-0.06965993,-0.44181907,-0.20353317
1205,212027241,-156.5068512,-71.17197418,18.12207794,0.2421793,-0.052654624,-0.09056854
1206,212043908,-155.8313599,-71.29245758,17.43217659,0.36425248,-0.33871356,-0.014021874
1207,212060575,-155.2324829,-71.37164307,16.698246,0.15607189,-0.04463241,-0.2714634
1208,212077242,-154.6973877,-71.44412994,15.96874332,-0.03350051,0.6188691,-0.21843433
1209,212093909,-154.2388611,-71.50866699,15.36346245,-0.23008317,0.8398477,-0.15879345
1210,212110576,-153.7663116,-71.58412933,14.79256248,-0.57233125,0.56662947,-0.121582985
1211,212127243,-153.2889404,-71.67240906,14.30450153,-0.57574075,0.48611453,-0.07274914
1212,212143910,-152.7879333,-71.75783539,13.86714458,-0.24138711,0.34876895,0.13366699
1213,212160577,-152.3368835,-71.82935333,13.54810047,0.12243341,0.41629735,0.07850838
1214,212177244,-151.8159485,-71.90132904,13.19564342,-0.044421077,-0.43660754,-0.09428406
1215,212193911,-151.2772217,-71.99938965,12.744277,-0.38484052,-0.59791785,-0.1787939
1216,212210578,-150.7122345,-72.1446228,12.22313023,-0.5647804,-0.27198285,-0.03685093
1217,212227245,-149.9256134,-72.33407593,11.4925909,-0.4531353,0.40591964,0.27975464
1218,212243912,-149.3508148,-72.46243286,10.99544621,0.30609512,-0.06956796,-0.16573715
1219,212260579,-148.9724121,-72.52949524,10.58692265,0.18507667,-0.38766167,0.22635174
1220,212277246,-148.5441589,-72.61815643,10.10036659,0.03592166,-0.3181584,-0.011390686
1221,212293913,-148.103714,-72.72514343,9.515557289,0.24068412,-0.27110457,-0.5199213
1222,212310580,-147.665329,-72.84065247,8.870387077,-0.09475709,0.003499989,-0.104660034
1223,212327247,-147.2235565,-72.99339294,8.222893715,-0.19145627,0.68333566,-0.15548801
1224,212343914,-146.9021301,-73.16577148,7.68743372,-0.33622417,1.013094,-0.14517498
1225,212360581,-146.8319092,-73.28510284,7.479873657,-0.08660048,1.4784597,0.046424866
1226,212377248,-146.6683044,-73.36579895,7.414569378,0.3188433,1.1722158,0.40598202
1227,212393915,-146.427002,-73.44523621,7.374938011,0.5121259,-0.083762266,0.00798893
1228,212410582,-146.1378632,-73.53923798,7.168009758,0.43897954,-1.0227494,-0.22619247
1229,212427249,-145.9932861,-73.62316895,6.913455963,0.4837549,-0.67436796,-0.28713608
1230,212443916,-145.910553,-73.7075882,6.63574934,-0.04061476,-0.12863015,0.15053272
1231,212460583,-145.6790619,-73.81597137,6.251378536,-0.40392625,0.16658443,0.21904945
1232,212477250,-145.4353027,-73.92463684,5.851381779,-0.3811333,0.29811242,-0.047266006
1233,212493917,-145.3171387,-74.00956726,5.5291605,-0.13409403,0.5103886,-0.18701935
1234,212510584,-145.2652893,-74.07658386,5.285000801,-0.10145639,0.37862682,0.06851387
1235,212527251,-145.1931915,-74.14699554,5.103868961,-0.007231538,0.20690829,0.02156353
1236,212543918,-145.08078,-74.21588135,5.014910698,0.19369453,0.24656038,-0.13947487
1237,212560585,-144.9254761,-74.28559113,5.035083294,0.49625275,0.25298145,-0.3223791
1238,212577252,-144.7695007,-74.34912872,5.143964291,0.583261,0.20414813,-0.22495747
1239,212593919,-144.6385956,-74.39001465,5.319815636,0.77100366,0.50374347,-0.1621418
1240,212610586,-144.5337982,-74.39813995,5.513125896,0.8350786,0.5729361,-0.2447195
1241,212627253,-144.4823761,-74.37393188,5.676007271,0.693172,0.2792952,-0.16835213
1242,212643920,-144.4798737,-74.33157349,5.774228573,0.46477032,-0.061238863,-0.09428406
1243,212660587,-144.5704651,-74.28050232,5.871725559,0.018603766,-0.0848187,-0.17527771
1244,212677254,-144.7167969,-74.23374939,6.0435853,-0.24261387,0.14923066,-0.15807724
1245,212693921,-144.8506775,-74.18849182,6.276360512,-0.24327904,0.3830518,-0.069003105
1246,212710588,-144.941925,-74.14118195,6.555550575,-0.118833795,0.18798535,0.09824753
1247,212727255,-144.9694519,-74.10027313,6.794953346,-0.006913312,-0.31827632,0.13990021
1248,212743922,-145.0269318,-74.06971741,7.012940407,-0.011561487,-0.44717488,-0.06909561
1249,212760589,-145.1187134,-74.04317474,7.208517075,0.18509108,-0.16807258,-0.24078369
1250,212777256,-145.29245,-74.01035309,7.390824795,0.11108097,-0.008965999,-0.08693695
1251,212793923,-145.4897614,-73.97761536,7.564083576,0.00321976,0.23819977,0.06308842
1252,212810590,-145.721756,-73.93917084,7.788173676,0.018340187,0.39202094,0.08278847
1253,212827257,-145.9659729,-73.89585876,8.053013802,0.073111705,0.39902997,0.089782715
1254,212843924,-146.1982727,-73.84695435,8.318796158,0.028338425,0.18639527,0.0284338
1255,212860591,-146.4287262,-73.80086517,8.564353943,-0.07160668,-0.06085945,-0.009402275
1256,212877258,-146.6908722,-73.75566864,8.802183151,-0.19731176,-0.027865583,-0.0717144
1257,212893925,-146.9755249,-73.71786499,9.031111717,-0.44839013,-0.099600725,0.025846481
1258,212910592,-147.2740936,-73.68332672,9.290556908,-0.40519148,0.13307537,-0.089240074
1259,212927259,-147.5148621,-73.65849304,9.555549622,-0.19325997,0.06840681,-0.029970169
1260,212943926,-147.7250671,-73.63795471,9.798575401,0.049650498,-0.08433077,0.1083374
1261,212960593,-147.9672394,-73.6193924,10.03748608,0.19914132,-0.0508521,0.120521545
1262,212977260,-148.1832581,-73.60910797,10.25801373,0.13490634,-0.0810002,0.002134323
1263,212993927,-148.3887787,-73.60391998,10.44406509,0.15087515,-0.13120478,-0.04355812
1264,213010594,-148.5959778,-73.60109711,10.59907246,0.001957191,-0.12013888,-0.005040169
1265,213027261,-148.797287,-73.60362244,10.77083874,-0.23999636,-0.13311806,0.010777473
1266,213043928,-148.930954,-73.61735535,10.90985203,-0.36326036,-0.35434368,-0.045386314
1267,213060595,-149.0338287,-73.64125061,11.01577377,-0.31607935,-0.4622525,-0.031757355
1268,213077262,-149.1337585,-73.66963196,11.08464909,-0.16641043,-0.38166258,-0.09888744
1269,213093929,-149.2487335,-73.70053101,11.14047813,0.04397366,-0.03552247,-0.092843056
1270,213110596,-149.3339844,-73.73577118,11.16330147,0.057577047,-0.07498882,0.062084198
1271,213127263,-149.4028625,-73.7775116,11.18585587,-0.15756316,-0.22962928,0.011407852
1272,213143930,-149.4087982,-73.83267212,11.19090176,-0.2576473,-0.33555406,0.06999111
1273,213160597,-149.3748932,-73.89318085,11.18191051,-0.09415243,-0.27451247,-0.002844811
1274,213177264,-149.3336182,-73.95033264,11.14979172,0.08673627,-0.064071774,-0.106170654
1275,213193931,-149.2659302,-74.01332092,11.07243443,-0.01910991,-0.11663822,-0.066636086
1276,213210598,-149.191925,-74.08298492,10.99610806,-0.19678277,-0.11445808,-0.05171299
1277,213227265,-149.0871887,-74.15512848,10.95236588,-0.09012864,-0.003640132,-0.041152954
1278,213243932,-148.9337921,-74.23416901,10.89783478,0.07335734,-0.046189845,-0.034918785
1279,213260599,-148.8430023,-74.30387115,10.86868191,0.2643865,0.2829407,-0.07175827
1280,213277266,-148.8218079,-74.35325623,10.8986311,0.35937777,0.5518461,-0.13521385
1281,213293933,-148.8140259,-74.39620972,10.92235374,0.21173002,0.11968515,0.011207581
1282,213310600,-148.8003998,-74.45232391,10.90399361,-0.25315118,-0.39942044,0.0718441
1283,213327267,-148.7603607,-74.52307129,10.86653042,-0.44866997,-0.549614,-0.037350655
1284,213343934,-148.65802,-74.60316467,10.77181053,-0.31725016,-0.51317805,-0.10897732
1285,213360601,-148.5696259,-74.68536377,10.61600018,0.04150038,-0.124940164,-0.07921696
1286,213377268,-148.541275,-74.75636292,10.45700073,0.39206827,0.34738004,-0.014370918
1287,213393935,-148.5457306,-74.81387329,10.27969646,0.47765255,0.2523973,-0.024878502
1288,213410602,-148.5878296,-74.86322784,10.06923771,0.23458305,-0.12369297,-0.00592804
1289,213427269,-148.6659088,-74.9181366,9.877231598,-0.098814465,-0.18559924,-0.07688427
1290,213443936,-148.7141113,-74.97623444,9.720234871,-0.13500825,-0.062141743,-0.063780785
1291,213460603,-148.6911011,-75.03916931,9.571112633,-0.021298382,-0.002771784,0.080877304
1292,213477270,-148.6166534,-75.1115799,9.39008522,-0.15019768,-0.12406489,0.17612934
1293,213493937,-148.4725189,-75.20544434,9.147105217,-0.3278498,-0.4780655,-0.044462204
1294,213510604,-148.3674316,-75.30962372,8.900671005,-0.2828399,-0.26852858,-0.37209892
1295,213527271,-148.2472839,-75.40207672,8.66999054,-0.07371038,0.26584306,-0.14687347
1296,213543938,-148.1368408,-75.48067474,8.515223503,0.33653295,0.58488256,-0.01019001
1297,213560605,-148.045578,-75.55322266,8.443941116,0.10386686,0.5223452,0.27738285
1298,213577272,-147.9177094,-75.63258362,8.428046227,-0.09413941,0.083849095,0.083304405
1299,213593939,-147.7066803,-75.70654297,8.385121346,0.21746413,-0.15608881,-0.21890068
1300,213610606,-147.5652618,-75.75417328,8.33225441,0.5962447,-0.1237684,-0.043230057
1301,213627273,-147.4389801,-75.78036499,8.194478035,0.7132046,0.045307975,0.07358265
1302,213643940,-147.2621307,-75.8140564,7.929015636,0.03282729,-0.4594338,-0.040151596
1303,213660607,-147.0335236,-75.86309052,7.597378254,-0.2777578,-0.9076359,-0.2886114
1304,213677274,-146.7192535,-75.92073822,7.174973965,-0.18111448,-0.8191048,-0.09866524
1305,213693941,-146.3775635,-75.97784424,6.663974762,0.10095141,-0.32474053,0.16377926
1306,213710608,-145.9965668,-76.03539276,6.078259468,0.11424993,0.19965954,0.3040371
1307,213727275,-145.5909119,-76.08927917,5.519732952,-0.080262385,0.40133864,0.2245264
1308,213743942,-145.1375275,-76.15476227,5.044286728,-0.6120004,0.1634282,-0.08846569
1309,213760609,-144.6344452,-76.24625397,4.668272495,-0.5907682,0.115674436,-0.26626205
1310,213777276,-144.0303955,-76.3647995,4.280539513,-0.34092614,6.20E-04,0.09181595
1311,213793943,-143.3334808,-76.49034882,3.788064003,-0.09470713,-0.406423,0.19921875
1312,213810610,-142.7352905,-76.59963989,3.283853292,0.059333246,-0.32664752,-0.06921959
1313,213827277,-142.3689728,-76.67581177,2.921476841,0.45470917,0.5961545,-0.24747181
1314,213843944,-142.1470795,-76.71590424,2.715798616,0.7694366,1.0288566,0.005197525
1315,213860611,-141.8528748,-76.77271271,2.471782446,0.14959487,0.30609396,0.16907406
1316,213877278,-141.5500946,-76.86152649,2.249137878,-0.46259207,0.10079943,-0.244874
1317,213893945,-141.2256927,-76.96334076,2.134130001,-0.5985583,0.14976262,-0.004970551
1318,213910612,-140.9364624,-77.04334259,2.102532148,-0.076428525,0.12387177,-0.03805542
1319,213927279,-140.9549103,-77.06295776,2.280440569,0.5175966,1.0746619,-0.05711174
1320,213943946,-141.4070892,-76.99845123,2.864060879,1.3049554,2.3050513,-0.046842575
1321,213960613,-141.9758148,-76.90176392,3.624638081,0.9686237,1.0565596,0.30737686
1322,213977280,-142.2090302,-76.89176178,4.047846794,-0.5551892,-0.9459842,-0.108400345
1323,213993947,-142.2324371,-76.97436523,4.27908802,-0.89149123,-1.0362855,-1.198453
1324,214010614,-142.2227936,-77.08728027,4.538455486,-0.3748629,-0.66122276,-0.26557922
1325,214027281,-142.4534302,-77.13228607,4.972397804,0.45437506,-0.06577584,0.6088476
1326,214043948,-143.0331726,-77.05773163,5.592029095,1.1310562,1.2700074,0.6927204
1327,214060615,-143.9035339,-76.90670776,6.453303337,1.0270637,1.3434308,0.48337173
1328,214077282,-144.6079102,-76.76774597,7.146949291,0.14424124,-0.41650745,-0.068899155
1329,214093949,-145.076355,-76.70326233,7.532883167,-0.33640566,-0.4342185,-1.2603807
1330,214110616,-145.5065765,-76.70191956,7.975244045,-0.19699018,0.26738107,-0.89154434
1331,214127283,-145.9728851,-76.68988037,8.602363586,0.6486567,0.1965308,0.4231491
1332,214143950,-146.5138397,-76.57328033,9.271351814,1.4531897,0.039673213,0.71869755
1333,214160617,-147.5326691,-76.30851746,10.20110035,1.8585985,0.99782455,-0.093421936
1334,214177284,-148.735611,-75.96154785,11.21474361,1.804229,1.0468696,-0.2886505
1335,214193951,-149.7487946,-75.6831665,11.97105503,-0.39379558,0.414256,-0.15333271
1336,214210618,-150.6095734,-75.56142426,12.72069073,-1.9742705,1.1383973,-1.2227783
1337,214227285,-151.3291321,-75.54078674,13.68579674,-2.0228405,0.69526094,-0.71925163
1338,214243952,-151.9810028,-75.49866486,14.77535057,-0.8568699,-0.07912247,0.48138237
1339,214260619,-152.7691803,-75.32757568,15.89849663,0.64689577,-0.19628416,0.8001785
1340,214277286,-153.7663879,-75.0425415,16.89722252,1.0847653,0.06636848,0.31276417
1341,214293953,-154.979126,-74.7786026,17.86649513,-0.15570365,1.0538416,-0.18221092
1342,214310620,-156.0231018,-74.66919708,18.88759804,-1.4586362,1.0152482,-0.6147604
1343,214327287,-156.7530518,-74.63648224,20.00780106,-0.7287325,0.098052226,-0.37380695
1344,214343954,-157.2922211,-74.5617218,21.10278893,0.29486373,-1.263568,0.3861723
1345,214360621,-157.8251038,-74.36800385,22.04264641,0.83107334,-1.7491685,0.19853687
1346,214377288,-158.6213531,-74.07321167,22.90638733,1.3530215,-1.1288553,0.16943264
1347,214393955,-159.6312714,-73.69678497,23.64649963,1.3969781,0.42814028,0.038093567
1348,214410622,-160.6145477,-73.38097382,24.31693459,-0.110264026,1.1851196,-0.06896114
1349,214427289,-161.5117645,-73.17324066,25.15472221,-1.243966,1.1767081,-0.47069454
1350,214443956,-162.1713562,-73.07682037,26.0083828,-1.8021919,0.038779274,-0.5717468
1351,214460623,-162.4844971,-73.04608154,26.66487503,-0.88675696,-1.3261514,0.1413536
1352,214477290,-162.8262482,-72.95579529,27.18675804,0.13828817,-1.9076858,0.6208706
1353,214493957,-163.3955231,-72.78796387,27.5961132,0.28408238,-0.5180617,0.2808962
1354,214510624,-164.0416565,-72.66601563,28.02853966,-0.13779171,0.040707298,0.30489826
1355,214527291,-164.5819092,-72.64484406,28.46966553,-0.786679,-0.4636659,0.07925129
1356,214543958,-164.8702698,-72.71137238,28.76177597,-1.3120269,-1.3617204,0.05630207
1357,214560625,-165.0438995,-72.78845215,29.00093651,-1.1454426,-1.3145596,0.43166542
1358,214577292,-165.2462311,-72.79933929,29.26148415,-0.12838958,-0.84475344,0.53947735
1359,214593959,-165.5888519,-72.76118469,29.49037743,0.7885632,0.04425903,0.38390064
1360,214610626,-165.8439789,-72.80969238,29.5705471,0.27645713,0.6914504,-0.2391901
1361,214627293,-166.1159973,-72.99705505,29.67272568,-0.99086076,0.4354036,-0.5457344
1362,214643960,-166.4516602,-73.22007751,29.97809982,-0.8505329,0.09088148,0.17649841
1363,214660627,-166.5692291,-73.33506012,30.25510597,0.21671961,-0.5910334,0.45158482
1364,214677294,-166.7242584,-73.32172394,30.52639771,1.3354735,-0.20420356,0.59233856
1365,214693961,-166.73703,-73.26937866,30.52854538,1.929055,0.6243127,-0.2294321
1366,214710628,-166.6107941,-73.34505463,30.2899456,0.27884084,0.61713433,-0.83067894
1367,214727295,-166.6735535,-73.50149536,30.3531456,-0.8072009,-0.10188458,0.43440056
1368,214743962,-166.6622162,-73.63434601,30.56618309,-1.2040333,-0.92876595,0.3945589
1369,214760629,-166.5799866,-73.73548889,30.82779312,-1.0840316,-1.5830746,0.11682892
1370,214777296,-166.1941833,-73.78580475,30.62883186,-0.2590872,-2.0870812,0.8087368
1371,214793963,-165.6248474,-73.74071503,29.98955536,0.45955026,-1.6282887,0.73768425
1372,214810630,-165.184021,-73.6872406,29.42118645,0.2956897,-0.3217565,4.05E-04
1373,214827297,-164.6594086,-73.71109009,28.95766258,0.59342486,-0.08004122,0.09192276
1374,214843964,-163.7862549,-73.82119751,28.16456795,0.77313876,-0.30822504,-0.15770245
1375,214860631,-162.7156067,-73.97705841,27.1146965,0.7258516,-0.14191441,-0.46074677
1376,214877298,-161.8888092,-74.07043457,26.24733734,0.44864157,-0.26119086,-0.57378864
1377,214893965,-161.3287354,-74.08469391,25.61045456,-0.07069905,0.3099489,-0.6261606
1378,214910632,-160.7819061,-74.09398651,25.02292633,-0.479553,0.9323141,-0.46013546
1379,214927299,-160.2805634,-74.15839386,24.52846336,-0.67796004,0.94283193,-0.003863335
1380,214943966,-159.9448547,-74.25611115,24.19402885,-0.82194704,0.874837,0.0725317
1381,214960633,-159.7529449,-74.36997986,24.03236198,-1.0746735,1.1916815,0.018346786
1382,214977300,-159.6257782,-74.51889801,24.03090668,-1.0905745,1.1622206,0.13581944
1383,214993967,-159.5806732,-74.68328857,24.16845131,-0.7188527,0.58398026,-0.034798622
1384,215010634,-159.709259,-74.82686615,24.48981857,-0.5478799,0.3345183,-0.45388222
1385,215027301,-159.9054108,-74.9745636,24.89033508,-0.26755467,0.26184633,-0.13159561
1386,215043968,-160.075592,-75.12957001,25.28421211,0.17917408,0.15205732,0.11371803
1387,215060635,-160.2545776,-75.27340698,25.63033676,0.34957567,-0.046806294,-0.003545761
