sep=,
DeviceTag:,tibiaLeft,,,,,,,,,,,,,,,,,
FirmwareVersion:,1.6.0,,,,,,,,,,,,,,,,,
AppVersion:,1.1,,,,,,,,,,,,,,,,,
SyncStatus:,Synced,,,,,,,,,,,,,,,,,
OutputRate:,60Hz,,,,,,,,,,,,,,,,,
FilterProfile:,General,,,,,,,,,,,,,,,,,
Measurement Mode:,Sensor fusion Mode - Complete (Euler),,,,,,,,,,,,,,,,,
StartTime:,2021-03-17 16:46:03.544 +0800,,,,,,,,,,,,,,,,,
© Xsens Technologies B. V. 2005-2021,,,,,,,,,,,,,,,,,,,

PacketCounter,SampleTimeFine,Euler_X,Euler_Y,Euler_Z,FreeAcc_X,FreeAcc_Y,FreeAcc_Z
1, 191960173, -168.74032592773438, -80.91876983642578, 34.56534957885742, -0.16278477, 0.10561982, -0.018074036
2, 191976840, -168.72879028320312, -80.91939544677734, 34.55561828613281, -0.16094895, 0.12491882, -0.020165443
3, 191993507, -168.7270050048828, -80.91874694824219, 34.55774688720703, -0.13888654, 0.12564446, -0.027033806
4, 192010174, -168.73367309570312, -80.91770935058594, 34.57279586791992, -0.12210753, 0.11401418, -0.017333984
5, 192026841, -168.73992919921875, -80.91680145263672, 34.58462142944336, -0.1029594, 0.09614018, -0.013852119
6, 192043508, -168.73873901367188, -80.91563415527344, 34.587650299072266, -0.085471965, 0.05593367, -0.030175209
7, 192060175, -168.72763061523438, -80.91459655761719, 34.578819274902344, -0.06432927, 0.038741164, -0.022942543
8, 192076842, -168.70895385742188, -80.91200256347656, 34.55617904663086, -0.09007025, 0.039980434, -0.0062179565
9, 192093509, -168.6875762939453, -80.90925598144531, 34.53167724609375, -0.11718075, 0.08804846, -0.018295288
10, 192110176, -168.67495727539062, -80.90655517578125, 34.519344329833984, -0.14031456, 0.09250732, -0.008465767
11, 192126843, -168.67227172851562, -80.90497589111328, 34.520206451416016, -0.16875413, 0.06714821, -0.02577877
12, 192143510, -168.66006469726562, -80.90496063232422, 34.5127067565918, -0.15443684, 0.049995378, -0.03437996
13, 192160177, -168.64488220214844, -80.9054946899414, 34.50103759765625, -0.13452026, 0.08691715, -0.022068024
14, 192176844, -168.62745666503906, -80.90379333496094, 34.4872932434082, -0.1295109, 0.11587683, -0.03967285
15, 192193511, -168.60940551757812, -80.90228271484375, 34.47220230102539, -0.1462884, 0.11244434, -0.0170784
16, 192210178, -168.61276245117188, -80.90189361572266, 34.47834777832031, -0.13520953, 0.11020105, -0.016304016
17, 192226845, -168.63575744628906, -80.90137481689453, 34.506500244140625, -0.14868858, 0.11415388, -0.03507805
18, 192243512, -168.65357971191406, -80.90277099609375, 34.53643798828125, -0.12608014, 0.050504316, -0.025997162
19, 192260179, -168.6586151123047, -80.90411376953125, 34.54951095581055, -0.102233596, 0.043351345, -0.014811516
20, 192276846, -168.6424560546875, -80.90206146240234, 34.5369758605957, -0.08945983, 0.027752599, -0.01914215
21, 192293513, -168.61846923828125, -80.9002914428711, 34.51129150390625, -0.086462915, 0.042829774, -0.017703056
22, 192310180, -168.5926971435547, -80.9002914428711, 34.482025146484375, -0.113040894, 0.07925032, -0.010224342
23, 192326847, -168.57850646972656, -80.8996810913086, 34.46754455566406, -0.1323595, 0.09791544, -0.0323143
24, 192343514, -168.5599365234375, -80.90070343017578, 34.453285217285156, -0.13238935, 0.087658316, -0.021077156
25, 192360181, -168.5366668701172, -80.8991470336914, 34.4366340637207, -0.109595165, 0.07437394, -0.012308121
26, 192376848, -168.4983673095703, -80.89834594726562, 34.4037971496582, -0.08963887, 0.060671363, -0.01636219
27, 192393515, -168.46621704101562, -80.89614868164062, 34.36954116821289, -0.10313659, 0.07316417, -0.0244627
28, 192410182, -168.44790649414062, -80.89485168457031, 34.3468132019043, -0.12506332, 0.10421303, -0.0065870285
29, 192426849, -168.4385528564453, -80.89199829101562, 34.335845947265625, -0.14564322, 0.10470967, -0.018838882
30, 192443516, -168.4337921142578, -80.8917007446289, 34.3348388671875, -0.1446953, 0.10586993, -0.048030853
31, 192460183, -168.42666625976562, -80.89134979248047, 34.33331298828125, -0.16743372, 0.060334083, -0.03422737
32, 192476850, -168.4226837158203, -80.8924789428711, 34.33381652832031, -0.17654662, 0.07170016, -0.030133247
33, 192493517, -168.42356872558594, -80.89263153076172, 34.34335708618164, -0.13248406, 0.11300871, -2.0503998E-4
34, 192510184, -168.42152404785156, -80.89273834228516, 34.35603713989258, -0.10246672, 0.08905974, -8.802414E-4
35, 192526851, -168.39903259277344, -80.8914794921875, 34.34524154663086, -0.08776169, 0.033574328, -0.023098946
36, 192543518, -168.3778533935547, -80.89140319824219, 34.330810546875, -0.08571426, 0.02403513, -0.021603584
37, 192560185, -168.3520965576172, -80.89199829101562, 34.308982849121094, -0.058425896, 0.0075346217, -0.013401985
38, 192576852, -168.32443237304688, -80.89066314697266, 34.265899658203125, -0.037631534, 0.023935108, -0.014054298
39, 192593519, -168.29171752929688, -80.88803100585938, 34.22355651855469, -0.080149285, 0.046608374, -0.023088455
40, 192610186, -168.26023864746094, -80.88468933105469, 34.17204284667969, -0.14049226, 0.11301575, -0.012374878
41, 192626853, -168.24085998535156, -80.88327026367188, 34.14168167114258, -0.16784325, 0.119080104, -0.031437874
42, 192643520, -168.2283477783203, -80.8817367553711, 34.1252326965332, -0.15546907, 0.10693832, -0.024119377
43, 192660187, -168.2178955078125, -80.87872314453125, 34.10986328125, -0.1306317, 0.09911324, -0.02527523
44, 192676854, -168.20657348632812, -80.87665557861328, 34.089637756347656, -0.12805638, 0.09830927, -0.018343925
45, 192693521, -168.2073974609375, -80.87428283691406, 34.09370040893555, -0.15532088, 0.089786716, -0.01999569
46, 192710188, -168.21669006347656, -80.87432861328125, 34.10353469848633, -0.1240712, 0.055583537, -0.028660774
47, 192726855, -168.21316528320312, -80.87364196777344, 34.11775207519531, -0.083241194, 0.016525207, -0.028113365
48, 192743522, -168.1979522705078, -80.87340545654297, 34.10952377319336, -0.063828535, 0.0019271288, -0.009302139
49, 192760189, -168.16612243652344, -80.87290954589844, 34.07899856567383, -0.06780048, 0.014561757, -0.004594803
50, 192776856, -168.12754821777344, -80.87299346923828, 34.04182815551758, -0.06656288, 0.030825678, -0.033578873
51, 192793523, -168.08743286132812, -80.87284088134766, 34.00080490112305, -0.064817525, 0.03847608, -0.010890007
52, 192810190, -168.0417938232422, -80.87213134765625, 33.95198440551758, -0.08453813, 0.07401006, -0.02306652
53, 192826857, -167.99697875976562, -80.87086486816406, 33.90285110473633, -0.12200528, 0.08987635, -0.017745972
54, 192843524, -167.9528350830078, -80.86851501464844, 33.86076354980469, -0.1264129, 0.117121235, -0.022880554
55, 192860191, -167.92893981933594, -80.86627960205078, 33.841793060302734, -0.12830745, 0.11350167, -0.02274704
56, 192876858, -167.9107666015625, -80.86438751220703, 33.826473236083984, -0.13266924, 0.10453511, -0.015156746
57, 192893525, -167.89430236816406, -80.86274719238281, 33.81100845336914, -0.13389286, 0.10375762, -0.00395298
58, 192910192, -167.88243103027344, -80.86028289794922, 33.804874420166016, -0.13020451, 0.10349075, -0.022274017
59, 192926859, -167.87013244628906, -80.85980224609375, 33.80241012573242, -0.10011738, 0.08055742, -0.022147179
60, 192943526, -167.86326599121094, -80.85887908935547, 33.803192138671875, -0.09889594, 0.041936506, -0.023148537
61, 192960193, -167.8526611328125, -80.85678100585938, 33.79850387573242, -0.089861035, 0.033979446, -0.0073242188
62, 192976860, -167.8294677734375, -80.85649871826172, 33.78294372558594, -0.07023034, 0.032484703, -0.017507553
63, 192993527, -167.79647827148438, -80.85389709472656, 33.753868103027344, -0.05166133, 0.0077408124, -0.036471367
64, 193010194, -167.76026916503906, -80.85227966308594, 33.713783264160156, -0.07210282, 0.050454587, -0.02045536
65, 193026861, -167.7312774658203, -80.85110473632812, 33.677188873291016, -0.10769262, 0.08280406, -0.025870323
66, 193043528, -167.7173309326172, -80.8501968383789, 33.66354751586914, -0.12673101, 0.09406755, -0.017764091
67, 193060195, -167.70053100585938, -80.84820556640625, 33.650634765625, -0.14288932, 0.091938704, -0.021338463
68, 193076862, -167.6898651123047, -80.84599304199219, 33.64041519165039, -0.15706842, 0.092538945, -0.022506714
69, 193093529, -167.6825408935547, -80.8443603515625, 33.63875198364258, -0.1516042, 0.113752, -0.025485992
70, 193110196, -167.68702697753906, -80.84288024902344, 33.655120849609375, -0.12867138, 0.1298084, -0.0030345917
71, 193126863, -167.70501708984375, -80.84191131591797, 33.686729431152344, -0.10112034, 0.055028442, -0.013496399
72, 193143530, -167.717529296875, -80.84298706054688, 33.7093391418457, -0.09730748, 0.02519494, -0.04173374
73, 193160197, -167.71775817871094, -80.84445190429688, 33.719810485839844, -0.055885058, 0.029666092, -0.0363245
74, 193176864, -167.70042419433594, -80.84522247314453, 33.71285629272461, -0.045324236, 0.012146588, -0.028167725
75, 193193531, -167.65626525878906, -80.8447036743164, 33.67485809326172, -0.026125591, -0.006319829, -0.0041627884
76, 193210198, -167.61660766601562, -80.8445816040039, 33.63203048706055, -0.042431645, 6.4952864E-4, -0.0029726028
77, 193226865, -167.56797790527344, -80.8431396484375, 33.57619094848633, -0.07277269, 0.06832199, -6.017685E-4
78, 193243532, -167.52691650390625, -80.84154510498047, 33.532047271728516, -0.08663647, 0.093000054, -0.02956009
79, 193260199, -167.4835968017578, -80.83768463134766, 33.488948822021484, -0.122613564, 0.09561292, -0.024739265
80, 193276866, -167.4620819091797, -80.8328857421875, 33.46428680419922, -0.12220325, 0.086201124, -0.019442558
81, 193293533, -167.443603515625, -80.83063507080078, 33.44747543334961, -0.15342209, 0.08733389, -0.0020952225
82, 193310200, -167.42367553710938, -80.82672882080078, 33.43500900268555, -0.14034832, 0.07773792, -0.045025826
83, 193326867, -167.40472412109375, -80.8236083984375, 33.426151275634766, -0.116485395, 0.035011068, -0.03473091
84, 193343534, -167.3720245361328, -80.82093048095703, 33.400657653808594, -0.07594546, 0.029685427, -0.026125908
85, 193360201, -167.33595275878906, -80.81829833984375, 33.36579513549805, -0.08949129, 0.002965123, -0.023712158
86, 193376868, -167.31765747070312, -80.8187484741211, 33.344459533691406, -0.11084276, 0.03163457, -0.018257141
87, 193393535, -167.3048095703125, -80.81930541992188, 33.33525085449219, -0.10989635, 0.064515226, -0.0217247
88, 193410202, -167.29153442382812, -80.82044219970703, 33.33102798461914, -0.08800214, 0.07065211, -0.022621155
89, 193426869, -167.26258850097656, -80.82069396972656, 33.311397552490234, -0.059386667, 0.05190038, -0.031606674
90, 193443536, -167.2267303466797, -80.82059478759766, 33.28078842163086, -0.06919296, 0.07960135, -0.00916481
91, 193460203, -167.2066192626953, -80.81898498535156, 33.26443862915039, -0.08213218, 0.05772647, 0.0026817322
92, 193476870, -167.1952667236328, -80.81791687011719, 33.25542449951172, -0.08990345, 0.068067186, -0.010467529
93, 193493537, -167.18186950683594, -80.81566619873047, 33.24356460571289, -0.08495934, 0.0625016, -0.031345367
94, 193510204, -167.18194580078125, -80.81271362304688, 33.24422836303711, -0.11926769, 0.060446396, -0.027296066
95, 193526871, -167.185302734375, -80.8107681274414, 33.25187301635742, -0.12210999, 0.08467844, -0.011384964
96, 193543538, -167.1841278076172, -80.80982971191406, 33.262542724609375, -0.13357581, 0.07067726, -0.024585724
97, 193560205, -167.19325256347656, -80.81089782714844, 33.28603744506836, -0.09449692, 0.028735496, -0.026918411
98, 193576872, -167.1947784423828, -80.81134033203125, 33.29803466796875, -0.04808043, 0.03591641, -0.024540901
99, 193593539, -167.1914520263672, -80.81149291992188, 33.30295181274414, -0.052693907, 0.013047233, -0.017634392
100, 193610206, -167.16880798339844, -80.81074523925781, 33.284942626953125, -0.064561106, 0.01654443, -0.017412186
101, 193626873, -167.1453857421875, -80.81002044677734, 33.26613998413086, -0.04097255, 0.030992307, -0.015985489
102, 193643540, -167.1190643310547, -80.8092269897461, 33.2426643371582, -0.02600143, 0.020979485, 0.0035209656
103, 193660207, -167.07754516601562, -80.80659484863281, 33.199222564697266, -0.057600573, 0.045330215, -0.02350235
104, 193676874, -167.0440216064453, -80.80435943603516, 33.165225982666016, -0.092815764, 0.057791732, -0.033041
105, 193693541, -167.0155792236328, -80.80303192138672, 33.1370849609375, -0.113180704, 0.06495231, -0.021122932
106, 193710208, -166.99037170410156, -80.8014907836914, 33.10820007324219, -0.1185468, 0.09497189, -0.01021862
107, 193726875, -166.98338317871094, -80.79899597167969, 33.101070404052734, -0.108403504, 0.078967236, -0.0119895935
108, 193743542, -166.9781494140625, -80.79756164550781, 33.092586517333984, -0.10683137, 0.06213772, -0.014734268
109, 193760209, -166.98056030273438, -80.79708862304688, 33.08952331542969, -0.11186583, 0.03724329, -0.0152282715
110, 193776876, -166.9861602783203, -80.79766845703125, 33.09181213378906, -0.1129264, 0.07022844, -0.027508736
111, 193793543, -166.98330688476562, -80.7989273071289, 33.09017562866211, -0.06804332, 0.034653112, -0.0138168335
112, 193810210, -166.97117614746094, -80.79867553710938, 33.072479248046875, -0.076753624, 0.050548125, -0.015375137
113, 193826877, -166.9589080810547, -80.79790496826172, 33.0564079284668, -0.0936783, 0.046024, -0.03921032
114, 193843544, -166.9532012939453, -80.797607421875, 33.054195404052734, -0.08312603, 0.05806766, -0.030701637
115, 193860211, -166.94789123535156, -80.79826354980469, 33.05393981933594, -0.049019128, 0.037158918, -0.024131775
116, 193876878, -166.93434143066406, -80.7967529296875, 33.03693771362305, -0.03400096, 0.019586775, -0.0028057098
117, 193893545, -166.90907287597656, -80.7947006225586, 33.00357437133789, -0.0470492, 0.04983445, -0.0046491623
118, 193910212, -166.8816375732422, -80.79115295410156, 32.967552185058594, -0.061629508, 0.058463838, -0.02908516
119, 193926879, -166.85621643066406, -80.78827667236328, 32.93815612792969, -0.07878474, 0.051083103, -0.023022652
120, 193943546, -166.82864379882812, -80.78616333007812, 32.9067268371582, -0.078465395, 0.024945835, -0.021668434
121, 193960213, -166.802490234375, -80.784912109375, 32.875118255615234, -0.07926121, 0.017030904, -0.007616043
122, 193976880, -166.76918029785156, -80.7840805053711, 32.83574295043945, -0.07584057, 0.028242202, -0.02323246
123, 193993547, -166.73927307128906, -80.7823257446289, 32.79769515991211, -0.07717316, 0.041727185, -0.025637627
124, 194010214, -166.70712280273438, -80.78038787841797, 32.757102966308594, -0.065993376, 0.062155936, -0.016994476
125, 194026881, -166.678466796875, -80.77860260009766, 32.718204498291016, -0.06328585, 0.069092214, -0.026520729
126, 194043548, -166.65731811523438, -80.7770004272461, 32.690284729003906, -0.073701054, 0.095757976, -0.013320923
127, 194060215, -166.63302612304688, -80.7764663696289, 32.6634407043457, -0.09504704, 0.053903054, -0.012685776
128, 194076882, -166.6190948486328, -80.77540588378906, 32.647987365722656, -0.09390349, 0.08569799, -0.012887955
129, 194093549, -166.620361328125, -80.77525329589844, 32.64891815185547, -0.09312086, 0.07280823, -0.02362442
130, 194110216, -166.62344360351562, -80.77559661865234, 32.64917755126953, -0.082879886, 0.040159244, -0.01824379
131, 194126883, -166.62982177734375, -80.77533721923828, 32.64958953857422, -0.08073193, 0.05512992, -0.02344513
132, 194143550, -166.6280517578125, -80.77559661865234, 32.64105987548828, -0.08074182, 0.04570583, -0.0149002075
133, 194160217, -166.615478515625, -80.7756118774414, 32.626136779785156, -0.06781003, 0.056405842, -0.023002625
134, 194176884, -166.6038360595703, -80.77527618408203, 32.6245231628418, -0.06341672, 0.044890676, -0.011171341
135, 194193551, -166.60028076171875, -80.77497100830078, 32.63448715209961, -0.071721956, 0.041040108, -0.017565727
136, 194210218, -166.60464477539062, -80.77442169189453, 32.65085983276367, -0.06545683, 0.038337056, -0.012838364
137, 194226885, -166.59678649902344, -80.77490997314453, 32.655662536621094, -0.038574535, 0.023799548, -0.01683712
138, 194243552, -166.58694458007812, -80.77291107177734, 32.65250778198242, -0.035373773, 0.022386163, -0.020319939
139, 194260219, -166.5609588623047, -80.77129364013672, 32.62911605834961, -0.042377442, 0.004111074, -0.021235466
140, 194276886, -166.5302276611328, -80.76984405517578, 32.60076904296875, -0.05878631, 0.038223732, -0.0066108704
141, 194293553, -166.50120544433594, -80.7674789428711, 32.57781982421875, -0.08031402, 0.030619375, -0.011994362
142, 194310220, -166.4733428955078, -80.76460266113281, 32.55763244628906, -0.057766307, 0.05259405, -0.03459835
143, 194326887, -166.45314025878906, -80.76171875, 32.54714584350586, -0.047447722, 0.063259974, -0.011956215
144, 194343554, -166.42869567871094, -80.75979614257812, 32.52739334106445, -0.04697717, 0.0117317485, -0.012093544
145, 194360221, -166.39418029785156, -80.75885772705078, 32.494232177734375, -0.082376316, 0.012162234, -0.030150414
146, 194376888, -166.35768127441406, -80.75652313232422, 32.45814895629883, -0.087342046, 0.030915307, -0.024957657
147, 194393555, -166.31820678710938, -80.75399780273438, 32.41984939575195, -0.079949245, 0.05971942, -0.024727821
148, 194410222, -166.28460693359375, -80.7529296875, 32.386112213134766, -0.1003676, 0.07439741, -0.0041332245
149, 194426889, -166.26055908203125, -80.75286865234375, 32.36752700805664, -0.10681528, 0.081909455, -0.01788044
150, 194443556, -166.2519073486328, -80.75103759765625, 32.371437072753906, -0.08354283, 0.09030728, -0.016088486
151, 194460223, -166.2519989013672, -80.74885559082031, 32.38053512573242, -0.060940526, 0.07427134, -0.014249802
152, 194476890, -166.2576446533203, -80.74784851074219, 32.388893127441406, -0.053618245, 0.04174015, -0.020768166
153, 194493557, -166.27537536621094, -80.74542999267578, 32.40540313720703, -0.07263567, 0.08008748, -0.011154175
154, 194510224, -166.284912109375, -80.74315643310547, 32.42168426513672, -0.091446415, 0.0504975, -0.020897865
155, 194526891, -166.2923126220703, -80.74217987060547, 32.44218826293945, -0.084578864, 0.036213458, -0.027852058
156, 194543558, -166.29397583007812, -80.74158477783203, 32.45976257324219, -0.07656285, 0.004109286, -0.039447784
157, 194560225, -166.30101013183594, -80.74195098876953, 32.479976654052734, -0.055707697, -0.014491574, -0.038435936
158, 194576892, -166.29067993164062, -80.7432632446289, 32.478736877441406, -0.038192663, -0.047383405, -0.0084095
159, 194593559, -166.27857971191406, -80.74384307861328, 32.46813201904297, -0.039787933, -0.0037115444, -0.0022068024
160, 194610226, -166.25729370117188, -80.74451446533203, 32.446998596191406, -0.04552115, 0.036733348, -0.028050423
161, 194626893, -166.21702575683594, -80.74390411376953, 32.412784576416016, -0.05505521, 0.06586804, -0.020962715
162, 194643560, -166.17987060546875, -80.74208068847656, 32.38360595703125, -0.02951511, 0.052642554, -0.017190933
163, 194660227, -166.1461639404297, -80.74085235595703, 32.35867691040039, -0.025353018, 0.033198155, -0.005706787
164, 194676894, -166.10830688476562, -80.73802185058594, 32.32693862915039, -0.023370404, 0.028823225, -0.015881538
165, 194693561, -166.0750732421875, -80.73448181152344, 32.2955207824707, -0.04534016, 0.026847146, -0.028446198
166, 194710228, -166.0492706298828, -80.73057556152344, 32.26829528808594, -0.059218474, 0.028331608, -0.02749443
167, 194726895, -166.0236358642578, -80.72765350341797, 32.23748016357422, -0.06694716, 0.021534914, -0.010191917
168, 194743562, -165.99835205078125, -80.72425842285156, 32.20807647705078, -0.08308859, 0.069186874, -0.009261131
169, 194760229, -165.96609497070312, -80.72294616699219, 32.17939758300781, -0.10765379, 0.056112368, -0.03610134
170, 194776896, -165.94715881347656, -80.72108459472656, 32.16755676269531, -0.10598152, 0.070432395, -0.024093628
171, 194793563, -165.9356231689453, -80.7195816040039, 32.165069580078125, -0.088325895, 0.05852273, -0.026539803
172, 194810230, -165.93092346191406, -80.71990203857422, 32.168907165527344, -0.06642313, 0.036920093, -0.016971588
173, 194826897, -165.9244384765625, -80.72015380859375, 32.16554641723633, -0.058599062, 0.039620467, -0.001414299
174, 194843564, -165.9278106689453, -80.71905517578125, 32.1725959777832, -0.06878958, 0.06858517, -0.037809372
175, 194860231, -165.9371337890625, -80.71736145019531, 32.186073303222656, -0.07077309, 0.04478596, -0.037546158
176, 194876898, -165.9490966796875, -80.71780395507812, 32.202701568603516, -0.06365347, 0.057015806, -0.018474579
177, 194893565, -165.9635467529297, -80.71839904785156, 32.225135803222656, -0.09846718, 0.046739243, -0.028346062
178, 194910232, -165.97726440429688, -80.72032165527344, 32.2515983581543, -0.086955205, 0.030762088, -0.030465126
179, 194926899, -165.9808349609375, -80.72096252441406, 32.26853942871094, -0.042479362, 0.015981624, -0.023601532
180, 194943566, -165.97769165039062, -80.72028350830078, 32.277156829833984, -0.016179098, 0.036936074, -0.019207954
181, 194960233, -165.9499053955078, -80.71994018554688, 32.257835388183594, -0.0010620218, -0.03932062, -0.025512695
182, 194976900, -165.91583251953125, -80.7186279296875, 32.22077560424805, -7.7765743E-4, -0.01017051, 0.010091782
183, 194993567, -165.8819122314453, -80.71588134765625, 32.18526840209961, -0.036670204, 0.039454732, -0.02125454
184, 195010234, -165.85647583007812, -80.71354675292969, 32.16227340698242, -0.021543184, 0.044261824, -0.028981209
185, 195026901, -165.84686279296875, -80.71052551269531, 32.14936828613281, -0.052026384, 0.017245812, -0.00783062
186, 195043568, -165.8360595703125, -80.70906066894531, 32.134212493896484, -0.09784224, 0.058374766, -0.003025055
187, 195060235, -165.82510375976562, -80.70792388916016, 32.123130798339844, -0.10823609, 0.085970014, -0.03454113
188, 195076902, -165.82484436035156, -80.70635986328125, 32.12855529785156, -0.10814004, 0.07810895, -0.0446558
189, 195093569, -165.82415771484375, -80.70523834228516, 32.13790512084961, -0.077280104, 0.06829863, -0.024076462
190, 195110236, -165.82040405273438, -80.70368957519531, 32.144657135009766, -0.07869439, 0.058844145, -0.015777588
191, 195126903, -165.8104705810547, -80.70153045654297, 32.145477294921875, -0.05044855, 0.04134833, -0.011601448
192, 195143570, -165.80519104003906, -80.7007064819336, 32.15110397338867, -0.050566677, 0.02184325, -0.029762268
193, 195160237, -165.811279296875, -80.70026397705078, 32.16931915283203, -0.044583067, -0.00885536, -0.03379917
194, 195176904, -165.82289123535156, -80.69989013671875, 32.186336517333984, -0.026417108, -0.0013333665, -0.010686874
195, 195193571, -165.81822204589844, -80.70233917236328, 32.18207550048828, -0.04909138, -0.024776075, -0.012387276
196, 195210238, -165.8056640625, -80.70521545410156, 32.168941497802734, -0.067027345, 0.0045201024, -0.031814575
197, 195226905, -165.78208923339844, -80.70680236816406, 32.151954650878906, -0.04039075, 0.04580507, -0.03620243
198, 195243572, -165.75503540039062, -80.70823669433594, 32.135223388671875, -0.021952605, 0.01164983, -0.01588726
199, 195260239, -165.72755432128906, -80.70667266845703, 32.11198806762695, -0.014124901, 0.031495992, 0.0076475143
200, 195276906, -165.70123291015625, -80.70307922363281, 32.08552932739258, -0.046617538, 0.04517644, -0.017141342
201, 195293573, -165.68223571777344, -80.7021255493164, 32.067657470703125, -0.0566198, 0.044275124, -0.032057762
202, 195310240, -165.68592834472656, -80.70176696777344, 32.073787689208984, -0.06022579, 0.046915147, -0.035614967
203, 195326907, -165.68655395507812, -80.69967651367188, 32.07725143432617, -0.039136894, 0.022612918, 0.0016775131
204, 195343574, -165.66476440429688, -80.69866180419922, 32.05581283569336, -0.04895744, 0.035486594, -0.029297829
205, 195360241, -165.64425659179688, -80.69671630859375, 32.03657531738281, -0.07039775, 0.018007545, -0.040065765
206, 195376908, -165.61602783203125, -80.6939926147461, 32.01218032836914, -0.0558422, 0.009849993, 0.012644768
207, 195393575, -165.58502197265625, -80.69114685058594, 31.984390258789062, -0.03305008, 0.0064599714, -0.009261131
208, 195410242, -165.56045532226562, -80.68993377685547, 31.959247589111328, -0.039077498, 0.017975023, -0.024627686
209, 195426909, -165.5485382080078, -80.6894760131836, 31.94267463684082, -0.076066434, 0.041026473, -0.03222847
210, 195443576, -165.53030395507812, -80.68836212158203, 31.927207946777344, -0.054268777, 0.049706712, -0.007861137
211, 195460243, -165.5148468017578, -80.6866226196289, 31.91502571105957, -0.04554194, 0.043264844, -0.012448311
212, 195476910, -165.4873504638672, -80.68327331542969, 31.88926887512207, -0.05207645, 0.008924537, -0.009672165
213, 195493577, -165.45460510253906, -80.6807632446289, 31.85484504699707, -0.06324981, 0.014457041, -0.02922535
214, 195510244, -165.4140625, -80.6796875, 31.819143295288086, -0.035094384, 0.010696995, -0.032919884
215, 195526911, -165.36546325683594, -80.67951202392578, 31.77008628845215, 0.0010718005, -0.04713117, -0.026714325
216, 195543578, -165.33856201171875, -80.6756820678711, 31.730152130126953, -0.03807901, 0.08255205, -0.0074005127
217, 195560245, -165.2943572998047, -80.67416381835938, 31.689208984375, -0.024058431, 0.061250262, -0.017549515
218, 195576912, -165.23809814453125, -80.67215728759766, 31.642908096313477, -0.01702325, -0.06590011, -0.040952682
219, 195593579, -165.14756774902344, -80.67375946044922, 31.553342819213867, -0.010660394, -0.16402622, 0.0023622513
220, 195610246, -165.04510498046875, -80.67696380615234, 31.432497024536133, 0.009466779, -0.15085739, 0.01705265
221, 195626913, -164.92440795898438, -80.67923736572266, 31.281085968017578, -0.0040125605, -0.056318223, 0.0016708374
222, 195643580, -164.80398559570312, -80.68071746826172, 31.135114669799805, -0.013264656, 0.013812542, -0.027859688
223, 195660247, -164.62802124023438, -80.68518829345703, 30.948387145996094, 0.06963675, -0.20942537, -0.022763252
224, 195676914, -164.3240509033203, -80.69548797607422, 30.6163272857666, 0.17313834, -0.52206415, 0.07370281
225, 195693581, -163.84925842285156, -80.71168518066406, 30.073118209838867, 0.19261028, -0.7334676, 0.08903408
226, 195710248, -163.2172393798828, -80.73163604736328, 29.317378997802734, 0.16097392, -0.6917983, -0.010066032
227, 195726915, -162.490234375, -80.75333404541016, 28.433349609375, 0.038005527, -0.37315723, -0.07802677
228, 195743582, -161.68618774414062, -80.77919006347656, 27.494524002075195, -0.052994084, -0.11822729, -0.047696114
229, 195760249, -160.7700653076172, -80.8202896118164, 26.47588348388672, -0.11612292, -0.28086984, 0.13450432
230, 195776916, -159.76348876953125, -80.86266326904297, 25.3730525970459, -0.11132169, -0.15396276, 0.18503284
231, 195793583, -158.71568298339844, -80.90483093261719, 24.241321563720703, -0.27739868, -0.0028010644, -0.09464741
232, 195810250, -157.65875244140625, -80.95414733886719, 23.1263370513916, -0.36044833, 0.002206073, -0.26851463
233, 195826917, -156.61474609375, -81.0066909790039, 22.03960609436035, -0.21291398, 0.023413653, -0.09884453
234, 195843584, -155.55844116210938, -81.05286407470703, 20.947843551635742, -0.019170372, 0.03185037, 0.038194656
235, 195860251, -154.43069458007812, -81.0870132446289, 19.770299911499023, 0.05893813, 0.029420452, -0.026515007
236, 195876918, -153.2752227783203, -81.11595916748047, 18.535011291503906, 0.069407426, 0.06998302, -0.13599491
237, 195893585, -152.1820526123047, -81.14048767089844, 17.35304832458496, 0.07768707, 0.23127958, -0.09871769
238, 195910252, -151.17112731933594, -81.15644836425781, 16.27204132080078, 0.0952059, 0.28906572, -0.17966366
239, 195926919, -150.2825927734375, -81.16331481933594, 15.334442138671875, 0.09607414, 0.33344188, -0.20608234
240, 195943586, -149.44276428222656, -81.1661605834961, 14.471625328063965, 0.13023207, 0.24132906, -0.14908409
241, 195960253, -148.62315368652344, -81.1646499633789, 13.62983226776123, 0.24309342, 0.12834059, -0.04736042
242, 195976920, -147.82769775390625, -81.15264892578125, 12.772871971130371, 0.2863531, 0.0670835, 0.031129837
243, 195993587, -147.05645751953125, -81.12657928466797, 11.903177261352539, 0.24085505, 0.10998022, 0.038128853
244, 196010254, -146.33946228027344, -81.08769226074219, 11.07882022857666, 0.17227714, 0.25705945, 0.033358574
245, 196026921, -145.6929931640625, -81.04154205322266, 10.338850021362305, 0.06450098, 0.26534876, -0.008392334
246, 196043588, -145.15341186523438, -80.99247741699219, 9.711061477661133, -0.0604678, 0.31465328, -0.074409485
247, 196060255, -144.74746704101562, -80.94922637939453, 9.225991249084473, -0.15542264, 0.37245327, -0.05145073
248, 196076922, -144.4149169921875, -80.917236328125, 8.834355354309082, -0.16929536, 0.24384414, -0.020975113
249, 196093589, -144.13299560546875, -80.89131164550781, 8.492134094238281, -0.20717813, 0.17782445, 0.024049759
250, 196110256, -143.892822265625, -80.87123107910156, 8.189833641052246, -0.2427025, 0.17626008, 0.02303505
251, 196126923, -143.69772338867188, -80.85355377197266, 7.939011573791504, -0.27351874, 0.26121813, 0.011310577
252, 196143590, -143.5592498779297, -80.84214782714844, 7.765875816345215, -0.26798224, 0.33524674, -0.06524277
253, 196160257, -143.47532653808594, -80.83831024169922, 7.682634353637695, -0.13122378, 0.25899765, -0.13034344
254, 196176924, -143.4561004638672, -80.84028625488281, 7.674535751342773, 0.014200281, 0.17997845, -0.086071014
255, 196193591, -143.44454956054688, -80.84993743896484, 7.663002967834473, 0.020357002, -0.035885006, 0.029863358
256, 196210258, -143.39529418945312, -80.8662338256836, 7.594491004943848, -0.045085132, -0.12701772, 0.13427734
257, 196226925, -143.37208557128906, -80.88561248779297, 7.538737773895264, -0.14425828, -0.013544662, 0.05642891
258, 196243592, -143.39083862304688, -80.90997314453125, 7.547018527984619, -0.1490551, 0.11756804, -0.077656746
259, 196260259, -143.41314697265625, -80.93802642822266, 7.595657825469971, -0.040656727, 0.04500031, -0.15071869
260, 196276926, -143.41177368164062, -80.96852111816406, 7.624963760375977, 0.13087516, -0.11635637, -0.07391834
261, 196293593, -143.37033081054688, -80.98986053466797, 7.5795745849609375, 0.18579598, -0.16597234, -0.014749527
262, 196310260, -143.293701171875, -81.00212860107422, 7.4609375, 0.14139798, -0.08795905, -0.034936905
263, 196326927, -143.22085571289062, -81.00946807861328, 7.334983825683594, 0.038270168, 0.037956525, -0.030013084
264, 196343594, -143.13426208496094, -81.01861572265625, 7.2221856117248535, 0.012306679, 0.011243372, 0.045859337
265, 196360261, -143.0257110595703, -81.02880859375, 7.106480121612549, 0.07057203, -0.11722081, 0.037923813
266, 196376928, -142.87606811523438, -81.03564453125, 6.944528102874756, 0.15975241, -0.19791122, -0.0329628
267, 196393595, -142.66824340820312, -81.03498840332031, 6.703025817871094, 0.18914275, -0.19893447, -0.062625885
268, 196410262, -142.44366455078125, -81.02494049072266, 6.415945529937744, 0.18176839, -0.047345854, -0.05984783
269, 196426929, -142.2429962158203, -81.01219940185547, 6.1449785232543945, 0.044772103, 0.14370933, -0.028212547
270, 196443596, -142.0809326171875, -81.00027465820312, 5.938048839569092, 0.0043673315, 0.19668794, -0.015045166
271, 196460263, -141.9388427734375, -80.99064636230469, 5.775094032287598, -8.009028E-4, 0.1309397, -0.0060987473
272, 196476930, -141.82040405273438, -80.98114776611328, 5.640982627868652, 0.055462282, 0.055200323, -0.0017471313
273, 196493597, -141.7167510986328, -80.9698715209961, 5.507582187652588, 0.060829386, 0.056052357, -0.018630028
274, 196510264, -141.6460418701172, -80.95252227783203, 5.398486614227295, 0.06976957, 0.16279969, -0.052570343
275, 196526931, -141.62542724609375, -80.9294204711914, 5.347771167755127, 0.072651654, 0.22149184, -0.04728794
276, 196543598, -141.62322998046875, -80.90769958496094, 5.3221893310546875, 0.067947544, 0.13469371, 0.016343117
277, 196560265, -141.63143920898438, -80.88833618164062, 5.297364234924316, -0.010753487, 0.06590056, 0.12011528
278, 196576932, -141.668701171875, -80.87157440185547, 5.302548408508301, -0.085411064, 0.05983263, 0.02382183
279, 196593599, -141.73789978027344, -80.85887908935547, 5.356162071228027, -0.10963227, 0.11038701, -0.09923172
280, 196610266, -141.83517456054688, -80.85136413574219, 5.456772804260254, -0.06758132, 0.112534635, -0.1511364
281, 196626933, -141.95944213867188, -80.84650421142578, 5.589114665985107, -0.004678126, 0.06836971, -0.05851364
282, 196643600, -142.05923461914062, -80.8447494506836, 5.691149711608887, 0.05729425, -0.014522308, 0.007892609
283, 196660267, -142.16712951660156, -80.84172058105469, 5.782835006713867, 0.06353037, -0.004308659, 0.0054101944
284, 196676934, -142.29962158203125, -80.83576202392578, 5.890688896179199, 0.033629704, 0.09186405, -0.065588
285, 196693601, -142.45059204101562, -80.83151245117188, 6.0339131355285645, 0.0095557375, 0.08503081, 0.010595322
286, 196710268, -142.5801239013672, -80.82769775390625, 6.168955326080322, 0.08580311, -0.08528829, 0.07831192
287, 196726935, -142.6741485595703, -80.8190689086914, 6.252763748168945, 0.14734176, -0.23680203, 0.007119179
288, 196743602, -142.7201690673828, -80.80623626708984, 6.265727996826172, 0.1456882, -0.21512407, -0.07601833
289, 196760269, -142.7168426513672, -80.7899169921875, 6.216503143310547, 0.16798669, -0.12027042, -0.079909325
290, 196776936, -142.7069549560547, -80.771484375, 6.152072906494141, 0.10921821, -0.0065397657, -0.07434273
291, 196793603, -142.74766540527344, -80.75201416015625, 6.140977382659912, 0.060726963, 0.14116542, -0.05618
292, 196810270, -142.79869079589844, -80.73394775390625, 6.162403106689453, 0.10447744, 0.13967168, 0.068694115
293, 196826937, -142.8647918701172, -80.70874786376953, 6.198929309844971, 0.17684312, 0.09180772, 0.12137413
294, 196843604, -142.96133422851562, -80.672119140625, 6.2476396560668945, 0.19158581, 0.11103352, -0.004173279
295, 196860271, -143.11065673828125, -80.6273422241211, 6.3286333084106445, 0.094025865, 0.18860146, -0.072772026
296, 196876938, -143.31494140625, -80.5820541381836, 6.4594550132751465, -0.020773461, 0.27819586, -0.061969757
297, 196893605, -143.65663146972656, -80.53797149658203, 6.7308349609375, -0.0924658, 0.4744135, -0.001329422
298, 196910272, -144.1275634765625, -80.49781799316406, 7.16928243637085, -0.13165025, 0.58151144, 0.010474205
299, 196926939, -144.66847229003906, -80.46566772460938, 7.721196174621582, -0.15084985, 0.39860272, 0.032262802
300, 196943606, -145.2370147705078, -80.44007110595703, 8.30557918548584, -0.16211478, 0.12786472, 0.0143585205
301, 196960273, -145.80662536621094, -80.41358184814453, 8.885964393615723, -0.18225771, 0.006438514, -0.05335331
302, 196976940, -146.36705017089844, -80.38567352294922, 9.467972755432129, -0.20939817, 0.012545335, -0.06143284
303, 196993607, -146.91790771484375, -80.35820770263672, 10.059004783630371, -0.22489773, 0.03495005, -0.085103035
304, 197010274, -147.47732543945312, -80.33472442626953, 10.67635440826416, -0.21759355, -0.022045754, -0.031490326
305, 197026941, -148.03341674804688, -80.32225036621094, 11.31131649017334, -0.218247, -0.08084262, 0.06175804
306, 197043608, -148.5264129638672, -80.31941986083984, 11.925915718078613, -0.25740975, -0.03215681, 0.1251316
307, 197060275, -148.9202880859375, -80.31768798828125, 12.494781494140625, -0.18226415, -0.006407893, 0.13065147
308, 197076942, -149.26783752441406, -80.3116226196289, 13.011350631713867, -0.08917413, -0.14769211, 0.030942917
309, 197093609, -149.6368865966797, -80.3041763305664, 13.479910850524902, -0.08783579, -0.23418671, -0.15254879
310, 197110276, -150.05917358398438, -80.30667114257812, 13.923445701599121, -0.21376516, -0.10964696, -0.19604874
311, 197126943, -150.4938201904297, -80.32815551757812, 14.373404502868652, -0.26435253, 0.14186244, -0.12929249
312, 197143610, -150.776611328125, -80.35942840576172, 14.76138973236084, -0.035932556, 0.09799031, 0.020490646
313, 197160277, -150.79327392578125, -80.38337707519531, 14.950843811035156, -0.050520353, -0.20319216, 0.107611656
314, 197176944, -150.70712280273438, -80.37728881835938, 15.040369987487793, 0.1313637, -0.35045344, 0.22056961
315, 197193611, -150.70741271972656, -80.310791015625, 15.184636116027832, 0.5086917, -0.2318054, 0.047677994
316, 197210278, -150.86048889160156, -80.20230865478516, 15.35439395904541, 0.44247112, -0.22323044, -0.058894157
317, 197226945, -151.2998504638672, -80.07598114013672, 15.701112747192383, 0.28351557, -0.011634967, 0.12003708
318, 197243612, -151.949951171875, -79.91082000732422, 16.24530029296875, 0.21373868, -6.884199E-4, 0.3066368
319, 197260279, -152.9246063232422, -79.63557434082031, 17.133594512939453, -0.26456082, -0.10785372, -0.2631483
320, 197276946, -154.4925537109375, -79.20218658447266, 18.691259384155273, -0.6168475, -0.09063875, -1.4437866
321, 197293613, -156.48048400878906, -78.5703353881836, 20.819305419921875, -0.88086003, -0.41888517, -2.4417524
322, 197310280, -158.47518920898438, -77.79619598388672, 23.06769561767578, -0.6045828, -0.86153704, -1.4693136
323, 197326947, -160.07025146484375, -77.00872802734375, 24.856407165527344, -0.23642775, -0.2997548, 0.9432621
324, 197343614, -161.19680786132812, -76.23365783691406, 26.135271072387695, -0.107735984, -0.5001737, 0.8094759
325, 197360281, -162.27584838867188, -75.52739715576172, 27.278987884521484, -0.20318887, -0.3868864, -0.4329214
326, 197376948, -163.05126953125, -74.95768737792969, 28.19242286682129, -0.21978337, -0.29595664, -0.51275444
327, 197393615, -163.52349853515625, -74.5938491821289, 28.80683135986328, 0.3356589, -0.2837754, 0.43949604
328, 197410282, -163.82554626464844, -74.47701263427734, 29.135969161987305, 0.9255575, -0.19342521, 1.3083458
329, 197426949, -163.90516662597656, -74.58699035644531, 29.133554458618164, 1.3172578, -0.10435462, 1.5508595
330, 197443616, -163.79351806640625, -74.81522369384766, 28.828285217285156, 1.0702493, -0.26578584, 0.9593258
331, 197460283, -163.74423217773438, -74.97843170166016, 28.465784072875977, 0.55486184, -0.87718976, -0.21718788
332, 197476950, -163.74337768554688, -75.0608139038086, 28.109739303588867, 0.11087718, -0.7229684, -0.2563238
333, 197493617, -163.39048767089844, -75.13700103759766, 27.477367401123047, 0.085419916, -1.2232192, 0.10067654
334, 197510284, -162.7686767578125, -75.20267486572266, 26.409669876098633, 0.20666419, -1.6775026, -0.095788
335, 197526951, -162.18101501464844, -75.26679992675781, 25.18939208984375, -0.0919263, -0.92513865, -0.4273529
336, 197543618, -161.7251739501953, -75.3409423828125, 24.112403869628906, -0.07733716, 0.18159355, -0.19167233
337, 197560285, -161.34112548828125, -75.4062271118164, 23.202802658081055, 0.19950464, 1.1790686, 0.4059
338, 197576952, -160.87628173828125, -75.41389465332031, 22.365795135498047, 0.5049672, 1.5761752, 0.21695423
339, 197593619, -160.2736053466797, -75.33716583251953, 21.518760681152344, 0.5435648, 1.815441, -0.6510134
340, 197610286, -159.68328857421875, -75.20348358154297, 20.817758560180664, 0.7317308, 2.7160423, -1.2402678
341, 197626953, -159.46502685546875, -75.03205108642578, 20.541906356811523, 2.0420551, 2.3816369, -1.1266422
342, 197643620, -159.90065002441406, -74.75116729736328, 20.568721771240234, 2.9749026, 2.0958328, -0.2098465
343, 197660287, -161.0177459716797, -74.34554290771484, 21.040494918823242, 1.2474177, 3.7410803, -0.72303295
344, 197676954, -162.0462188720703, -73.9958267211914, 21.752029418945312, -0.4511009, 4.0710206, -2.4307995
345, 197693621, -162.71690368652344, -73.78838348388672, 22.524660110473633, -0.2858388, 1.9569657, -2.2387466
346, 197710288, -164.08331298828125, -73.48863220214844, 23.741405487060547, -0.09577055, -1.4315822, 0.46016788
347, 197726955, -166.0247039794922, -73.03768920898438, 25.2126407623291, -0.74757266, -0.5335609, 1.2563438
348, 197743622, -167.21705627441406, -72.57978820800781, 26.207324981689453, -0.8235622, -0.7732722, 1.4228382
349, 197760289, -167.9840850830078, -72.16378021240234, 26.940427780151367, -1.4858689, -1.268244, -0.14541149
350, 197776956, -168.92327880859375, -71.81886291503906, 27.88006019592285, -0.9751623, -2.005964, -0.37313175
351, 197793623, -169.91673278808594, -71.44007873535156, 28.709918975830078, -0.20390415, -1.9033505, 0.81912327
352, 197810290, -170.6200714111328, -71.02082824707031, 29.262245178222656, 0.05730601, -0.99917734, 0.34847164
353, 197826957, -170.92823791503906, -70.63660430908203, 29.493471145629883, 0.22840306, -0.90613997, 0.5471144
354, 197843624, -171.17718505859375, -70.31588745117188, 29.596736907958984, -0.8021387, -0.5629753, 0.506711
355, 197860291, -171.48646545410156, -70.09485626220703, 29.75088119506836, -1.7814722, 0.6247099, 0.85305023
356, 197876958, -171.73191833496094, -69.87720489501953, 30.12351417541504, -2.0251844, 0.25519234, 0.2318039
357, 197893625, -171.87347412109375, -69.6812973022461, 30.586315155029297, -1.8102729, -0.16136451, 0.02389431
358, 197910292, -171.99722290039062, -69.54495239257812, 31.087749481201172, -1.0736251, -0.7911668, 0.61731625
359, 197926959, -172.07705688476562, -69.48113250732422, 31.45346450805664, -0.5336718, -1.2819223, 0.99026394
360, 197943626, -171.96226501464844, -69.51869201660156, 31.59823226928711, -0.39700037, -1.5035577, 1.0771723
361, 197960293, -171.70094299316406, -69.595947265625, 31.575244903564453, -0.30203715, -1.8780661, 0.2129221
362, 197976960, -171.3963623046875, -69.64014434814453, 31.46387481689453, -0.31845534, -1.748313, -0.4416027
363, 197993627, -170.99960327148438, -69.70793151855469, 31.28188705444336, 0.15835465, -1.1319946, 0.19803143
364, 198010294, -170.5038299560547, -69.7852554321289, 30.99390983581543, 0.77729434, -1.0459038, 0.3517542
365, 198026961, -169.9469451904297, -69.88862609863281, 30.490276336669922, 0.5894267, -0.7995453, 0.29047298
366, 198043628, -169.33737182617188, -70.04715728759766, 29.814632415771484, 0.07404303, -0.5152765, 0.23596954
367, 198060295, -168.73944091796875, -70.21009063720703, 29.127321243286133, -0.4437102, -0.3434642, -0.30359077
368, 198076962, -168.1347198486328, -70.3426742553711, 28.444490432739258, -0.34300366, 0.0654361, -0.3987255
369, 198093629, -167.4959716796875, -70.48429107666016, 27.782655715942383, -0.23391369, 0.55881166, 0.25138664
370, 198110296, -166.9246826171875, -70.64012145996094, 27.18683433532715, -0.057286594, 0.12884918, 0.21596718
371, 198126963, -166.45701599121094, -70.80226135253906, 26.620222091674805, -0.5217821, 0.27549425, -0.16562748
372, 198143630, -166.0146484375, -70.9479751586914, 26.103620529174805, -0.5997894, 0.3792047, -0.2857132
373, 198160297, -165.5733184814453, -71.07865142822266, 25.640724182128906, -0.45949793, 0.5300794, -0.17503643
374, 198176964, -165.23394775390625, -71.18081665039062, 25.310230255126953, -0.16777112, 0.19864804, -0.19657898
375, 198193631, -164.97760009765625, -71.26393127441406, 25.019765853881836, 0.1941728, 0.21750873, -0.013875961
376, 198210298, -164.7592010498047, -71.34823608398438, 24.708677291870117, 0.31943232, 0.44607374, 0.13996506
377, 198226965, -164.64990234375, -71.42338562011719, 24.475975036621094, 0.14587255, 0.79906577, -0.09060669
378, 198243632, -164.52853393554688, -71.49278259277344, 24.311065673828125, 0.25434187, 1.0167674, -0.29528713
379, 198260299, -164.3321533203125, -71.56939697265625, 24.160858154296875, 0.37779522, 0.5469854, -0.107281685
380, 198276966, -164.1279754638672, -71.6421127319336, 24.004287719726562, 0.6105631, 0.26358682, -0.06844807
381, 198293633, -163.95809936523438, -71.6968002319336, 23.83207130432129, 0.63074416, 0.07553017, -0.02827835
382, 198310300, -163.7454071044922, -71.78253936767578, 23.585416793823242, 0.4815525, 0.050763033, 0.10874367
383, 198326967, -163.5048065185547, -71.90101623535156, 23.29986572265625, 0.35744667, -0.23028852, 0.21737099
384, 198343634, -163.37387084960938, -71.95987701416016, 23.038230895996094, -0.3767569, -0.38268447, 0.0535717
385, 198360301, -163.17031860351562, -72.0030517578125, 22.787002563476562, -1.1358275, -0.1309369, -0.25812435
386, 198376968, -162.85330200195312, -72.08180236816406, 22.59133529663086, -0.9743806, -0.3286359, -0.21073246
387, 198393635, -162.52915954589844, -72.16297912597656, 22.383319854736328, -0.079752885, -0.46909124, 0.08712578
388, 198410302, -162.22674560546875, -72.24324798583984, 22.06268882751465, 0.22386482, -0.59395754, 0.21080303
389, 198426969, -161.9498748779297, -72.33707427978516, 21.619098663330078, -0.0726566, -0.766785, 0.025191307
390, 198443636, -161.71432495117188, -72.44707489013672, 21.08976936340332, -0.36106792, -0.27836013, -0.09656334
391, 198460303, -161.5281982421875, -72.57107543945312, 20.625816345214844, -0.43407887, 0.5296047, -0.02626419
392, 198476970, -161.2902374267578, -72.725830078125, 20.209272384643555, -0.276372, 0.3585427, 0.26366234
393, 198493637, -160.98306274414062, -72.86571502685547, 19.77484893798828, 0.25204304, 0.032436423, 0.13527584
394, 198510304, -160.7853546142578, -72.9869155883789, 19.410913467407227, 0.12305092, -0.015374003, -0.28081417
395, 198526971, -160.6427001953125, -73.10507202148438, 19.09803581237793, 0.42027885, 0.38712803, -0.28595448
396, 198543638, -160.4961700439453, -73.21968841552734, 18.743282318115234, 0.1725172, 0.18236266, 0.30749226
397, 198560305, -160.4508819580078, -73.32659149169922, 18.533447265625, -0.26567936, 0.15792453, -0.015630722
398, 198576972, -160.25975036621094, -73.42996215820312, 18.313709259033203, -0.52764505, -0.054371092, -0.38218117
399, 198593639, -159.8768310546875, -73.54779815673828, 17.972434997558594, -0.3073772, -0.66011804, -0.16176033
400, 198610306, -159.52394104003906, -73.6790542602539, 17.54225730895996, -0.10212374, -0.97307515, 0.13173676
401, 198626973, -159.2099151611328, -73.81804656982422, 17.0462646484375, 0.017691944, -0.6377837, 0.14957142
402, 198643640, -158.82290649414062, -73.9652099609375, 16.463563919067383, -0.24530067, -0.44527078, 0.17621803
403, 198660307, -158.3412628173828, -74.11898040771484, 15.85312557220459, -0.10023548, -0.35030583, -0.08489132
404, 198676974, -157.75039672851562, -74.26518249511719, 15.158121109008789, 0.23832041, -0.23264547, -0.13848877
405, 198693641, -157.1443328857422, -74.4030990600586, 14.427066802978516, 0.4113732, -0.044687953, -0.0698452
406, 198710308, -156.5417022705078, -74.53206634521484, 13.718973159790039, 0.39956897, 0.43119437, -0.1285305
407, 198726975, -155.90545654296875, -74.65223693847656, 13.071533203125, 0.29149532, 0.6355878, -0.03794861
408, 198743642, -155.30007934570312, -74.75370025634766, 12.509368896484375, 0.22671014, 0.4650016, -0.008579254
409, 198760309, -154.77566528320312, -74.82911682128906, 12.10372257232666, 0.10011162, 0.6078425, -0.38213253
410, 198776976, -154.11668395996094, -74.89205169677734, 11.73453140258789, 0.31848752, 0.5438733, -0.41031742
411, 198793643, -153.44187927246094, -74.9494400024414, 11.364922523498535, 0.5820722, -0.07412885, -0.22326183
412, 198810310, -152.86178588867188, -74.98621368408203, 10.899704933166504, 0.52562785, -0.25526822, 0.052696228
413, 198826977, -152.39064025878906, -74.99444580078125, 10.409319877624512, 0.14575805, 0.040789213, -0.13258934
414, 198843644, -151.96115112304688, -74.99640655517578, 10.036730766296387, -0.09112579, 0.5261904, -0.41284466
415, 198860311, -151.42617797851562, -74.99908447265625, 9.701315879821777, -0.07462438, 0.17033498, -0.301404
416, 198876978, -150.87684631347656, -75.01432037353516, 9.37944507598877, -0.008119835, -0.3371256, 0.13143253
417, 198893645, -150.35562133789062, -75.04136657714844, 9.045321464538574, -0.036809232, -0.31655145, 0.21402168
418, 198910312, -149.8514862060547, -75.06491088867188, 8.667970657348633, 0.07968035, 0.12501863, 0.04731846
419, 198926979, -149.4215087890625, -75.07682800292969, 8.258228302001953, 0.048064448, 0.2736249, -0.0962801
420, 198943646, -149.09295654296875, -75.07648468017578, 7.8746137619018555, -0.067929834, 0.4324665, -0.13637924
421, 198960313, -148.82553100585938, -75.06446075439453, 7.594486713409424, -0.026938116, 0.52609116, -0.035811424
422, 198976980, -148.49856567382812, -75.05476379394531, 7.373621940612793, 0.15259543, 0.21226266, 0.14004326
423, 198993647, -148.1798553466797, -75.04511260986328, 7.181905746459961, 0.38434282, -0.038871363, 0.0031661987
424, 199010314, -147.9280548095703, -75.02407836914062, 6.991323471069336, 0.35741615, 0.07856458, -0.21902752
425, 199026981, -147.75242614746094, -74.9926528930664, 6.819529056549072, 0.18932118, 0.17462856, -0.15088367
426, 199043648, -147.59388732910156, -74.95301055908203, 6.628970623016357, 0.08269393, 0.050978724, -0.10691738
427, 199060315, -147.44058227539062, -74.91130828857422, 6.40494966506958, -0.05106902, -0.062468294, -0.05343914
428, 199076982, -147.28973388671875, -74.86707305908203, 6.165001392364502, -0.1372555, -0.14230756, -0.08758259
429, 199093649, -147.10472106933594, -74.8276138305664, 5.898803234100342, -0.20434448, -0.32271427, -0.014325142
430, 199110316, -146.8428955078125, -74.80170440673828, 5.567697525024414, -0.23077165, -0.43759713, 0.017967224
431, 199126983, -146.5589599609375, -74.78739929199219, 5.231967926025391, -0.29266092, -0.23230964, -0.010972023
432, 199143650, -146.23095703125, -74.77814483642578, 4.922220230102539, -0.046905927, -0.031515215, -0.058992386
433, 199160317, -145.90634155273438, -74.76667785644531, 4.6035051345825195, 0.1378553, -0.1238454, -0.05893421
434, 199176984, -145.66030883789062, -74.74124908447266, 4.306793212890625, 0.26603606, 0.26573622, -0.17327118
435, 199193651, -145.38893127441406, -74.68559265136719, 3.9693210124969482, 0.44715998, 0.3866735, -0.3946724
436, 199210318, -145.18521118164062, -74.60311889648438, 3.578770399093628, 0.5696388, 0.06644392, -0.32175732
437, 199226985, -145.0930633544922, -74.5049057006836, 3.236785411834717, 0.4242234, 0.14682834, -0.13833618
438, 199243652, -144.97280883789062, -74.40823364257812, 2.948676824569702, 0.37574047, 0.05333343, -0.2653761
439, 199260319, -144.82240295410156, -74.30247497558594, 2.684027910232544, 0.32856253, -0.15326205, -0.26698494
440, 199276986, -144.61705017089844, -74.2072525024414, 2.362525224685669, -0.20226263, -0.18150102, 0.35290623
441, 199293653, -144.40621948242188, -74.130126953125, 2.0917773246765137, -0.57771105, 0.06811602, 0.6408968
442, 199310320, -144.07278442382812, -74.07243347167969, 1.9176695346832275, -0.95350987, 0.28873917, 0.5216961
443, 199326987, -143.52438354492188, -74.03150177001953, 1.7614973783493042, -0.86699736, -0.10201735, 0.117191315
444, 199343654, -142.84841918945312, -74.00337219238281, 1.546894907951355, -0.44655716, -0.5292404, -0.045698166
445, 199360321, -142.20822143554688, -73.98475646972656, 1.342189073562622, 0.028655171, -0.4493993, -0.13448524
446, 199376988, -141.6921844482422, -73.96983337402344, 1.2146248817443848, 0.19660741, 0.0072914395, -0.25792217
447, 199393655, -141.228271484375, -73.9542236328125, 1.1782814264297485, 0.096452326, 0.3346095, -0.38515854
448, 199410322, -140.78651428222656, -73.9393539428711, 1.2335423231124878, -0.11842242, 0.41748074, -0.19277859
449, 199426989, -140.36395263671875, -73.93187713623047, 1.3669054508209229, -0.29341546, 0.310335, 0.09408474
450, 199443656, -139.96981811523438, -73.93899536132812, 1.5519495010375977, -0.46348014, 0.11679714, 0.33927536
451, 199460323, -139.56857299804688, -73.96062469482422, 1.7175732851028442, -0.5317162, 0.07865354, 0.32113266
452, 199476990, -139.1182861328125, -74.00297546386719, 1.8531588315963745, -0.69476694, 0.17018679, 0.2372837
453, 199493657, -138.60308837890625, -74.0628662109375, 1.946921944618225, -0.74767786, -0.07300179, 0.0791378
454, 199510324, -138.08689880371094, -74.13842010498047, 2.0153698921203613, -0.47677404, -0.17818296, -0.13585472
455, 199526991, -137.647216796875, -74.21797180175781, 2.0795915126800537, -0.13723561, -0.13872577, -0.12718296
456, 199543658, -137.25875854492188, -74.29723358154297, 2.1068103313446045, 0.106050976, -0.047806963, 0.009727478
457, 199560325, -136.94273376464844, -74.37379455566406, 2.124356508255005, 0.23490384, 0.16627285, -0.105825424
458, 199576992, -136.78855895996094, -74.43510437011719, 2.243605613708496, 0.42692629, 0.26349965, -0.408103
459, 199593659, -136.7755584716797, -74.49246215820312, 2.4620413780212402, 0.14617977, 0.5333323, -0.07503319
460, 199610326, -136.78309631347656, -74.5516128540039, 2.711353063583374, 0.107741125, 0.6754416, -0.05203724
461, 199626993, -136.8435821533203, -74.60984802246094, 3.0305423736572266, 0.07447362, 0.8911715, -0.053484917
462, 199643660, -136.9225616455078, -74.6626968383789, 3.3817129135131836, -0.029194312, 0.53656274, 0.002562523
463, 199660327, -137.0699920654297, -74.71212005615234, 3.7501585483551025, -0.08714736, 0.20805971, -0.03581524
464, 199676994, -137.2544403076172, -74.75618743896484, 4.118699073791504, -0.22440767, 0.06914351, 0.017008781
465, 199693661, -137.38516235351562, -74.80853271484375, 4.451761245727539, -0.3935358, -0.08993491, 0.024751663
466, 199710328, -137.4491729736328, -74.87593841552734, 4.739354133605957, -0.5621759, -0.26678395, 0.08436966
467, 199726995, -137.43344116210938, -74.95570373535156, 4.9854512214660645, -0.34147632, -0.32257545, -0.023831367
468, 199743662, -137.47201538085938, -75.03268432617188, 5.270966529846191, -0.035098575, -0.4545232, -0.2246418
469, 199760329, -137.5313720703125, -75.11134338378906, 5.5067338943481445, -0.030638821, -0.22871657, -0.049619675
470, 199776996, -137.6573486328125, -75.18803405761719, 5.733212947845459, 0.07475078, 0.06711133, -0.021266937
471, 199793663, -137.83168029785156, -75.24488830566406, 6.007295608520508, 0.21158698, 0.31369686, -0.17302608
472, 199810330, -138.1640167236328, -75.26142883300781, 6.416137218475342, 0.052903, 0.26399988, -0.2997551
473, 199826997, -138.69288635253906, -75.24526977539062, 7.0104546546936035, -0.35643739, 0.31484774, -0.12961674
474, 199843664, -139.2064666748047, -75.23270416259766, 7.666669845581055, -0.47777352, 0.37131828, 0.1715784
475, 199860331, -139.5350341796875, -75.23605346679688, 8.210265159606934, 0.22381034, -0.2736371, 0.11898804
476, 199876998, -139.87188720703125, -75.23921203613281, 8.641783714294434, 0.6805171, -0.8800836, -0.008725166
477, 199893665, -140.26991271972656, -75.24334716796875, 8.968565940856934, 0.632353, -0.83762085, 0.05957985
478, 199910332, -140.66236877441406, -75.25109100341797, 9.21923828125, 0.54601246, -0.274353, 0.06003666
479, 199926999, -140.9950714111328, -75.25552368164062, 9.398966789245605, 0.72097015, 0.23305473, -0.0160532
480, 199943666, -141.35562133789062, -75.24044799804688, 9.527813911437988, 0.7742195, 0.45808813, -0.023403168
481, 199960333, -141.77210998535156, -75.2152099609375, 9.640621185302734, 0.4080239, 0.87598485, -0.050797462
482, 199977000, -142.17601013183594, -75.1986312866211, 9.797367095947266, 0.06609893, 1.0566729, -0.13131809
483, 199993667, -142.5334014892578, -75.19261169433594, 10.075480461120605, 0.1395583, 0.89095753, -0.14255524
484, 200010334, -142.69491577148438, -75.20050048828125, 10.335579872131348, 0.2746111, 0.01464971, 0.124690056
485, 200027001, -142.41293334960938, -75.2676773071289, 10.220988273620605, 0.15919615, -0.87119335, 0.50121117
486, 200043668, -141.93283081054688, -75.3895492553711, 9.782418251037598, 0.48784626, -1.2481936, 0.1749649
487, 200060335, -141.76254272460938, -75.4489974975586, 9.440463066101074, -0.40624127, -1.5989825, -0.13777924
488, 200077002, -141.7820587158203, -75.47062683105469, 9.276999473571777, -1.81615, -0.6618015, -0.06867504
489, 200093669, -141.44717407226562, -75.50685119628906, 8.958612442016602, -1.2740506, -0.69850457, -0.02090931
490, 200110336, -141.10105895996094, -75.53063201904297, 8.557893753051758, -0.29733962, -0.5468011, -0.53868294
491, 200127003, -140.9699249267578, -75.53456115722656, 8.295663833618164, 0.022775132, 0.27095714, -0.27472305
492, 200143670, -140.95111083984375, -75.5268783569336, 8.23888874053955, 0.52806354, 0.5461594, 0.0628767
493, 200160337, -141.04202270507812, -75.49667358398438, 8.36247444152832, 0.9086903, 0.6039018, 0.08207321
494, 200177004, -141.263427734375, -75.43822479248047, 8.654075622558594, 0.96047777, 0.61475605, -0.08903885
495, 200193671, -141.46755981445312, -75.35347747802734, 8.983991622924805, 0.96720827, 0.47556224, -0.3900633
496, 200210338, -141.5860595703125, -75.27108001708984, 9.249334335327148, 0.6856359, 0.071997546, -0.34686184
497, 200227005, -141.62930297851562, -75.21167755126953, 9.409296989440918, 0.22027627, -0.053847846, 0.08214474
498, 200243672, -141.6363525390625, -75.1754379272461, 9.528095245361328, -0.18750043, 0.010232647, 0.36690998
499, 200260339, -141.56546020507812, -75.14924621582031, 9.587067604064941, -0.4113002, 0.058948413, 0.20886993
500, 200277006, -141.41848754882812, -75.13434600830078, 9.586518287658691, -0.20583464, -0.2835148, -0.3461008
501, 200293673, -141.24493408203125, -75.14524841308594, 9.50425910949707, -0.263402, -0.4630679, -0.09137344
502, 200310340, -141.07501220703125, -75.17908477783203, 9.3898286819458, -0.36484873, -0.36557177, 0.24599266
503, 200327007, -140.9285125732422, -75.22083282470703, 9.298937797546387, -0.6820802, -0.19951706, 0.42426586
504, 200343674, -140.79196166992188, -75.26811218261719, 9.195663452148438, -1.0043684, -0.30756834, 0.238163
505, 200360341, -140.7544708251953, -75.29984283447266, 9.162891387939453, -1.4489774, -0.17045613, 0.12698936
506, 200377008, -140.6140899658203, -75.33020782470703, 9.139222145080566, -1.3653957, 0.017991005, -0.008242607
507, 200393675, -140.3926239013672, -75.37417602539062, 9.11269474029541, -0.73132443, -0.29996848, -0.20023155
508, 200410342, -140.2071075439453, -75.43952178955078, 9.093591690063477, -0.17402802, -0.18257454, -0.07607269
509, 200427009, -140.11497497558594, -75.49195861816406, 9.162199020385742, 0.28279623, -0.0615881, -0.0033960342
510, 200443676, -139.98324584960938, -75.5300064086914, 9.219213485717773, 0.5908924, 0.023678962, 0.09349823
511, 200460343, -139.86822509765625, -75.5473403930664, 9.25361156463623, 1.0600115, -0.0042277477, -0.32216358
512, 200477010, -139.87423706054688, -75.5354232788086, 9.239456176757812, 1.3187296, 0.1168623, -0.34931946
513, 200493677, -140.0233154296875, -75.48355102539062, 9.183318138122559, 1.2788752, 0.7767141, -0.26994133
514, 200510344, -140.28506469726562, -75.40238952636719, 9.160833358764648, 1.0208875, 1.1826357, -0.03025055
515, 200527011, -140.62120056152344, -75.30191802978516, 9.219819068908691, 0.7706284, 1.0578552, 0.036492348
516, 200543678, -140.9786376953125, -75.20018005371094, 9.346482276916504, 0.32906544, 0.5454183, -0.07033062
517, 200560345, -141.269775390625, -75.11135864257812, 9.474136352539062, -0.2456826, -0.24212489, -0.0023422241
518, 200577012, -141.41661071777344, -75.0426025390625, 9.538140296936035, -0.43557334, -0.7384276, -0.042582512
519, 200593679, -141.4210968017578, -74.9951400756836, 9.486098289489746, -0.4395262, -0.9775671, -0.0045785904
520, 200610346, -141.30982971191406, -74.9729995727539, 9.300651550292969, -0.3003822, -0.7667824, 0.09495449
521, 200627013, -141.14451599121094, -74.96273040771484, 9.033239364624023, -0.13484156, -0.35767257, 0.045402527
522, 200643680, -141.0428924560547, -74.94414520263672, 8.8157320022583, -0.25158954, -0.16580214, 0.09731388
523, 200660347, -140.91741943359375, -74.91983032226562, 8.605546951293945, -0.2579011, -0.19754522, 0.2187109
524, 200677014, -140.77549743652344, -74.90156555175781, 8.392241477966309, -0.17086627, -0.14002617, 0.0510149
525, 200693681, -140.60789489746094, -74.90091705322266, 8.164297103881836, -0.17620191, -0.022007309, 0.001405716
526, 200710348, -140.41372680664062, -74.91731262207031, 7.90283203125, -0.046252374, 0.007718573, -0.029132843
527, 200727015, -140.2548828125, -74.93018341064453, 7.6474504470825195, 0.0073806774, 0.022125548, -0.0840826
528, 200743682, -140.14688110351562, -74.92701721191406, 7.400777339935303, 0.0439888, 0.06572622, -0.037046432
529, 200760349, -140.1004638671875, -74.9103775024414, 7.174360752105713, 0.06556752, -0.028460128, -0.017644882
530, 200777016, -140.0779266357422, -74.8867416381836, 6.935310363769531, 0.055993963, 0.0049680225, -0.06784344
531, 200793683, -140.06137084960938, -74.86201477050781, 6.716949462890625, -0.01934868, 0.055407967, -0.02849865
532, 200810350, -140.0540771484375, -74.84123992919922, 6.543152809143066, -0.17960562, 0.24116378, 0.02195263
533, 200827017, -139.9873046875, -74.83300018310547, 6.4118852615356445, -0.2922955, 0.2794985, 0.0707531
534, 200843684, -139.85040283203125, -74.83980560302734, 6.302465438842773, -0.20495221, -0.007206728, -0.02742672
535, 200860351, -139.71267700195312, -74.85260772705078, 6.196543216705322, -0.058578108, 0.064118266, -0.014606476
536, 200877018, -139.5950164794922, -74.86434936523438, 6.082306385040283, 0.20089065, 0.12690462, -0.10786629
537, 200893685, -139.55880737304688, -74.860107421875, 5.977500915527344, 0.22252184, 0.06582233, -0.17203331
538, 200910352, -139.57310485839844, -74.8406753540039, 5.85267972946167, 0.17623298, 0.028783998, -0.01390934
539, 200927019, -139.63478088378906, -74.81047821044922, 5.7230682373046875, 0.12826447, 0.04342432, -0.087739944
540, 200943686, -139.74024963378906, -74.77420806884766, 5.599368095397949, 0.2120454, 0.07145866, -0.107899666
541, 200960353, -139.87132263183594, -74.73164367675781, 5.472198963165283, 0.29811427, 0.08892977, -0.05044937
542, 200977020, -140.0657958984375, -74.68424987792969, 5.3784871101379395, 0.1750607, 0.09609113, -0.08748913
543, 200993687, -140.28594970703125, -74.63397979736328, 5.292142868041992, -0.009273888, 0.118796244, -0.091573715
544, 201010354, -140.50450134277344, -74.5816879272461, 5.205314636230469, -0.014629481, 0.09193714, 0.018974304
545, 201027021, -140.721923828125, -74.52445220947266, 5.095673561096191, 0.013637308, -0.12063039, -0.020443916
546, 201043688, -140.9824981689453, -74.46090698242188, 4.976869106292725, 0.045251314, -0.2678483, -0.110058784
547, 201060355, -141.27804565429688, -74.39137268066406, 4.848362445831299, 0.02910379, -0.23969395, 0.041166306
548, 201077022, -141.56298828125, -74.32544708251953, 4.7127909660339355, -0.0073281517, -0.005411919, 0.02930069
549, 201093689, -141.8027801513672, -74.2679672241211, 4.586024761199951, -0.10786528, 0.14217235, -0.0015945435
550, 201110356, -141.94784545898438, -74.23188781738281, 4.456376552581787, -0.30005267, 0.13263147, 0.046004295
551, 201127023, -142.05055236816406, -74.20806884765625, 4.3563995361328125, -0.41415286, 0.088215426, -0.04501438
552, 201143690, -142.15567016601562, -74.18580627441406, 4.310181140899658, -0.50281304, -0.028108096, 0.14758873
553, 201160357, -142.229736328125, -74.16848754882812, 4.257173538208008, -0.56560016, -0.07058651, 0.18130016
554, 201177024, -142.30775451660156, -74.15670013427734, 4.220414161682129, -0.44588935, -0.001963785, 0.024471283
555, 201193691, -142.3679656982422, -74.1527099609375, 4.203994274139404, -0.21621157, 0.12984158, 0.016838074
556, 201210358, -142.41722106933594, -74.15699768066406, 4.204865455627441, -0.018027438, 0.009868991, 0.113043785
557, 201227025, -142.45204162597656, -74.17694854736328, 4.210320472717285, -0.14767903, 0.026628217, 0.12906742
558, 201243692, -142.45188903808594, -74.20707702636719, 4.213813304901123, -0.22954418, -0.011326072, -0.014249802
559, 201260359, -142.45327758789062, -74.23229217529297, 4.2113542556762695, -0.21015526, -0.06389252, -0.06649494
560, 201277026, -142.46139526367188, -74.25101470947266, 4.181434154510498, -0.031412736, 0.18536109, -0.14564705
561, 201293693, -142.492431640625, -74.26944732666016, 4.154684066772461, 0.15194355, 0.35652307, -0.121171
562, 201310360, -142.51364135742188, -74.2922592163086, 4.130356788635254, 0.28517118, 0.37477368, 0.07011986
563, 201327027, -142.47515869140625, -74.33338928222656, 4.072531223297119, 0.1600507, 0.14102438, 0.2950964
564, 201343694, -142.2235565185547, -74.42459106445312, 3.833496570587158, 0.18233952, 0.38596797, 0.118634224
565, 201360361, -142.12484741210938, -74.49282836914062, 3.7739834785461426, 0.2959245, 0.23172583, -0.83406067
566, 201377028, -142.24017333984375, -74.51461791992188, 3.8730661869049072, 0.09297284, -0.21884835, -0.186697
567, 201393695, -142.28738403320312, -74.52327728271484, 3.852572202682495, 0.09428927, -0.27394775, 0.47331905
568, 201410362, -142.39036560058594, -74.52583312988281, 3.762526273727417, 0.12389401, -0.22775859, 0.28737164
569, 201427029, -142.5532989501953, -74.52327728271484, 3.6709649562835693, 0.16526894, -0.0016971339, -0.1936512
570, 201443696, -142.7899627685547, -74.5016098022461, 3.606415033340454, 0.14213273, -0.101026066, -0.44407654
571, 201460363, -143.15074157714844, -74.46578979492188, 3.5969552993774414, -0.015262471, 0.015982071, -0.33651257
572, 201477030, -143.57630920410156, -74.4194107055664, 3.608726978302002, 0.05182321, 0.26345673, -0.17694664
573, 201493697, -144.0949249267578, -74.3567886352539, 3.671286106109619, 0.15650903, 0.36611903, -0.010117531
574, 201510364, -144.66558837890625, -74.28240203857422, 3.790569305419922, 0.09495495, 0.34948206, 0.13337898
575, 201527031, -145.26144409179688, -74.21112823486328, 3.9828507900238037, 0.024094865, 0.31374982, 0.014003754
576, 201543698, -145.84629821777344, -74.14971923828125, 4.249232292175293, -0.056001507, 0.31212825, -0.038968086
577, 201560365, -146.3837127685547, -74.0988998413086, 4.558677673339844, -0.048281983, 0.22976461, -0.12493515
578, 201577032, -146.90020751953125, -74.0516586303711, 4.874530792236328, -0.11128632, 0.049659885, -0.13389969
579, 201593699, -147.42568969726562, -74.00440216064453, 5.183574199676514, -0.20818031, -0.06564553, 0.090247154
580, 201610366, -147.94000244140625, -73.95610046386719, 5.485174179077148, -0.25771883, -0.056520615, 0.2625332
581, 201627033, -148.36795043945312, -73.91795349121094, 5.721843242645264, -0.29133996, -0.27771774, 0.2509098
582, 201643700, -148.7349853515625, -73.90104675292969, 5.891340255737305, -0.21541737, -0.34711775, 0.12113762
583, 201660367, -149.12918090820312, -73.89761352539062, 6.017529010772705, -0.120835826, -0.41622114, 0.03360176
584, 201677034, -149.50294494628906, -73.91390228271484, 6.080252170562744, -0.06414358, -0.28941652, 0.02369976
585, 201693701, -149.84825134277344, -73.93729400634766, 6.063569068908691, -0.020079566, -0.18417713, 0.09457016
586, 201710368, -150.27020263671875, -73.9510498046875, 6.086781978607178, -0.021912986, 3.5359748E-4, -0.06194973
587, 201727035, -150.75738525390625, -73.95965576171875, 6.214457988739014, -0.22840062, 0.3311226, 0.081251144
588, 201743702, -151.24737548828125, -73.9679946899414, 6.461824417114258, -0.31883234, 0.32761905, 0.053399086
589, 201760369, -151.7050323486328, -73.98111724853516, 6.811390399932861, -0.42162976, 0.21516664, -0.061535835
590, 201777036, -152.1331024169922, -74.00288391113281, 7.222402572631836, -0.3182571, 0.07860604, -0.15062904
591, 201793703, -152.53890991210938, -74.02251434326172, 7.573688507080078, -0.14318763, -0.21099488, -0.13598251
592, 201810370, -152.99281311035156, -74.04872131347656, 7.806807994842529, -0.06302233, -0.41720772, -0.10876179
593, 201827037, -153.5439453125, -74.0738525390625, 7.941896438598633, 0.22877018, -0.1383667, -0.05863762
594, 201843704, -154.21340942382812, -74.08900451660156, 8.081562042236328, 0.48365912, 0.37142277, -0.18662357
595, 201860371, -154.9255828857422, -74.09410095214844, 8.253125190734863, 0.56462634, 0.4385037, -0.24809837
596, 201877038, -155.64784240722656, -74.10485076904297, 8.45454216003418, 0.19350511, 0.21593453, -0.04456806
597, 201893705, -156.34486389160156, -74.12916564941406, 8.667116165161133, -0.36752203, -0.024339778, -0.103209496
598, 201910372, -156.9999542236328, -74.1706771850586, 8.845707893371582, -0.6557851, -0.056689255, 0.010322571
599, 201927039, -157.6289520263672, -74.22238159179688, 9.02417278289795, -0.6968349, 0.02751992, -0.12111187
600, 201943706, -158.18545532226562, -74.2799301147461, 9.13941478729248, -0.4009465, -0.292384, -0.30473423
601, 201960373, -158.77676391601562, -74.34895324707031, 9.219239234924316, -0.2188845, -0.541739, -0.23642445
602, 201977040, -159.4006805419922, -74.42823028564453, 9.296111106872559, -0.20737928, -0.32442915, -0.18197155
603, 201993707, -159.9759063720703, -74.51277160644531, 9.403255462646484, -0.24574538, -0.04524651, -0.2833004
604, 202010374, -160.4395751953125, -74.60092163085938, 9.549906730651855, -0.08318239, -0.09091199, -0.14921093
605, 202027041, -160.77359008789062, -74.69679260253906, 9.670933723449707, 0.268301, -0.4081284, 0.14920998
606, 202043708, -161.08934020996094, -74.7960433959961, 9.71323013305664, 0.45760345, -0.39673695, 0.14618206
607, 202060375, -161.4481658935547, -74.87776947021484, 9.732186317443848, 0.50977117, 0.0697832, -0.005314827
608, 202077042, -161.73777770996094, -74.9374008178711, 9.744991302490234, 0.46216267, 0.0027904476, 0.31952667
609, 202093709, -161.9477081298828, -74.98268127441406, 9.764768600463867, 0.29097673, -0.30821598, 0.38593483
610, 202110376, -162.03616333007812, -75.02289581298828, 9.785259246826172, 0.03403725, -0.2826851, 0.072574615
611, 202127043, -161.97596740722656, -75.06683349609375, 9.77377700805664, -0.10189989, -0.30897492, -0.023247719
612, 202143710, -161.83102416992188, -75.10989379882812, 9.74284553527832, -0.07694034, -0.23557986, -0.11750698
613, 202160377, -161.61366271972656, -75.15410614013672, 9.705914497375488, 0.092539646, -0.16521743, 0.005964279
614, 202177044, -161.3777618408203, -75.18942260742188, 9.672952651977539, 0.22997925, -0.062278084, -0.019285202
615, 202193711, -161.1493377685547, -75.2098388671875, 9.653812408447266, 0.35156927, 0.052173734, -0.014868736
616, 202210378, -160.9342498779297, -75.21208190917969, 9.638161659240723, 0.49003035, 0.101770364, -0.060973167
617, 202227045, -160.7901611328125, -75.19478607177734, 9.64730167388916, 0.4401659, 0.13169953, -0.12364769
618, 202243712, -160.74169921875, -75.16841888427734, 9.69640064239502, 0.12988868, 0.264892, -0.035265923
619, 202260379, -160.66542053222656, -75.13408660888672, 9.723784446716309, -0.006093075, 0.2873898, 0.015651703
620, 202277046, -160.5354461669922, -75.09053039550781, 9.666091918945312, 0.07540559, -0.35431084, 0.031215668
621, 202293713, -160.4871826171875, -75.0406265258789, 9.572589874267578, 0.16615236, -0.527858, -0.055361748
622, 202310380, -160.4667205810547, -74.99353790283203, 9.524544715881348, 0.1919101, -0.1400217, -0.060175896
623, 202327047, -160.38870239257812, -74.9453125, 9.522954940795898, 0.1047109, 0.063647546, 0.025589943
624, 202343714, -160.28587341308594, -74.88819885253906, 9.591209411621094, -0.03191818, 0.37259755, -0.019751549
625, 202360381, -160.14976501464844, -74.82528686523438, 9.69478702545166, -0.07344538, 0.5644679, -0.12342548
626, 202377048, -159.93304443359375, -74.75575256347656, 9.72325325012207, 0.08811387, 0.3078539, -0.11371422
627, 202393715, -159.66700744628906, -74.67688751220703, 9.668451309204102, 0.23669757, -0.14024153, 0.09350109
628, 202410382, -159.3619384765625, -74.60636138916016, 9.574333190917969, 0.038823027, -0.43629348, 0.22877407
629, 202427049, -159.00563049316406, -74.55697631835938, 9.462766647338867, -0.25938737, -0.5871892, 0.12927055
630, 202443716, -158.6147003173828, -74.52208709716797, 9.325173377990723, -0.5559681, -0.5281256, 0.00733757
631, 202460383, -158.1641082763672, -74.49961853027344, 9.114742279052734, -0.49720126, -0.45705852, 0.04125023
632, 202477050, -157.69378662109375, -74.47925567626953, 8.835661888122559, -0.13959087, -0.34144533, 0.059681892
633, 202493717, -157.25238037109375, -74.45133209228516, 8.558428764343262, 0.22083722, -0.01580952, -0.0828495
634, 202510384, -156.841796875, -74.4145278930664, 8.334202766418457, 0.4567587, 0.16037379, -0.13610077
635, 202527051, -156.45584106445312, -74.36764526367188, 8.167149543762207, 0.5200753, 0.32631102, -0.047808647
636, 202543718, -156.07839965820312, -74.3055648803711, 8.041707992553711, 0.34798735, 0.32717055, -0.05811119
637, 202560385, -155.74900817871094, -74.23348999023438, 7.966578960418701, 0.14277983, 0.18344557, -0.037158012
638, 202577052, -155.48971557617188, -74.15570068359375, 7.904791355133057, 0.015363443, -0.057068333, -0.3294363
639, 202593719, -155.2908935546875, -74.0759048461914, 7.827975749969482, -0.010246141, -0.045950912, -0.101914406
640, 202610386, -155.02391052246094, -74.00942993164062, 7.648840427398682, -0.11046876, -0.12400365, 0.24546146
641, 202627053, -154.78305053710938, -73.95533752441406, 7.44744873046875, -0.20654514, -0.16734102, 0.14364338
642, 202643720, -154.55784606933594, -73.91413116455078, 7.287864685058594, -0.4637174, -0.019468872, -0.04954815
643, 202660387, -154.27743530273438, -73.89073944091797, 7.143766403198242, -0.5184784, 0.041524906, -0.09468365
644, 202677054, -153.92823791503906, -73.88642120361328, 7.016364574432373, -0.46224806, 0.09749289, -0.047195435
645, 202693721, -153.54019165039062, -73.8972396850586, 6.911056041717529, -0.3976976, 0.10267459, 0.07753849
646, 202710388, -153.13668823242188, -73.92401885986328, 6.842879295349121, -0.40058792, 0.06564989, 0.12091637
647, 202727055, -152.72572326660156, -73.96068572998047, 6.813155651092529, -0.3381165, 0.10413424, -0.04527569
648, 202743722, -152.29913330078125, -74.01078033447266, 6.792752265930176, -0.15581825, 0.04754791, -0.23062038
649, 202760389, -151.9072265625, -74.06290435791016, 6.751068115234375, 0.051180415, -0.17252395, -0.37353992
650, 202777056, -151.62933349609375, -74.1111831665039, 6.6893510818481445, 0.12789853, -0.19529533, -0.5029602
651, 202793723, -151.45787048339844, -74.15955352783203, 6.6141252517700195, 0.005882051, 0.00576127, -0.18899155
652, 202810390, -151.34036254882812, -74.20681762695312, 6.5598602294921875, -0.045185268, 0.21256228, 0.17403507
653, 202827057, -151.2203369140625, -74.25226593017578, 6.522683620452881, -0.08895888, 0.22765186, 0.38756657
654, 202843724, -151.0773162841797, -74.2958984375, 6.47717809677124, 0.0023391747, 0.044900734, 0.31038475
655, 202860391, -150.95318603515625, -74.3336181640625, 6.418331623077393, 0.12202539, -0.14259724, 0.0029649734
656, 202877058, -150.85205078125, -74.36155700683594, 6.324974536895752, 0.28587407, -0.1794761, -0.33941936
657, 202893725, -150.81736755371094, -74.3814926147461, 6.198767185211182, 0.35878655, -0.14986923, -0.31471062
658, 202910392, -150.86080932617188, -74.39415740966797, 6.060150146484375, 0.2828335, 0.055134166, 0.028923988
659, 202927059, -150.93017578125, -74.40258026123047, 5.930603504180908, 0.115232944, 0.24315271, 0.21852684
660, 202943726, -150.99180603027344, -74.40540313720703, 5.834448337554932, -0.032155972, 0.2863058, 0.08393383
661, 202960393, -151.0272979736328, -74.40497589111328, 5.763207912445068, -0.09202425, 0.19409898, -0.094955444
662, 202977060, -151.0790252685547, -74.40430450439453, 5.734574317932129, -0.096524656, 0.22810636, -0.1850605
663, 202993727, -151.1288299560547, -74.40837860107422, 5.747692584991455, -0.14394838, 0.21424443, -0.10514927
664, 203010394, -151.1512451171875, -74.42108154296875, 5.790412425994873, -0.1849637, 0.13631217, 0.06969929
665, 203027061, -151.12591552734375, -74.43911743164062, 5.83983850479126, -0.24487795, 0.10644682, 0.17157173
666, 203043728, -151.03152465820312, -74.4645004272461, 5.860927104949951, -0.23113927, -0.17212923, 0.0893631
667, 203060395, -150.91915893554688, -74.49134826660156, 5.854616165161133, -0.08718304, -0.34850007, -0.17015553
668, 203077062, -150.8192138671875, -74.52632141113281, 5.833183765411377, -0.0017090639, -0.3327118, -0.15279484
669, 203093729, -150.76608276367188, -74.57133483886719, 5.812708377838135, 0.06492914, -0.15079513, -0.08932972
670, 203110396, -150.72293090820312, -74.61546325683594, 5.787916660308838, 0.16582909, 0.095952995, 0.031463623
671, 203127063, -150.72227478027344, -74.64463806152344, 5.77595853805542, 0.36363688, 0.13527831, -0.14177418
672, 203143730, -150.790283203125, -74.65414428710938, 5.79935359954834, 0.2957145, 0.19837914, -0.13629723
673, 203160397, -150.8806915283203, -74.65910339355469, 5.857517719268799, 0.200246, 0.17478266, 0.002711296
674, 203177064, -150.95584106445312, -74.668212890625, 5.942122936248779, 0.0634275, -0.02099826, -0.048740387
675, 203193731, -151.0309295654297, -74.679931640625, 6.024414539337158, 0.04541473, -0.20938973, -0.16076088
676, 203210398, -151.156494140625, -74.68450164794922, 6.118100166320801, -0.057911564, -0.13713224, 0.003074646
677, 203227065, -151.24407958984375, -74.6915512084961, 6.16692590713501, -0.066174895, 0.008201361, 0.17280293
678, 203243732, -151.32037353515625, -74.69478607177734, 6.19040584564209, -0.07079502, 0.013309526, 0.14660168
679, 203260399, -151.40867614746094, -74.69632720947266, 6.218575477600098, -0.09826026, -0.01971049, -0.023652077
680, 203277066, -151.457275390625, -74.70462036132812, 6.205927848815918, -0.12342519, -0.19056569, -0.109270096
681, 203293733, -151.4965057373047, -74.71903991699219, 6.171921253204346, -0.05348176, -0.201104, -0.10895443
682, 203310400, -151.54701232910156, -74.73928833007812, 6.141621112823486, -0.0177545, -0.0070722853, 0.0157547
683, 203327067, -151.6085968017578, -74.76115417480469, 6.128464221954346, 0.004082101, 0.076134436, 0.13804245
684, 203343734, -151.64901733398438, -74.77883911132812, 6.100847244262695, 0.011466606, 0.12619922, 0.1652832
685, 203360401, -151.69749450683594, -74.7846450805664, 6.0857834815979, 0.07455836, 0.15251854, -0.1377182
686, 203377068, -151.74838256835938, -74.78704833984375, 6.086479187011719, 0.10022223, 0.15622506, -0.21801472
687, 203393735, -151.7942657470703, -74.79169464111328, 6.089406490325928, 0.08804689, -0.021082636, -0.07037163
688, 203410402, -151.86090087890625, -74.79425811767578, 6.097221374511719, 0.08036157, 0.0014004204, -0.027676582
689, 203427069, -151.9388427734375, -74.7909164428711, 6.110819339752197, 0.123543404, 0.04990564, -0.069405556
690, 203443736, -152.0307159423828, -74.77692413330078, 6.099722385406494, 0.23519832, -0.080551274, -0.024956703
691, 203460403, -152.14991760253906, -74.75962829589844, 6.08077335357666, 0.11170121, -0.054178424, 0.09008312
692, 203477070, -152.2669677734375, -74.748046875, 6.098048686981201, -0.22421096, -0.044861846, 0.09754467
693, 203493737, -152.3052978515625, -74.7494125366211, 6.13735818862915, -0.38951033, -0.080226846, 0.049370766
694, 203510404, -152.25389099121094, -74.76040649414062, 6.175240516662598, -0.37977558, -0.18340266, -0.04014969
695, 203527071, -152.15365600585938, -74.78143310546875, 6.177811622619629, -0.27983433, -0.27976793, -0.017110825
696, 203543738, -152.0409393310547, -74.8060531616211, 6.146883487701416, -0.051878054, -0.1641535, -0.04314804
697, 203560405, -151.94126892089844, -74.8263931274414, 6.125049591064453, 0.19372882, 0.09586001, -0.03784275
698, 203577072, -151.83799743652344, -74.84393310546875, 6.1009087562561035, 0.19626927, -0.050473474, -0.09026241
699, 203593739, -151.7518768310547, -74.8630142211914, 6.08807897567749, 0.052028984, -0.09540248, -0.023817062
700, 203610406, -151.65744018554688, -74.88341522216797, 6.103153228759766, -0.0742671, -0.0064520366, 0.027329445
701, 203627073, -151.4972381591797, -74.90807342529297, 6.115571975708008, -0.14221218, -0.042285074, 0.030258179
702, 203643740, -151.28428649902344, -74.94402313232422, 6.108114242553711, -0.048644688, -0.15789413, -0.08317852
703, 203660407, -151.1054229736328, -74.97714233398438, 6.121877193450928, -0.0075677857, 0.07447127, -0.15828228
704, 203677074, -150.92514038085938, -75.00582885742188, 6.1591291427612305, 0.06356166, 0.2792886, -0.04827881
705, 203693741, -150.73854064941406, -75.02812194824219, 6.216885566711426, 0.113775104, 0.17381564, -0.024129868
706, 203710408, -150.5509490966797, -75.04652404785156, 6.275247097015381, 0.1298686, 0.059792064, 0.050151825
707, 203727075, -150.38526916503906, -75.0630111694336, 6.33439826965332, 0.08942644, -0.093681544, 0.063118935
708, 203743742, -150.23143005371094, -75.07803344726562, 6.364706039428711, 0.04427976, -0.13893643, -0.0030946732
709, 203760409, -150.08424377441406, -75.08909606933594, 6.3431220054626465, 0.07461586, -0.14431617, -0.12557507
710, 203777076, -149.976806640625, -75.09274291992188, 6.2834320068359375, 0.17119718, -0.08076462, -0.031292915
711, 203793743, -149.89979553222656, -75.0848617553711, 6.19093132019043, 0.2407933, 0.088449106, 5.1116943E-4
712, 203810410, -149.74554443359375, -75.06298828125, 5.988345146179199, 0.41729563, 0.14665858, -0.08564854
713, 203827077, -149.61380004882812, -75.02519226074219, 5.7303080558776855, 0.48396075, -0.13065182, 0.0059947968
714, 203843744, -149.6430206298828, -74.9691162109375, 5.505246639251709, 0.26459068, 0.034065496, -0.07747269
715, 203860411, -149.73313903808594, -74.9153060913086, 5.40255880355835, -0.0060868724, 0.39613056, -0.09202385
716, 203877078, -149.75802612304688, -74.87223052978516, 5.409318923950195, -0.26978517, 0.20484427, 0.052394867
717, 203893745, -149.73269653320312, -74.85032653808594, 5.516053676605225, -0.5835206, -0.013859033, 0.07639885
718, 203910412, -149.6334991455078, -74.8510971069336, 5.6410603523254395, -0.6037296, -0.24877405, 0.040634155
719, 203927079, -149.48782348632812, -74.8655014038086, 5.704687118530273, -0.49835175, -0.4259824, 0.06250477
720, 203943746, -149.3436737060547, -74.88502502441406, 5.711343765258789, -0.30837634, -0.17884098, 0.022016525
721, 203960413, -149.2187957763672, -74.9134750366211, 5.709651947021484, 0.034621596, 0.025534566, -0.09099579
722, 203977080, -149.16246032714844, -74.93550109863281, 5.7270989418029785, 0.32201546, 0.25102797, -0.25280094
723, 203993747, -149.1536102294922, -74.94611358642578, 5.787228584289551, 0.34894094, 0.28280792, -0.16042519
724, 204010414, -149.15672302246094, -74.95049285888672, 5.871985912322998, 0.3460441, 0.20399357, 0.044772148
725, 204027081, -149.20941162109375, -74.9453353881836, 5.98317813873291, 0.27372313, 0.11235382, -0.022846222
726, 204043748, -149.27755737304688, -74.9345703125, 6.088432312011719, 0.10410552, 0.12642217, -0.02391243
727, 204060415, -149.33628845214844, -74.91889953613281, 6.158878803253174, 0.05407544, 0.10138257, -0.050883293
728, 204077082, -149.35092163085938, -74.89350128173828, 6.123260974884033, 0.1466749, -0.2133249, -0.13953114
729, 204093749, -149.36746215820312, -74.86190795898438, 5.962502956390381, 0.07676991, -0.6268735, 0.044326782
730, 204110416, -149.43399047851562, -74.8326416015625, 5.770214080810547, -0.15489618, -0.46927226, 0.11944008
731, 204127083, -149.44664001464844, -74.81993865966797, 5.600647926330566, -0.4045545, -0.22711542, 0.11368084
732, 204143750, -149.37420654296875, -74.83245849609375, 5.491542816162109, -0.53751045, -0.10185966, 0.010473251
733, 204160417, -149.1430206298828, -74.85982513427734, 5.389178276062012, -0.51748574, 0.09640829, 0.076812744
734, 204177084, -148.81265258789062, -74.89611053466797, 5.327371597290039, -0.42253453, 0.1445693, 0.03691864
735, 204193751, -148.43177795410156, -74.93965148925781, 5.306605815887451, -0.26132733, 0.062195722, 0.006289482
736, 204210418, -148.02638244628906, -74.99198150634766, 5.310166358947754, -0.053497743, -0.18549205, 0.07331371
737, 204227085, -147.58273315429688, -75.06050109863281, 5.276825904846191, -0.065915085, -0.3736247, 0.057257652
738, 204243752, -147.08450317382812, -75.13481140136719, 5.131946563720703, 0.014968327, -0.6112066, -0.080527306
739, 204260419, -146.6152801513672, -75.20524597167969, 4.89260196685791, 0.14704345, -0.50819033, -0.13365364
740, 204277086, -146.2238006591797, -75.2725830078125, 4.599573612213135, 0.27957973, -0.09240875, -0.17884445
741, 204293753, -145.9205780029297, -75.32884216308594, 4.32609224319458, 0.36921674, 0.40938723, -0.14146996
742, 204310420, -145.6876983642578, -75.37158203125, 4.117732048034668, 0.33309567, 0.5861989, -0.11631966
743, 204327087, -145.46701049804688, -75.40839385986328, 3.9366888999938965, 0.08146075, 0.35362008, -0.07728863
744, 204343754, -145.30113220214844, -75.44615173339844, 3.839419364929199, -0.12683003, 0.2083228, -0.010011673
745, 204360421, -145.12342834472656, -75.50020599365234, 3.7766566276550293, -0.2753218, -0.07336164, 0.06807995
746, 204377088, -144.9189453125, -75.56455993652344, 3.6924023628234863, -0.2887642, -0.42527208, 0.03699398
747, 204393755, -144.69488525390625, -75.6357650756836, 3.519407272338867, -0.15986292, -0.5086458, 0.034708977
748, 204410422, -144.49789428710938, -75.7062759399414, 3.2482426166534424, -0.0859547, -0.28994313, 0.027747154
749, 204427089, -144.3018341064453, -75.7754898071289, 2.9024901390075684, -0.19428645, 0.049332887, -0.015975952
750, 204443756, -144.0994873046875, -75.84721374511719, 2.5460028648376465, -0.100517355, 0.32941508, -0.15838814
751, 204460423, -143.9561767578125, -75.9151611328125, 2.264176607131958, 0.13964072, 0.510287, -0.11955929
752, 204477090, -143.86595153808594, -75.9777603149414, 2.064250946044922, 0.41962656, 0.7322633, -0.022083282
753, 204493757, -143.7499542236328, -76.03996276855469, 1.8777697086334229, 0.32893696, 0.4383602, 0.1217289
754, 204510424, -143.55189514160156, -76.110595703125, 1.628934621810913, 0.011803887, -0.032845117, 0.0799284
755, 204527091, -143.4365234375, -76.17958068847656, 1.4069483280181885, -0.2199663, -0.09023285, -0.10294628
756, 204543758, -143.40835571289062, -76.24785614013672, 1.316091537475586, -0.23279282, 0.45265052, -0.12386322
757, 204560425, -143.45867919921875, -76.30587005615234, 1.404565691947937, 0.36193225, 0.9918421, -0.03452587
758, 204577092, -143.5236053466797, -76.35662841796875, 1.5660899877548218, 0.37905952, 0.6846983, 0.18573856
759, 204593759, -143.56153869628906, -76.40997314453125, 1.7184940576553345, 0.180277, -0.12666725, -0.1738596
760, 204610426, -143.5173797607422, -76.47686767578125, 1.7752357721328735, -0.28214252, -0.7585911, -0.29108047
761, 204627093, -143.49827575683594, -76.55884552001953, 1.7918094396591187, -0.08919522, -0.66950625, -0.11102009
762, 204643760, -143.6363983154297, -76.60752868652344, 1.8838590383529663, 0.581699, 0.65763927, -0.07244682
763, 204660427, -143.9600830078125, -76.60165405273438, 2.1359941959381104, 1.0695388, 1.3711647, -0.034402847
764, 204677094, -144.2527618408203, -76.5891342163086, 2.3266313076019287, 0.2312731, 0.36220643, 0.296422
765, 204693761, -144.3592987060547, -76.64472198486328, 2.3074588775634766, -1.3555864, -1.1188232, 0.028780937
766, 204710428, -144.2762451171875, -76.76914978027344, 2.1794445514678955, -1.657618, -1.3936828, -0.4996271
767, 204727095, -144.14132690429688, -76.91808319091797, 2.0280447006225586, -0.95858985, -0.7332747, -0.13297272
768, 204743762, -144.0824432373047, -77.03689575195312, 1.874145269393921, 0.5103672, 0.7698205, 0.23448944
769, 204760429, -144.36180114746094, -77.06373596191406, 1.9858170747756958, 1.897301, 2.7603152, 0.19337463
770, 204777096, -145.18992614746094, -77.00023651123047, 2.6328818798065186, 1.8933586, 3.1487565, 0.48912334
771, 204793763, -146.11744689941406, -76.93486785888672, 3.6242268085479736, 0.25012195, 1.5305408, 0.267457
772, 204810430, -146.6634521484375, -76.97408294677734, 4.607929229736328, -1.6426558, -1.0177158, -0.50597763
773, 204827097, -146.6592559814453, -77.16205596923828, 5.270457744598389, -2.4573135, -2.9326134, -1.0871944
774, 204843764, -146.32723999023438, -77.38294219970703, 5.473925590515137, -0.8867718, -3.056715, -0.88273335
775, 204860431, -146.21336364746094, -77.5321044921875, 5.265728950500488, 1.0426311, -1.3616147, 0.42585373
776, 204877098, -147.01329040527344, -77.53262329101562, 5.298086643218994, 2.0149953, 1.4980209, 1.3036251
777, 204893765, -148.29339599609375, -77.47635650634766, 5.783077716827393, 0.6398777, 2.1637151, 1.0690622
778, 204910432, -149.22203063964844, -77.47312927246094, 6.339359760284424, -0.65579647, 2.2660482, -0.6961689
779, 204927099, -150.1477508544922, -77.4540786743164, 7.35543155670166, -0.57540184, 1.8343091, -1.4587936
780, 204943766, -151.23226928710938, -77.36377716064453, 8.785469055175781, 1.0889448, 1.158868, -0.22794724
781, 204960433, -152.87062072753906, -77.15717315673828, 10.49842643737793, 2.1841383, 0.34738037, 0.64064217
782, 204977100, -154.88372802734375, -76.91841125488281, 12.13056755065918, 1.2761534, 0.19982785, -0.21779156
783, 204993767, -156.94793701171875, -76.74919891357422, 13.855977058410645, -1.1537448, 1.2115288, -1.1643772
784, 205010434, -158.52867126464844, -76.66456604003906, 15.67575740814209, -1.6491385, 1.0553942, -0.8054638
785, 205027101, -159.724853515625, -76.55076599121094, 17.387338638305664, -0.4467314, -0.4185185, -0.11759281
786, 205043768, -161.18280029296875, -76.27523040771484, 19.091642379760742, 1.504322, -0.339214, 1.1265268
787, 205060435, -162.6468505859375, -75.96267700195312, 20.474287033081055, 1.3724542, -0.9025621, 1.1983366
788, 205077102, -163.94178771972656, -75.82098388671875, 21.504770278930664, -1.2675834, 0.6699629, -0.8851805
789, 205093769, -165.1680450439453, -75.87596130371094, 22.802846908569336, -3.3930619, 0.55857396, -1.4319057
790, 205110436, -165.8296661376953, -76.0445785522461, 24.048419952392578, -3.0392013, -0.9111474, 0.0073537827
791, 205127103, -166.378173828125, -76.14662170410156, 25.20598602294922, -0.7643715, -2.2945595, 1.7348757
792, 205143770, -167.28150939941406, -76.11140441894531, 26.24028968811035, 1.0375837, -1.7409652, 1.6721334
793, 205160437, -168.25088500976562, -76.21157836914062, 27.06103515625, -0.7465025, -0.6463824, -0.18384647
794, 205177104, -169.0096893310547, -76.51884460449219, 27.86122703552246, -1.911207, -0.6233973, -1.1486845
795, 205193771, -169.38739013671875, -76.82673645019531, 28.454269409179688, -0.88488156, -0.8115553, 0.17818642
796, 205210438, -169.76596069335938, -77.04104614257812, 29.02578353881836, 0.31727436, -0.8770128, 0.8560791
797, 205227105, -170.2280731201172, -77.13967895507812, 29.570941925048828, 1.6649628, -0.5292136, 0.7518892
798, 205243772, -170.6397247314453, -77.35149383544922, 30.048856735229492, -0.0037200379, 0.35124257, -1.1002531
799, 205260439, -171.01968383789062, -77.76722717285156, 30.698575973510742, -0.87598586, 0.030975431, -1.0772715
800, 205277106, -171.24452209472656, -78.15455627441406, 31.255998611450195, -0.22505447, -0.3717366, 0.85629654
801, 205293773, -171.7126007080078, -78.3510971069336, 31.989601135253906, 0.029429002, 0.10563446, 1.1522522
802, 205310440, -172.4093780517578, -78.380615234375, 32.93457794189453, 1.0415437, 0.5715823, 0.4158821
803, 205327107, -173.14361572265625, -78.45182800292969, 33.853267669677734, 1.1487806, 0.46339422, -0.9526758
804, 205343774, -173.9153594970703, -78.6421127319336, 34.81877517700195, 1.175626, 0.30493236, -0.452981
805, 205360441, -174.4063720703125, -78.75629425048828, 35.57554244995117, 2.2942555, -0.2040927, 0.91248417
806, 205377108, -174.4475860595703, -78.74329376220703, 35.71982192993164, 2.2499452, -0.24971996, 0.7696495
807, 205393775, -174.4627227783203, -78.62346649169922, 35.64814758300781, 0.75410014, -0.29419848, 0.0651083
808, 205410442, -174.5713348388672, -78.47246551513672, 35.628509521484375, -0.46359286, -0.3113046, 0.14004612
809, 205427109, -174.5575408935547, -78.34805297851562, 35.559295654296875, -1.0926864, -0.41032442, 0.027004242
810, 205443776, -174.3112335205078, -78.30494689941406, 35.42585754394531, -0.6794202, -0.8091827, 0.21092796
811, 205460443, -173.55482482910156, -78.37008666992188, 34.803977966308594, 0.441776, -1.4484379, 0.6538954
812, 205477110, -172.48280334472656, -78.55917358398438, 33.75104904174805, 0.06347091, -1.9867882, -0.21454525
813, 205493777, -171.3692626953125, -78.75106811523438, 32.60325622558594, -0.55855966, -2.3967018, -1.0062094
814, 205510444, -170.10264587402344, -78.92854309082031, 31.31251335144043, -0.96178544, -1.4381458, -0.99712086
815, 205527111, -168.90000915527344, -79.14554595947266, 30.147817611694336, -0.99910873, -0.18632174, -0.9504938
816, 205543778, -168.02896118164062, -79.42445373535156, 29.296239852905273, -0.60651344, 0.9461416, -0.96423817
817, 205560445, -167.38180541992188, -79.7331771850586, 28.622652053833008, -0.17500372, 1.464532, -0.16121769
818, 205577112, -166.8522491455078, -79.99712371826172, 28.040143966674805, 0.15187398, 1.5232002, 0.84716225
819, 205593779, -166.52520751953125, -80.20345306396484, 27.716720581054688, 0.18655486, 1.8412535, 1.0337896
820, 205610446, -166.49636840820312, -80.3845443725586, 27.79502296447754, 0.07891119, 1.4948986, -0.13207245
821, 205627113, -166.7174530029297, -80.55706024169922, 28.128908157348633, -0.11784307, 0.9230056, -0.58576393
822, 205643780, -166.88290405273438, -80.71784210205078, 28.43688201904297, 0.009058086, -0.055258103, -0.34887695
823, 205660447, -166.8100128173828, -80.86406707763672, 28.44598960876465, 0.33351824, -0.72937006, -0.025426865
824, 205677114, -166.4929962158203, -80.99640655517578, 28.108932495117188, 0.44681722, -0.7966726, 0.13887787
825, 205693781, -166.05674743652344, -81.13421630859375, 27.59969139099121, 0.54980975, -0.5547659, 0.28443813
826, 205710448, -165.59921264648438, -81.27273559570312, 27.04743003845215, 0.4867185, -0.36180678, -0.005302429
827, 205727115, -165.17990112304688, -81.37236022949219, 26.511327743530273, 0.42885083, 0.18444501, 0.07976532
828, 205743782, -164.58836364746094, -81.42652130126953, 25.83348274230957, 0.38115168, 0.42285433, 0.008867264
829, 205760449, -163.7686767578125, -81.46066284179688, 24.903261184692383, 0.08887853, 0.15830506, -0.26678848
830, 205777116, -162.93865966796875, -81.4870834350586, 23.94890785217285, -0.18312064, 0.23093404, -0.17470646
831, 205793783, -162.3689422607422, -81.51885986328125, 23.316986083984375, -0.23000371, 0.30982092, 0.041499138
832, 205810450, -162.0203094482422, -81.56585693359375, 22.92008399963379, -0.021605432, -0.035166413, 0.04477787
833, 205827117, -161.69366455078125, -81.61740112304688, 22.4760684967041, 0.016530069, 0.058047656, -0.004055023
834, 205843784, -161.38455200195312, -81.67491912841797, 22.03159523010254, -0.049697436, 0.4334712, 0.018530846
835, 205860451, -161.15792846679688, -81.73573303222656, 21.718822479248047, -0.08185251, 0.799895, -0.16951084
836, 205877118, -160.97007751464844, -81.79874420166016, 21.493850708007812, -0.06212291, 0.74272215, -0.138443
837, 205893785, -160.78150939941406, -81.86209106445312, 21.30478286743164, -0.07412634, 0.53462374, -0.111722946
838, 205910452, -160.5826873779297, -81.93311309814453, 21.12355613708496, -0.09695869, 0.20241468, -0.086523056
839, 205927119, -160.31639099121094, -82.01333618164062, 20.873170852661133, -0.16621228, -0.1557445, -0.10426521
840, 205943786, -159.9575958251953, -82.12092590332031, 20.516754150390625, -0.33773634, -0.3654411, -0.34879303
841, 205960453, -159.67881774902344, -82.24129486083984, 20.22899627685547, -0.39731562, -0.44850668, -0.45062447
842, 205977120, -159.65269470214844, -82.3447036743164, 20.17412757873535, -0.32855076, -0.11899617, -0.012343407
843, 205993787, -159.77952575683594, -82.42249298095703, 20.31927490234375, 0.085426204, 0.36628821, 0.42787647
844, 206010454, -159.7845458984375, -82.47311401367188, 20.371660232543945, 0.49952537, 0.29040167, 0.6817808
845, 206027121, -159.46035766601562, -82.4972915649414, 20.0427303314209, 0.7039866, 0.117296696, 0.24470043
846, 206043788, -159.04925537109375, -82.495361328125, 19.562732696533203, 0.49512672, 0.5988958, -0.4492607
847, 206060455, -159.02996826171875, -82.48931884765625, 19.541257858276367, 0.23998581, 0.9461366, -0.8423605
848, 206077122, -159.4117431640625, -82.50106048583984, 20.007734298706055, 0.33655855, 0.66198915, -0.32052898
849, 206093789, -159.77487182617188, -82.5167007446289, 20.457639694213867, 0.5512218, 0.10339933, 0.47210026
850, 206110456, -160.01373291015625, -82.50309753417969, 20.702171325683594, 0.39945292, -0.17450617, 0.6487293
851, 206127123, -160.15618896484375, -82.45919799804688, 20.839242935180664, 0.13259056, -0.14217536, 0.24066639
852, 206143790, -160.28517150878906, -82.39571380615234, 20.981189727783203, -0.025576252, -0.25011322, -0.11601162
853, 206160457, -160.47085571289062, -82.31977844238281, 21.162551879882812, -0.03793149, -0.117798924, -0.13875866
854, 206177124, -160.65725708007812, -82.25370025634766, 21.354835510253906, -0.040724788, 0.0862066, -0.106744766
855, 206193791, -160.72659301757812, -82.21762084960938, 21.428075790405273, -0.09736951, -0.112560004, -0.3086195
856, 206210458, -160.67039489746094, -82.2033920288086, 21.327903747558594, -0.24494438, -0.23739982, -0.31264877
857, 206227125, -160.5699005126953, -82.20164489746094, 21.193605422973633, -0.28987625, -0.107170776, -0.052365303
858, 206243792, -160.5243682861328, -82.19409942626953, 21.13426971435547, -0.20364948, 7.543562E-4, 0.11000252
859, 206260459, -160.4606170654297, -82.17782592773438, 21.070972442626953, -0.11091109, 0.08063878, 8.392334E-4
860, 206277126, -160.279052734375, -82.17484283447266, 20.891284942626953, -0.0033586733, -0.086255774, 0.010765076
861, 206293793, -159.9916534423828, -82.18865203857422, 20.580921173095703, 0.0032007615, -0.19088487, -0.10680103
862, 206310460, -159.7335205078125, -82.20653533935547, 20.29282569885254, 0.031029856, 0.017925851, -0.16552734
863, 206327127, -159.55291748046875, -82.22418975830078, 20.102725982666016, 0.14068335, 0.2000289, -0.12379265
864, 206343794, -159.44541931152344, -82.2367935180664, 19.98373794555664, 0.15513693, 0.2418066, -0.04632187
865, 206360461, -159.3253936767578, -82.2459487915039, 19.85397720336914, 0.16640233, 0.21825817, 0.16135979
866, 206377128, -159.1525421142578, -82.25048065185547, 19.66849708557129, 0.18149246, 0.10260306, 0.23375511
867, 206393795, -158.93234252929688, -82.25157165527344, 19.43653678894043, 0.15448551, 0.09452251, -0.028374672
868, 206410462, -158.71498107910156, -82.25981140136719, 19.228548049926758, 0.20556593, 0.13735966, -0.21569443
869, 206427129, -158.5830841064453, -82.28169250488281, 19.112655639648438, 0.17075422, 0.19022785, -0.2341795
870, 206443796, -158.50924682617188, -82.32154083251953, 19.039705276489258, 0.14097348, 0.064977676, -0.07075119
871, 206460463, -158.4231414794922, -82.36843872070312, 18.93083381652832, 0.041896217, 0.09892829, 0.09603214
872, 206477130, -158.35609436035156, -82.38892364501953, 18.84442710876465, -0.12353729, 0.06973727, 0.5616665
873, 206493797, -158.36703491210938, -82.37351989746094, 18.863651275634766, -0.098245285, 0.25778463, 0.3500185
874, 206510464, -158.25083923339844, -82.35124969482422, 18.793846130371094, -0.1922008, 0.28537843, -0.16943455
875, 206527131, -158.03257751464844, -82.32880401611328, 18.612491607666016, -0.16362411, 0.044623245, -0.2352438
876, 206543798, -157.89523315429688, -82.31781005859375, 18.472993850708008, -0.25697485, 0.17188683, -0.20448017
877, 206560465, -157.94223022460938, -82.3218765258789, 18.541391372680664, -0.28552428, 0.30198756, 0.05926895
878, 206577132, -158.04318237304688, -82.31936645507812, 18.69856834411621, -0.19643565, 0.3030144, 0.0845232
879, 206593799, -158.14080810546875, -82.31555938720703, 18.862951278686523, -0.14845993, 0.09406319, -0.17256641
880, 206610466, -158.2577362060547, -82.32499694824219, 19.011394500732422, -0.16241948, 0.03215927, -0.20682716
881, 206627133, -158.3338623046875, -82.342529296875, 19.129016876220703, -0.14024796, 0.037051294, -0.034805298
882, 206643800, -158.40701293945312, -82.34629821777344, 19.250225067138672, 0.04701774, -0.11426787, 0.07635689
883, 206660467, -158.5937042236328, -82.30426025390625, 19.46648406982422, 0.15355301, -0.076431595, 0.036125183
884, 206677134, -158.87359619140625, -82.20744323730469, 19.753530502319336, 0.08784534, 0.04227289, -0.22841644
885, 206693801, -159.13534545898438, -82.06425476074219, 20.0433349609375, 0.16721474, 0.016881822, -0.46940994
886, 206710468, -159.36085510253906, -81.92022705078125, 20.328706741333008, 0.27583158, 0.20991711, -0.4033146
887, 206727135, -159.52696228027344, -81.82598114013672, 20.546306610107422, 0.39031622, 0.17037621, 0.04728985
888, 206743802, -159.52139282226562, -81.79651641845703, 20.509977340698242, 0.5124366, 0.0363308, 0.6005573
889, 206760469, -159.42416381835938, -81.76095581054688, 20.351306915283203, 0.48025548, -0.20730324, 0.48202705
890, 206777136, -159.392333984375, -81.67984771728516, 20.270973205566406, 0.5998073, -0.3399679, 0.14806366
891, 206793803, -159.24676513671875, -81.53265380859375, 20.085403442382812, 0.32522908, -0.19992061, -0.17951488
892, 206810470, -159.04318237304688, -81.29523468017578, 19.796152114868164, -0.25103468, -0.025063848, -0.7844639
893, 206827137, -158.95436096191406, -81.06591796875, 19.6407527923584, -0.72126424, 0.22661677, -0.41203308
894, 206843804, -158.99807739257812, -80.9292221069336, 19.68478012084961, -0.9118909, 0.12709193, 0.3750391
895, 206860471, -159.3832244873047, -80.89305877685547, 20.056732177734375, -0.8217624, -0.50107235, 0.27732944
896, 206877138, -160.13575744628906, -80.92305755615234, 20.720561981201172, -0.99990064, -0.34822, -0.179039
897, 206893805, -160.9503631591797, -81.04347229003906, 21.52596664428711, -1.55147, 0.22096278, -0.9278965
898, 206910472, -161.46261596679688, -81.32217407226562, 22.23760986328125, -1.1979818, 0.20125464, -0.84953976
899, 206927139, -161.515869140625, -81.59445190429688, 22.506689071655273, -8.3783834E-4, -0.55982035, -0.0064229965
900, 206943806, -161.1997528076172, -81.75836181640625, 22.17220687866211, 0.7055666, -0.36437005, 0.9360571
901, 206960473, -160.4423065185547, -81.85396575927734, 21.376733779907227, 0.90957576, -0.049465653, 0.75462055
902, 206977140, -159.72679138183594, -81.85951232910156, 20.54483413696289, 1.2338961, -0.40828687, -0.4632082
903, 206993807, -159.60008239746094, -81.81266021728516, 20.201412200927734, 1.254359, 0.20345457, -0.35295868
904, 207010474, -159.86351013183594, -81.75697326660156, 20.309566497802734, 1.2516149, 0.71009886, 0.120224
905, 207027141, -160.02293395996094, -81.66085052490234, 20.366792678833008, 1.551516, 0.12930538, 0.71198845
906, 207043808, -160.03150939941406, -81.43406677246094, 20.146345138549805, 1.2771086, -0.18220821, 0.5826187
907, 207060475, -160.28662109375, -81.06092834472656, 20.159818649291992, -0.027228292, -0.10318923, -0.860096
908, 207077142, -160.58323669433594, -80.696044921875, 20.338340759277344, -1.1655, 0.3609218, -2.0501266
909, 207093809, -160.15660095214844, -80.6139144897461, 19.91505241394043, -0.48611525, 0.015848856, -0.50282764
910, 207110476, -159.20965576171875, -80.69436645507812, 18.72275161743164, 0.10616676, -0.72630984, 1.2487001
911, 207127143, -159.47598266601562, -80.58934020996094, 18.65638542175293, -0.1922232, 0.19775845, 1.4454641
912, 207143810, -160.59754943847656, -80.40665435791016, 19.633039474487305, -0.5328049, 1.9743146, 0.8316746
913, 207160477, -161.7088623046875, -80.22835540771484, 20.6962833404541, -0.3876317, 2.9430866, -1.6272364
914, 207177144, -162.8814697265625, -80.17418670654297, 21.8297176361084, -0.23129791, 2.9713125, -3.8210597
915, 207193811, -164.06747436523438, -80.2297592163086, 23.285823822021484, -0.3624134, 2.1177282, -0.5073662
916, 207210478, -165.98902893066406, -80.14200592041016, 25.507545471191406, 0.6478267, 0.8458811, 3.4691963
917, 207227145, -168.27894592285156, -79.86338806152344, 27.925552368164062, 1.4775262, 0.40606135, 0.8214617
918, 207243812, -169.8191680908203, -79.51943969726562, 29.499998092651367, 1.7972041, 0.32445955, -1.7872019
919, 207260479, -170.5981903076172, -79.16485595703125, 30.28499412536621, 2.0936162, 0.46750763, -1.2218962
920, 207277146, -171.20187377929688, -78.76314544677734, 30.881378173828125, 2.5515535, -0.9875819, 0.660676
921, 207293813, -171.95913696289062, -78.25638580322266, 31.466415405273438, 1.4747013, -1.6363266, -0.04129219
922, 207310480, -172.61358642578125, -77.68965911865234, 31.863140106201172, 0.5193677, -0.5210399, -0.0355196
923, 207327147, -173.15625, -77.13761138916016, 32.212791442871094, -0.43818715, 0.7389561, -0.3843069
924, 207343814, -173.57879638671875, -76.65264129638672, 32.5749626159668, -1.2587123, 0.89176005, -0.052991867
925, 207360481, -173.7146759033203, -76.2138442993164, 32.76498794555664, -0.7716686, -0.034471396, 0.56848145
926, 207377148, -173.75970458984375, -75.75534057617188, 32.866798400878906, -0.21468952, -0.9096037, 0.13128471
927, 207393815, -173.839599609375, -75.26990509033203, 32.91327667236328, 0.27581424, -0.8300658, 0.028312683
928, 207410482, -173.9487762451172, -74.82670593261719, 32.992767333984375, 0.072527915, -0.69156665, 0.0690546
929, 207427149, -173.96127319335938, -74.45086669921875, 33.02186584472656, -0.77155644, -0.9007223, -0.051555634
930, 207443816, -173.8171844482422, -74.1420669555664, 32.963958740234375, -1.4167914, -0.81863153, 0.13812351
931, 207460483, -173.59580993652344, -73.84712982177734, 32.84590148925781, -1.2611091, -0.77320385, 0.60918903
932, 207477150, -173.27603149414062, -73.53800964355469, 32.60662841796875, -0.27539623, -0.7616424, 0.5927496
933, 207493817, -172.95187377929688, -73.2548599243164, 32.2443733215332, 0.07560683, -0.8633187, -0.05634308
934, 207510484, -172.6369171142578, -73.0595474243164, 31.87778663635254, -0.07258902, -0.8565945, 0.04741001
935, 207527151, -172.14073181152344, -72.9679183959961, 31.401548385620117, -0.18302672, -0.8734418, 0.43589878
936, 207543818, -171.64625549316406, -72.91138458251953, 30.887126922607422, -0.46270183, -0.83941543, 0.48964882
937, 207560485, -171.29762268066406, -72.7926025390625, 30.469730377197266, -0.8016308, -0.23061374, 0.13817215
938, 207577152, -170.93304443359375, -72.67447662353516, 30.121158599853516, -1.1161253, 0.13647087, -0.037369728
939, 207593819, -170.6137237548828, -72.60790252685547, 29.86172103881836, -1.2823555, -0.58644277, 0.108397484
940, 207610486, -170.32078552246094, -72.5802001953125, 29.56593894958496, -1.2954088, -1.1476952, 0.10303593
941, 207627153, -169.96240234375, -72.57715606689453, 29.19095802307129, -0.893219, -0.93242854, 0.42084408
942, 207643820, -169.50692749023438, -72.59256744384766, 28.763446807861328, -0.037134442, -0.8791378, 0.66590405
943, 207660487, -168.90733337402344, -72.6249008178711, 28.227310180664062, 0.52901673, -0.7150175, 0.31083584
944, 207677154, -168.23785400390625, -72.69327545166016, 27.619417190551758, 0.50536895, -0.54852426, -0.16155148
945, 207693821, -167.49542236328125, -72.80946350097656, 26.899442672729492, 0.0052615507, -0.64443153, -0.039657593
946, 207710488, -166.58518981933594, -72.93417358398438, 25.906686782836914, -0.27852127, -0.6516289, 0.3985653
947, 207727155, -165.685302734375, -73.03644561767578, 24.779804229736328, -0.49066615, -0.21386893, 0.06972599
948, 207743822, -165.01470947265625, -73.09590148925781, 23.7801570892334, -0.51992077, 0.23406355, -0.43084908
949, 207760489, -164.48475646972656, -73.11849975585938, 22.922561645507812, -0.31631157, 0.99113804, -0.4343586
950, 207777156, -164.05087280273438, -73.12323760986328, 22.247783660888672, -0.027671294, 1.4306002, -0.015406609
951, 207793823, -163.55918884277344, -73.17455291748047, 21.645078659057617, -0.12765534, 1.5025873, 0.16356182
952, 207810490, -162.92501831054688, -73.28807067871094, 21.113309860229492, -0.5803241, 0.8076998, -0.10397148
953, 207827157, -162.30247497558594, -73.42545318603516, 20.745620727539062, -0.43430293, -0.13111247, -0.72220135
954, 207843824, -161.6779327392578, -73.556640625, 20.373544692993164, 0.13165125, -0.4227875, -0.19365978
955, 207860491, -161.06231689453125, -73.63663482666016, 19.888029098510742, 0.4344036, -0.97838044, 0.6045151
956, 207877158, -160.6437225341797, -73.6467514038086, 19.334903717041016, 0.49059635, -0.543097, -0.06505585
957, 207893825, -160.4054412841797, -73.64126586914062, 18.803600311279297, 0.18539628, 0.18919724, -0.38523388
958, 207910492, -160.16763305664062, -73.65892028808594, 18.321605682373047, -0.023895714, 0.31241232, -0.09388733
959, 207927159, -159.67587280273438, -73.73422241210938, 17.695173263549805, -0.62531614, 0.03671312, 0.37908268
960, 207943826, -158.94625854492188, -73.87921142578125, 16.92486000061035, -1.0758429, -0.56833166, 0.17885494
961, 207960493, -158.0545196533203, -74.10945892333984, 15.957014083862305, -1.2901222, -0.6929871, 0.47019577
962, 207977160, -157.1446075439453, -74.3587646484375, 15.01463794708252, -0.42294872, -0.44870013, 0.42591667
963, 207993827, -156.401123046875, -74.53125, 14.13537311553955, 0.1827271, -0.14907196, 0.107518196
964, 208010494, -155.73341369628906, -74.69559478759766, 13.221189498901367, 0.30088297, 0.61721617, -0.06838608
965, 208027161, -155.19451904296875, -74.87163543701172, 12.313447952270508, 0.16818333, 0.6106916, -0.32352352
966, 208043828, -154.8799285888672, -75.00979614257812, 11.63085651397705, 0.29379052, 0.9923249, -0.64570904
967, 208060495, -154.57461547851562, -75.12456512451172, 11.176858901977539, 0.098121576, 1.0775079, -0.3928833
968, 208077162, -154.1424560546875, -75.23892974853516, 10.872183799743652, 0.2868937, 0.6859394, 0.02865982
969, 208093829, -153.4878692626953, -75.36087799072266, 10.472900390625, 0.2896107, -0.36190224, 0.2662754
970, 208110496, -152.79896545410156, -75.4712905883789, 9.90832805633545, 0.28988662, -1.0722027, 0.07101154
971, 208127163, -152.27713012695312, -75.55516052246094, 9.248518943786621, 0.35370997, -0.8352043, -0.324008
972, 208143830, -151.9197235107422, -75.61029052734375, 8.552301406860352, 0.5575088, 0.032221068, -0.2945881
973, 208160497, -151.69326782226562, -75.64765167236328, 7.908071517944336, 0.8043781, 0.9214172, -0.26186657
974, 208177164, -151.56324768066406, -75.65601348876953, 7.426375865936279, 0.89066064, 1.3511907, -0.23551178
975, 208193831, -151.47642517089844, -75.63427734375, 7.127051830291748, 0.68318814, 1.1093694, -0.35699368
976, 208210498, -151.3334503173828, -75.62236785888672, 6.884644508361816, -0.4183506, 0.5141614, 0.00892067
977, 208227165, -151.20233154296875, -75.61886596679688, 6.787811756134033, -1.0369867, 0.12636517, -0.029439926
978, 208243832, -150.91419982910156, -75.62464904785156, 6.74397611618042, -1.1025248, -0.18440343, 0.08304405
979, 208260499, -150.44851684570312, -75.65472412109375, 6.644996166229248, -0.34314367, -0.46442875, 0.25460243
980, 208277166, -150.00830078125, -75.69345092773438, 6.525606155395508, 0.5917056, -0.22636074, -0.09537506
981, 208293833, -149.72984313964844, -75.70929718017578, 6.442122936248779, 1.1560133, 0.48173612, -0.30376244
982, 208310500, -149.64035034179688, -75.68445587158203, 6.4650559425354, 1.1810285, 1.1580149, -0.2860031
983, 208327167, -149.62850952148438, -75.62332153320312, 6.616224765777588, 0.87034684, 1.4095675, -0.21313477
984, 208343834, -149.61094665527344, -75.54009246826172, 6.886584758758545, 0.49317473, 1.0554836, -0.21381569
985, 208360501, -149.54678344726562, -75.45403289794922, 7.197629451751709, 0.095895104, 0.11130621, -0.055098534
986, 208377168, -149.4736328125, -75.37996673583984, 7.427515029907227, -0.19141495, -0.6762236, 0.07590771
987, 208393835, -149.4989471435547, -75.30821990966797, 7.571671962738037, -0.32575437, -0.6340108, -0.08455658
988, 208410502, -149.5660400390625, -75.24691009521484, 7.595085144042969, -0.2790648, -0.36871278, 0.16673183
989, 208427169, -149.68426513671875, -75.19586181640625, 7.531473159790039, -0.19330378, -0.2446317, 0.15393543
990, 208443836, -149.85546875, -75.14842987060547, 7.4593915939331055, -0.10608026, -0.11191584, -0.027077675
991, 208460503, -150.0635223388672, -75.10503387451172, 7.420046806335449, -0.066053726, 0.19072573, -0.080905914
992, 208477170, -150.24522399902344, -75.07307434082031, 7.404180526733398, -0.047107313, 0.33473715, 0.021564484
993, 208493837, -150.41397094726562, -75.04576110839844, 7.436460971832275, -0.13430262, 0.43019718, 0.045269012
994, 208510504, -150.5541229248047, -75.02043914794922, 7.567600250244141, -0.13503346, 0.52037585, -0.0070438385
995, 208527171, -150.63656616210938, -75.00221252441406, 7.766871929168701, -0.16759409, 0.3046401, -0.0010957718
996, 208543838, -150.6718292236328, -74.99791717529297, 7.988636493682861, -0.26074547, -0.16841131, -0.034395218
997, 208560505, -150.66307067871094, -75.00961303710938, 8.144805908203125, -0.3114276, -0.5121863, -0.058008194
998, 208577172, -150.6658477783203, -75.02845001220703, 8.228865623474121, -0.42500713, -0.6871633, -0.07222557
999, 208593839, -150.65098571777344, -75.05742645263672, 8.217060089111328, -0.2793536, -0.6824368, -0.08923626
1000, 208610506, -150.6734619140625, -75.09192657470703, 8.180142402648926, -0.0026945325, -0.21934523, -0.046869278
1001, 208627173, -150.70945739746094, -75.11872100830078, 8.15449333190918, 0.45549375, 0.45520055, -0.14121819
1002, 208643840, -150.72616577148438, -75.13578033447266, 8.115331649780273, 0.6138882, 0.38086978, -0.0349741
1003, 208660507, -150.75784301757812, -75.14189147949219, 8.070135116577148, 0.41644916, -0.013112052, -0.08461475
1004, 208677174, -150.75491333007812, -75.13597869873047, 8.00656795501709, 0.14036222, -0.25172153, -0.30155087
1005, 208693841, -150.67039489746094, -75.13927459716797, 7.882627487182617, 0.10869172, -0.5079496, -0.3941288
1006, 208710508, -150.5778350830078, -75.15553283691406, 7.705185890197754, 0.058656562, -0.34443638, -0.17913818
1007, 208727175, -150.59556579589844, -75.16121673583984, 7.613150119781494, -0.06808965, 0.06566017, -0.23842621
1008, 208743842, -150.656005859375, -75.15433502197266, 7.612294673919678, -0.13300596, 0.36487105, 0.09358406
1009, 208760509, -150.77023315429688, -75.12147521972656, 7.723872661590576, 0.32830253, 0.52592343, -0.09111881
1010, 208777176, -150.9438934326172, -75.06500244140625, 7.913901329040527, 0.583338, 0.44422162, -0.09626579
1011, 208793843, -151.11099243164062, -75.01762390136719, 8.100990295410156, 0.19229236, -0.12263977, 0.25204468
1012, 208810510, -151.03106689453125, -75.01126861572266, 8.075149536132812, -0.63805246, -0.7213752, 0.5525999
1013, 208827177, -150.82711791992188, -75.0288314819336, 7.944454193115234, -0.9134665, -0.83419895, 0.28693676
1014, 208843844, -150.52195739746094, -75.06006622314453, 7.764005184173584, -0.64479375, -0.26682886, 0.023694038
1015, 208860511, -150.22776794433594, -75.08858489990234, 7.6038055419921875, 0.25039744, 0.19029133, -0.10454655
1016, 208877178, -150.05540466308594, -75.09111022949219, 7.5024027824401855, 1.0353353, 0.82463306, -0.16608906
1017, 208893845, -149.9131317138672, -75.07848358154297, 7.440330982208252, 0.55159265, 0.35641387, 0.11585522
1018, 208910512, -149.66566467285156, -75.08218383789062, 7.324151039123535, -0.25373182, -0.67595357, -0.04231167
1019, 208927179, -149.37283325195312, -75.08824920654297, 7.148702621459961, -0.4181421, -0.77966326, -0.38226795
1020, 208943846, -149.17185974121094, -75.08837890625, 7.013670444488525, 0.037434675, -0.014406639, -0.12573624
1021, 208960513, -148.9977569580078, -75.09298706054688, 6.831130504608154, -0.26271656, 0.33067614, 0.29300594
1022, 208977180, -148.9134063720703, -75.07971954345703, 6.778502464294434, -0.09645316, 0.96709186, -0.08593845
1023, 208993847, -148.69235229492188, -75.08146667480469, 6.7648468017578125, -0.18937421, 0.7754557, 0.08494377
1024, 209010514, -148.52919006347656, -75.08061981201172, 6.91534423828125, 0.11600228, 0.51172554, 0.026270866
1025, 209027181, -148.51284790039062, -75.08470916748047, 7.249767780303955, -0.2735563, 1.0394691, 0.0041189194
1026, 209043848, -148.69178771972656, -75.09002685546875, 7.847729682922363, -0.791384, 1.297542, 0.017787933
1027, 209060515, -148.86801147460938, -75.118896484375, 8.575139045715332, -0.933192, 1.1678702, -0.11197281
1028, 209077182, -148.99595642089844, -75.15970611572266, 9.364265441894531, -0.444772, 0.50274634, -0.24263954
1029, 209093849, -149.1082000732422, -75.21339416503906, 10.160773277282715, 0.03845043, -0.1271905, 0.02393055
1030, 209110516, -149.1040802001953, -75.31824493408203, 10.78896427154541, -0.22291322, -1.6715776, 0.24775028
1031, 209127183, -148.98890686035156, -75.42182922363281, 11.161820411682129, 0.37239337, -2.2323322, -0.2787447
1032, 209143850, -148.80609130859375, -75.48975372314453, 11.139848709106445, 0.7324153, -2.255036, -0.09039688
1033, 209160517, -148.84266662597656, -75.48570251464844, 10.962296485900879, 1.5891829, -0.70001966, 0.081560135
1034, 209177184, -149.2189483642578, -75.3685302734375, 10.886934280395508, 1.8285922, 1.1458215, 0.41051674
1035, 209193851, -149.57760620117188, -75.20932006835938, 10.831450462341309, 1.0894662, 1.3950452, 0.038409233
1036, 209210518, -149.9910888671875, -75.08142852783203, 10.894283294677734, -0.26853836, 1.6698827, -0.80917835
1037, 209227185, -150.51502990722656, -75.0302963256836, 11.323152542114258, -1.103655, 1.9903239, -0.90920544
1038, 209243852, -150.79766845703125, -75.03409576416016, 11.901568412780762, -0.87432915, 0.8351877, -0.024851799
1039, 209260519, -150.91094970703125, -74.9735107421875, 12.410257339477539, 0.7685889, -0.2439654, 0.16867352
1040, 209277186, -151.32395935058594, -74.7644271850586, 12.857870101928711, 2.2778833, -0.49881533, -0.09265232
1041, 209293853, -152.32354736328125, -74.46910095214844, 13.425825119018555, 1.7725908, 0.44397575, -0.06614685
1042, 209310520, -153.59356689453125, -74.19017028808594, 14.222825050354004, 0.41277757, 1.5161266, -0.28505516
1043, 209327187, -154.66270446777344, -73.97856140136719, 15.142536163330078, -1.0256726, 1.581107, -0.41043854
1044, 209343854, -155.1864471435547, -73.86280059814453, 15.97202205657959, -1.1372272, -0.05547547, -0.22129726
1045, 209360521, -155.44134521484375, -73.7681884765625, 16.589244842529297, -0.49905553, -1.1801311, 0.13125896
1046, 209377188, -155.88711547851562, -73.59153747558594, 17.113237380981445, 0.34061447, -0.6975636, 0.38912296
1047, 209393855, -156.72842407226562, -73.3133544921875, 17.73346710205078, 0.3299601, 0.06459413, 0.37690735
1048, 209410522, -157.70236206054688, -73.01473236083984, 18.49053192138672, -0.3815477, 1.2124369, 0.22554111
1049, 209427189, -158.6536407470703, -72.75898742675781, 19.495361328125, -0.58453834, 1.1220896, -0.40417385
1050, 209443856, -159.56617736816406, -72.54273223876953, 20.618545532226562, -0.9177065, 0.75094205, -0.48457623
1051, 209460523, -160.45965576171875, -72.34576416015625, 21.780868530273438, -0.8120422, 0.42957336, -0.03406048
1052, 209477190, -161.22010803222656, -72.2031021118164, 22.802120208740234, -0.86670226, -0.37774047, 0.07444668
1053, 209493857, -161.82827758789062, -72.13322448730469, 23.587682723999023, -0.42950645, -1.0448165, 0.11654854
1054, 209510524, -162.3898468017578, -72.06517028808594, 24.123594284057617, 0.1253908, -1.2152286, 0.22317219
1055, 209527191, -163.05630493164062, -71.89836883544922, 24.627090454101562, 0.6068893, -0.5782185, 0.14953804
1056, 209543858, -163.665283203125, -71.70329284667969, 25.113540649414062, 0.50430435, -0.39785752, -0.20445538
1057, 209560525, -164.1851806640625, -71.57805633544922, 25.582801818847656, -0.20051397, -0.663093, -0.26386166
1058, 209577192, -164.72682189941406, -71.44558715820312, 26.035846710205078, -0.3307291, -0.4486399, 0.18950176
1059, 209593859, -165.1861114501953, -71.2971420288086, 26.474063873291016, -0.56964415, 0.5565278, 0.24144363
1060, 209610526, -165.63882446289062, -71.14189910888672, 26.941020965576172, -0.5740351, 0.50998837, 0.092552185
1061, 209627193, -166.34014892578125, -70.9922866821289, 27.59186553955078, -0.9277128, 0.8466436, -0.36753464
1062, 209643860, -167.12109375, -70.95055389404297, 28.460439682006836, -1.2022444, 0.63613755, -0.11694908
1063, 209660527, -167.80307006835938, -70.97107696533203, 29.36566734313965, -0.20210788, -1.1207255, 0.5752945
1064, 209677194, -168.4810791015625, -70.92859649658203, 30.13448715209961, 0.39735648, -1.4873085, 0.605196
