sep=,
DeviceTag:,tibiaLeft,,,,,,,,,,,,,,,,,
FirmwareVersion:,1.6.0,,,,,,,,,,,,,,,,,
AppVersion:,1.1,,,,,,,,,,,,,,,,,
SyncStatus:,Synced,,,,,,,,,,,,,,,,,
OutputRate:,60Hz,,,,,,,,,,,,,,,,,
FilterProfile:,General,,,,,,,,,,,,,,,,,
Measurement Mode:,Sensor fusion Mode - Complete (Euler),,,,,,,,,,,,,,,,,
StartTime:,2021-03-10 17:34:59.834 +0800,,,,,,,,,,,,,,,,,
© Xsens Technologies B. V. 2005-2021,,,,,,,,,,,,,,,,,,,

PacketCounter,SampleTimeFine,Euler_X,Euler_Y,Euler_Z,FreeAcc_X,FreeAcc_Y,FreeAcc_Z
1, 1208006806, -165.32998657226562, -79.01475524902344, 0.4900937080383301, -0.082196176, -0.115235515, -0.05026436
2, 1208023473, -165.2764892578125, -79.04215240478516, 0.4202289283275604, -0.0566195, -0.16416931, -0.070547104
3, 1208040140, -165.18540954589844, -79.07133483886719, 0.2982889711856842, -0.03763565, -0.08923721, 0.0415287
4, 1208056807, -165.08009338378906, -79.1064453125, 0.17491112649440765, -0.048476413, 0.004582351, 0.024840355
5, 1208073474, -164.97010803222656, -79.14385986328125, 0.07654550671577454, -0.0864944, 0.041848443, -0.018874168
6, 1208090141, -164.8330841064453, -79.18489837646484, -0.029133886098861694, -0.11957499, 0.012155696, -0.0063991547
7, 1208106808, -164.69970703125, -79.23444366455078, -0.1172386109828949, -0.11416934, 9.7049325E-4, -0.0028085709
8, 1208123475, -164.55548095703125, -79.28813934326172, -0.209839329123497, -0.081012875, -0.01562836, -0.028306007
9, 1208140142, -164.4031982421875, -79.34656524658203, -0.31375637650489807, -0.036050934, -0.030220013, -0.01725483
10, 1208156809, -164.24563598632812, -79.40508270263672, -0.43276867270469666, 0.027595371, -0.039572354, 0.021632195
11, 1208173476, -164.09031677246094, -79.46350860595703, -0.5641674995422363, 0.051719405, -0.0010663244, 0.017630577
12, 1208190143, -163.95040893554688, -79.52037811279297, -0.6927857995033264, 0.038475595, 0.032985818, -0.037849426
13, 1208206810, -163.82647705078125, -79.5748519897461, -0.8131635785102844, 0.053027947, 0.036334097, -0.058786392
14, 1208223477, -163.70359802246094, -79.62396240234375, -0.9345349073410034, 0.05284632, 0.033309855, -5.1498413E-5
15, 1208240144, -163.5874786376953, -79.66931915283203, -1.0474082231521606, 0.049584296, 0.0137140285, 0.009512901
16, 1208256811, -163.4884796142578, -79.71084594726562, -1.1383885145187378, 0.08617278, 0.017954629, -0.031921387
17, 1208273478, -163.40853881835938, -79.74504852294922, -1.202656865119934, 0.201499, 0.097824804, -0.055603027
18, 1208290145, -163.37725830078125, -79.76750946044922, -1.201968789100647, 0.24020043, 0.121127985, -0.10539913
19, 1208306812, -163.38656616210938, -79.77513122558594, -1.1551270484924316, 0.29479954, 0.09402995, -0.0815382
20, 1208323479, -163.4475555419922, -79.77037811279297, -1.0710742473602295, 0.22907846, 0.04143215, -0.038228035
21, 1208340146, -163.5564727783203, -79.75328063964844, -0.9565371870994568, 0.16294837, 0.03578554, -0.05567074
22, 1208356813, -163.6957550048828, -79.72785949707031, -0.8285344243049622, 0.110740945, -0.034674123, -0.058221817
23, 1208373480, -163.84228515625, -79.69796752929688, -0.7183123230934143, 0.07938991, -0.054186974, -0.050359726
24, 1208390147, -163.99668884277344, -79.6673583984375, -0.6269299983978271, 0.020320548, -0.0513611, -0.04406166
25, 1208406814, -164.15708923339844, -79.63739776611328, -0.5350484848022461, -0.03826834, -0.010656092, -0.048804283
26, 1208423481, -164.29185485839844, -79.6090316772461, -0.4553261995315552, -0.06219417, -0.03278488, 0.028999329
27, 1208440148, -164.38540649414062, -79.58683013916016, -0.400458425283432, -0.09110544, -0.054580078, 0.05117035
28, 1208456815, -164.4497833251953, -79.56957244873047, -0.37251436710357666, -0.11639652, -0.10421571, 0.0595026
29, 1208473482, -164.4730224609375, -79.56031036376953, -0.3814931809902191, -0.15345193, -0.06549578, 0.0065994263
30, 1208490149, -164.4571533203125, -79.55857849121094, -0.40844452381134033, -0.1668782, -0.003569502, -0.026565552
31, 1208506816, -164.41065979003906, -79.55895233154297, -0.4480702877044678, -0.09833138, -0.016923396, -0.014883041
32, 1208523483, -164.34413146972656, -79.56163024902344, -0.5186446309089661, -0.029171675, -0.09057292, 0.035107613
33, 1208540150, -164.28562927246094, -79.56900787353516, -0.6106916069984436, 0.01090387, -0.09933413, -0.029485703
34, 1208556817, -164.23114013671875, -79.57534790039062, -0.7176527380943298, 0.060759705, -0.09003163, -0.09900665
35, 1208573484, -164.15493774414062, -79.57200622558594, -0.8540091514587402, 0.09251856, -0.04541722, -0.061709404
36, 1208590151, -164.09133911132812, -79.5626449584961, -0.9785272479057312, 0.123746775, 0.077289216, -0.024151802
37, 1208606818, -164.0598907470703, -79.5454330444336, -1.0477221012115479, 0.25110283, 0.16390786, -0.017279625
38, 1208623485, -164.0751953125, -79.51275634765625, -1.042824387550354, 0.30668828, 0.18697116, -0.020292282
39, 1208640152, -164.1470184326172, -79.46339416503906, -0.9828398823738098, 0.33412337, 0.12744954, -0.047733307
40, 1208656819, -164.29595947265625, -79.4034423828125, -0.8654712438583374, 0.23762423, 0.059732273, -0.08305359
41, 1208673486, -164.49183654785156, -79.33892059326172, -0.7179591655731201, 0.077329636, 0.032923795, -0.09660816
42, 1208690153, -164.69400024414062, -79.27165222167969, -0.54803466796875, -0.065078124, 0.0789607, -0.03821373
43, 1208706820, -164.86643981933594, -79.20761108398438, -0.36633235216140747, -0.16869809, 0.037892375, 0.055994034
44, 1208723487, -165.02024841308594, -79.15161895751953, -0.1722763180732727, -0.24755217, -0.0015915799, 0.058015823
45, 1208740154, -165.1660919189453, -79.11031341552734, 0.016680508852005005, -0.23639065, -0.08912138, 0.019618988
46, 1208756821, -165.24801635742188, -79.08088684082031, 0.12064801901578903, -0.23345883, -0.21887696, 0.04643631
47, 1208773488, -165.2752685546875, -79.06594848632812, 0.14598023891448975, -0.22838959, -0.18652156, 0.05979824
48, 1208790155, -165.2585906982422, -79.0658950805664, 0.11639796197414398, -0.23683338, -0.1093308, 0.04457283
49, 1208806822, -165.2023468017578, -79.07919311523438, 0.06410975754261017, -0.18911557, -0.032969445, -0.013941765
50, 1208823489, -165.0902862548828, -79.10154724121094, -0.011433543637394905, -0.14440805, 9.7518705E-4, 0.025647163
51, 1208840156, -164.94369506835938, -79.13410949707031, -0.09583896398544312, -0.10018994, -0.01384266, 0.04497528
52, 1208856823, -164.8091278076172, -79.17167663574219, -0.1645807921886444, -0.050789315, -0.028279418, -0.006617546
53, 1208873490, -164.67713928222656, -79.2134017944336, -0.2558731436729431, -0.009762068, -0.1131964, -0.053020477
54, 1208890157, -164.5302734375, -79.25308990478516, -0.3941843509674072, 0.06752644, -0.06142723, -0.027555466
55, 1208906824, -164.4014129638672, -79.28606414794922, -0.5516026616096497, 0.060402818, -0.044707898, -0.0048913956
56, 1208923491, -164.24273681640625, -79.3118896484375, -0.7798841595649719, 0.049953554, -0.15055023, 0.093027115
57, 1208940158, -164.0192413330078, -79.32550048828125, -1.0680021047592163, 0.06044504, -0.14588232, 0.13485909
58, 1208956825, -163.78211975097656, -79.33781433105469, -1.3452279567718506, -0.02259718, 8.617542E-4, 0.021607399
59, 1208973492, -163.58187866210938, -79.35870361328125, -1.5257173776626587, -0.005986934, 0.13124827, -0.14473152
60, 1208990159, -163.40780639648438, -79.38053131103516, -1.627488613128662, 0.0042094197, 0.15481491, -0.15577602
61, 1209006826, -163.22666931152344, -79.40008544921875, -1.7123433351516724, -0.019567393, 0.015815776, -0.03623104
62, 1209023493, -163.0636444091797, -79.42186737060547, -1.8009834289550781, -0.028861243, -0.055701494, -0.0019664764
63, 1209040160, -162.95956420898438, -79.44776916503906, -1.8767225742340088, -0.003249522, -0.060805134, -0.07216835
64, 1209056827, -162.85069274902344, -79.47051239013672, -1.967948079109192, 0.04362628, -0.016091648, -0.11654854
65, 1209073494, -162.73529052734375, -79.48863220214844, -2.061311960220337, 0.099279255, 0.04601243, -0.037649155
66, 1209090161, -162.6667022705078, -79.50129699707031, -2.0956716537475586, 0.14171493, 0.116319045, -0.01510334
67, 1209106828, -162.65943908691406, -79.50827026367188, -2.0491275787353516, 0.18640418, 0.10191319, -0.081088066
68, 1209123495, -162.66944885253906, -79.50643920898438, -1.9840338230133057, 0.15351096, 0.051098023, -0.08438969
69, 1209140162, -162.71031188964844, -79.49517059326172, -1.90323007106781, 0.1123781, 0.007833403, -0.034939766
70, 1209156829, -162.76974487304688, -79.47783660888672, -1.8276644945144653, 0.11268021, -0.011147932, 0.0051088333
71, 1209173496, -162.8510284423828, -79.45600128173828, -1.7564904689788818, 0.11053855, -0.009878267, 0.01011467
72, 1209190163, -162.93923950195312, -79.4339828491211, -1.6960805654525757, 0.07303414, 0.013050195, -0.024188995
73, 1209206830, -163.00479125976562, -79.41089630126953, -1.656447410583496, 0.032759693, -0.0040731323, -0.0016317368
74, 1209223497, -163.0615997314453, -79.38763427734375, -1.6056760549545288, -0.0056027086, 0.033412896, 0.029442787
75, 1209240164, -163.12217712402344, -79.36614227294922, -1.5197877883911133, -0.022373982, 0.035993855, 0.003186226
76, 1209256831, -163.12747192382812, -79.3488540649414, -1.4561024904251099, -0.09371408, -0.04500372, -0.030873299
77, 1209273498, -163.1228485107422, -79.33325958251953, -1.3795069456100464, -0.07953207, 0.02985971, -0.024409294
78, 1209290165, -163.11338806152344, -79.32161712646484, -1.2936989068984985, -0.06780266, -0.085992865, -0.033857346
79, 1209306832, -163.0836944580078, -79.3165512084961, -1.2520248889923096, -0.09963208, -0.15161331, -0.015024185
80, 1209323499, -163.04603576660156, -79.31472778320312, -1.2459065914154053, -0.10627255, -0.064042605, 0.008419037
81, 1209340166, -163.02145385742188, -79.31784057617188, -1.2413607835769653, -0.082715064, -0.031542484, -0.0125284195
82, 1209356833, -163.02513122558594, -79.32341766357422, -1.2192394733428955, -0.0441685, 0.008362235, -0.08620262
83, 1209373500, -163.05316162109375, -79.33162689208984, -1.177963137626648, -0.01172528, 0.034646966, -0.06064415
84, 1209390167, -163.0990447998047, -79.34037780761719, -1.115377426147461, -0.028619004, 0.024793398, -0.013776779
85, 1209406834, -163.1615753173828, -79.35164642333984, -1.0447890758514404, -0.013210195, -0.019128574, 0.01864338
86, 1209423501, -163.2233428955078, -79.36546325683594, -0.9890952706336975, 0.00532762, -0.05180086, 0.010955811
87, 1209440168, -163.30247497558594, -79.37979125976562, -0.9223268628120422, 0.00836623, -0.019833254, -0.043621063
88, 1209456835, -163.37998962402344, -79.3909912109375, -0.8506335616111755, -0.03411458, 0.019916905, -0.022454262
89, 1209473502, -163.45945739746094, -79.40420532226562, -0.7643525004386902, -0.061974764, 0.028212197, -0.036076546
90, 1209490169, -163.5478973388672, -79.41996765136719, -0.658175528049469, -0.0815191, -0.017300406, -0.03667736
91, 1209506836, -163.604736328125, -79.43929290771484, -0.5821015238761902, -0.06584487, -0.07590807, 0.016168594
92, 1209523503, -163.63438415527344, -79.46240234375, -0.5466824769973755, -0.063543424, -0.115372695, 0.08823967
93, 1209540170, -163.65045166015625, -79.48760223388672, -0.5338734984397888, -0.012912273, -0.05856805, 0.020251274
94, 1209556837, -163.66334533691406, -79.51549530029297, -0.5279946327209473, -0.022097679, 0.012827241, -0.04950428
95, 1209573504, -163.6637725830078, -79.54399108886719, -0.5346471071243286, -0.059531286, -0.0020620746, -0.041894913
96, 1209590171, -163.65272521972656, -79.57241821289062, -0.5374491214752197, -0.035421453, 0.030481858, -0.036810875
97, 1209606838, -163.670166015625, -79.60132598876953, -0.5128985643386841, 0.0014260475, -0.017554037, -0.006088257
98, 1209623505, -163.7096710205078, -79.62936401367188, -0.49182575941085815, 0.011971046, -0.09394998, -0.020525932
99, 1209640172, -163.7506561279297, -79.65567779541016, -0.4948883056640625, 0.087392144, -0.07043223, -0.030659676
100, 1209656839, -163.7887725830078, -79.678466796875, -0.5115064978599548, 0.11533104, 0.013304106, -0.031294823
101, 1209673506, -163.8475341796875, -79.69428253173828, -0.5012954473495483, 0.125767, 0.077586435, 0.0069732666
102, 1209690173, -163.94180297851562, -79.70510864257812, -0.44969308376312256, 0.10449457, 0.08691128, -0.036128998
103, 1209706840, -164.04685974121094, -79.71311950683594, -0.37833648920059204, 0.09398701, 0.05489674, -0.06359005
104, 1209723507, -164.14944458007812, -79.7154769897461, -0.30357852578163147, 0.035538476, 0.009019139, -0.0089149475
105, 1209740174, -164.24708557128906, -79.71517944335938, -0.23491254448890686, 0.026597356, -0.041581847, 0.03494358
106, 1209756841, -164.35569763183594, -79.71585083007812, -0.15663230419158936, -0.0076219733, -0.018075883, -0.01560688
107, 1209773508, -164.45106506347656, -79.71691131591797, -0.08625591546297073, -0.030940054, 0.009245725, -0.035173416
108, 1209790175, -164.52024841308594, -79.71691131591797, -0.02489866502583027, -0.04066207, 0.045890953, -0.012251854
109, 1209806842, -164.5655517578125, -79.72119140625, 0.03085642121732235, -0.071310386, 0.0029837303, 0.03473568
110, 1209823509, -164.60816955566406, -79.72840881347656, 0.08477666974067688, -0.054522794, -0.072169095, -0.009813309
111, 1209840176, -164.63006591796875, -79.73680114746094, 0.11022276431322098, -0.031825047, -0.098036416, -0.034101486
112, 1209856843, -164.64047241210938, -79.74588775634766, 0.11959975957870483, -0.019994888, -0.060280047, -0.011060715
113, 1209873510, -164.63136291503906, -79.75552368164062, 0.11762744188308716, 0.020983137, 0.007585024, 0.018418312
114, 1209890177, -164.63206481933594, -79.76632690429688, 0.127052903175354, 0.031580348, 0.02674014, -0.0067663193
115, 1209906844, -164.66131591796875, -79.7756118774414, 0.15908215939998627, 0.03701441, 0.0044906544, -0.052368164
116, 1209923511, -164.6978302001953, -79.78205871582031, 0.18822768330574036, 0.042176194, 0.016421217, -0.020915031
117, 1209940178, -164.73374938964844, -79.78826141357422, 0.19768771529197693, 0.014341869, 0.016668255, 0.02240181
118, 1209956845, -164.7759246826172, -79.79489135742188, 0.1964108645915985, 0.03013746, -0.0025018363, -0.018117905
119, 1209973512, -164.84214782714844, -79.79731750488281, 0.207688108086586, 0.04032502, -0.008209184, -0.022415161
120, 1209990179, -164.9189453125, -79.79706573486328, 0.22199343144893646, 0.021412931, -7.650849E-4, -0.045576096
121, 1210006846, -164.98838806152344, -79.79708862304688, 0.24056310951709747, 0.006702546, 0.0035420097, -0.027600288
122, 1210023513, -165.0480499267578, -79.7945785522461, 0.27605217695236206, 0.01626739, 0.021084983, -0.009093285
123, 1210040180, -165.1092529296875, -79.78966522216797, 0.3236275315284729, 0.027456373, -0.01252019, 0.0020751953
124, 1210056847, -165.1734619140625, -79.78327178955078, 0.3638117015361786, 0.03837278, -0.03773793, -0.011792183
125, 1210073514, -165.24339294433594, -79.77763366699219, 0.4026051163673401, 0.043989807, -0.028635418, -0.0541687
126, 1210090181, -165.3107147216797, -79.76802825927734, 0.4346342086791992, 0.021236546, -0.03363356, -0.05089283
127, 1210106848, -165.38272094726562, -79.7574691772461, 0.46922892332077026, -0.01912414, -0.003293743, -0.0034046173
128, 1210123515, -165.45960998535156, -79.75032043457031, 0.5277146100997925, -0.036210615, 0.016449157, 0.00962162
129, 1210140182, -165.52793884277344, -79.74566650390625, 0.5965847969055176, -0.05024736, -0.006476064, -0.023917198
130, 1210156849, -165.58657836914062, -79.74018859863281, 0.6680611371994019, -0.035578094, 0.011250748, -0.027101517
131, 1210173516, -165.63958740234375, -79.73741149902344, 0.7352690696716309, -0.019267067, -0.024006354, -0.012009621
132, 1210190183, -165.69912719726562, -79.73695373535156, 0.8015499711036682, -0.020727035, -0.0312318, -0.014505386
133, 1210206850, -165.75262451171875, -79.73875427246094, 0.8549383878707886, -0.042285018, 0.025443764, -0.01732254
134, 1210223517, -165.8014678955078, -79.73999786376953, 0.9188944101333618, -0.022789605, 0.058799107, 0.0034675598
135, 1210240184, -165.84506225585938, -79.7431869506836, 0.9991312026977539, 0.010233967, -0.03700721, 0.0025758743
136, 1210256851, -165.8612518310547, -79.7479476928711, 1.0439904928207397, 0.025989542, -0.07000867, 0.0073127747
137, 1210273518, -165.85963439941406, -79.75316619873047, 1.0624209642410278, 0.0022779603, -0.06610552, -0.008403778
138, 1210290185, -165.83474731445312, -79.75984954833984, 1.053736925125122, -0.005065097, -0.04637061, -0.0020923615
139, 1210306852, -165.79556274414062, -79.76488494873047, 1.030372977256775, -0.010864071, -0.016252242, 0.0024967194
140, 1210323519, -165.7593994140625, -79.77104949951172, 1.0110141038894653, 0.0026899085, -0.0010755444, -0.020954132
141, 1210340186, -165.72506713867188, -79.7772445678711, 0.9876474738121033, -0.013491682, 0.001306992, -0.026721
142, 1210356853, -165.697021484375, -79.78423309326172, 0.9684970378875732, -0.009792836, 0.009832391, -0.048205376
143, 1210373520, -165.66404724121094, -79.78951263427734, 0.9473037123680115, -0.0117308125, 0.024783954, -0.028813362
144, 1210390187, -165.64016723632812, -79.79671478271484, 0.9320065379142761, -0.015865333, -0.02245724, 0.0026578903
145, 1210406854, -165.61582946777344, -79.80500793457031, 0.9070616960525513, -0.013310127, -0.0441114, -0.0031280518
146, 1210423521, -165.5865936279297, -79.81182861328125, 0.8658926486968994, 0.006547819, -0.022113645, -0.024617195
147, 1210440188, -165.54930114746094, -79.8179702758789, 0.8143996596336365, 0.01353825, 0.011744823, -0.005879402
148, 1210456855, -165.52096557617188, -79.82390594482422, 0.7743162512779236, 0.004532228, 0.010887261, 0.0069770813
149, 1210473522, -165.50311279296875, -79.82954406738281, 0.7505335211753845, 0.035248984, 0.024133196, -0.004555702
150, 1210490189, -165.49510192871094, -79.8314208984375, 0.7399068474769592, 0.06500204, 0.012374348, -0.037807465
151, 1210506856, -165.49713134765625, -79.8325424194336, 0.7381867170333862, 0.038417086, 0.023920637, -0.056043625
152, 1210523523, -165.4980926513672, -79.83207702636719, 0.7377726435661316, 0.02651048, 0.007766796, -0.026846886
153, 1210540190, -165.5078582763672, -79.83037567138672, 0.749298095703125, -0.02544797, 0.019023076, -8.5926056E-4
154, 1210556857, -165.5225372314453, -79.82935333251953, 0.7655983567237854, -0.031357616, 0.008315576, 0.00633049
155, 1210573524, -165.5329132080078, -79.83047485351562, 0.7719630002975464, -0.01450071, -0.029960347, 0.0016393661
156, 1210590191, -165.5375518798828, -79.8327407836914, 0.7655879855155945, -0.008595044, -0.047321156, -0.016083717
157, 1210606858, -165.54714965820312, -79.83525085449219, 0.7579458951950073, -0.0012856675, -0.027604297, -0.0395813
158, 1210623525, -165.55125427246094, -79.83975982666016, 0.7441985011100769, -0.025861315, 0.011126083, -0.019424438
159, 1210640192, -165.5520782470703, -79.84551239013672, 0.7392419576644897, -0.013519873, 0.029339764, 0.005188942
160, 1210656859, -165.5475616455078, -79.85284423828125, 0.7393738031387329, -0.03185576, 0.0016941164, -0.0024795532
161, 1210673526, -165.54151916503906, -79.86128997802734, 0.7408698201179504, 0.0043079467, -0.027113685, -0.0014343262
162, 1210690193, -165.5332489013672, -79.87049102783203, 0.7296674847602844, 0.022164432, -0.03941489, -0.02514267
163, 1210706860, -165.5299072265625, -79.87847900390625, 0.7092748284339905, 0.024831368, -0.019224294, -0.03595352
164, 1210723527, -165.5208282470703, -79.88705444335938, 0.6787477135658264, 0.009500446, -4.5641346E-4, -0.026791573
165, 1210740194, -165.49896240234375, -79.89581298828125, 0.6396279335021973, -0.008881629, -0.001261116, 0.0049114227
166, 1210756861, -165.48681640625, -79.90222930908203, 0.6185497045516968, 0.003358324, 0.03749251, -0.020634651
167, 1210773528, -165.48719787597656, -79.90725708007812, 0.6209504008293152, 0.038115554, 0.019609965, -0.021966934
168, 1210790195, -165.4857940673828, -79.910888671875, 0.625978946685791, 0.0382896, -0.0021087888, -0.027135849
169, 1210806862, -165.48065185546875, -79.91145324707031, 0.6288694143295288, 0.06267042, 0.00143825, -0.014310837
170, 1210823529, -165.48728942871094, -79.91022491455078, 0.639319896697998, 0.046915133, 0.009607257, -0.014456749
171, 1210840196, -165.49839782714844, -79.90691375732422, 0.6522592306137085, 0.03356886, -0.017635116, -0.026640892
172, 1210856863, -165.5062713623047, -79.9030532836914, 0.6554241180419922, 0.031186895, -0.026180407, -0.016076088
173, 1210873530, -165.52108764648438, -79.89981842041016, 0.6616427898406982, 0.002971025, -0.026160572, -0.014316559
174, 1210890197, -165.5242156982422, -79.89742279052734, 0.6604597568511963, -0.024219383, -1.21479294E-4, -0.005168915
175, 1210906864, -165.52964782714844, -79.89773559570312, 0.6684253215789795, -0.03368387, -0.003990209, 0.018655777
176, 1210923531, -165.5117645263672, -79.90059661865234, 0.6618191599845886, -0.007969787, 0.011942856, -0.03196335
177, 1210940198, -165.4855194091797, -79.90087127685547, 0.6530652642250061, -0.0048444336, -0.007061724, -0.011200905
178, 1210956865, -165.46453857421875, -79.90252685546875, 0.641743540763855, 0.014132137, -0.022071848, -0.0039377213
179, 1210973532, -165.4520721435547, -79.9052734375, 0.6296306848526001, -4.390912E-4, -0.005163764, -0.016911507
180, 1210990199, -165.4412841796875, -79.90911865234375, 0.6170084476470947, -0.014464012, 1.02033664E-4, -0.034366608
181, 1211006866, -165.41697692871094, -79.90959930419922, 0.5924056172370911, 0.0050135143, 0.009165429, -0.0347929
182, 1211023533, -165.40391540527344, -79.91043853759766, 0.5782197117805481, 0.015972724, 0.0074700266, 0.013569832
183, 1211040200, -165.3966522216797, -79.91191864013672, 0.5642038583755493, -0.012688028, -0.017979158, -0.0027160645
184, 1211056867, -165.38894653320312, -79.916015625, 0.5485796928405762, 0.0078068534, 0.010521146, -0.014074326
185, 1211073534, -165.38104248046875, -79.91747283935547, 0.5444491505622864, -0.0059308885, 0.015551026, -0.034348488
186, 1211090201, -165.37550354003906, -79.91799926757812, 0.5459449291229248, -0.013880573, -0.008181077, -0.02098751
187, 1211106868, -165.36367797851562, -79.91950225830078, 0.5378545522689819, 0.008466196, -0.013235599, -0.01129055
188, 1211123535, -165.35411071777344, -79.92206573486328, 0.5268924236297607, 0.015644636, -0.011526004, -0.011575699
189, 1211140202, -165.35491943359375, -79.92243194580078, 0.5177912712097168, 0.031841703, 0.009170233, -0.030607224
190, 1211156869, -165.37863159179688, -79.92282104492188, 0.5282688140869141, 0.0096827485, 0.030042544, -0.04609871
191, 1211173536, -165.40557861328125, -79.92186737060547, 0.541695237159729, 0.01126682, 0.028503545, -0.039933205
192, 1211190203, -165.4273681640625, -79.9217758178711, 0.5469792485237122, -0.015278808, -0.0115491375, -0.033751488
193, 1211206870, -165.44017028808594, -79.92208099365234, 0.5427927374839783, 4.3819015E-4, -0.045374583, -0.022511482
194, 1211223537, -165.4398956298828, -79.92150115966797, 0.5262641310691833, 0.048889283, 0.001921485, 0.017648697
195, 1211240204, -165.46133422851562, -79.92073059082031, 0.5327121615409851, 0.028059376, 0.0053868857, -0.042103767
196, 1211256871, -165.49185180664062, -79.91987609863281, 0.5549427270889282, 0.012188064, 0.0010148606, -0.06462002
197, 1211273538, -165.49783325195312, -79.91824340820312, 0.5632614493370056, -0.0049001304, 0.012576571, 0.0146102905
198, 1211290205, -165.50204467773438, -79.91754913330078, 0.5760855078697205, -0.04125869, -0.012446933, 0.019434929
199, 1211306872, -165.50352478027344, -79.91700744628906, 0.5901475548744202, -0.01226753, -0.012535444, 0.0016536713
200, 1211323539, -165.50608825683594, -79.91897583007812, 0.6055487990379333, -0.0032453244, -0.0026134811, -0.04140091
201, 1211340206, -165.4928436279297, -79.92005157470703, 0.6068857908248901, 0.012025479, -0.0027553001, -0.01692295
202, 1211356873, -165.48655700683594, -79.92178344726562, 0.6189987063407898, 0.004013678, 0.0068528512, -0.0034103394
203, 1211373540, -165.48971557617188, -79.92384338378906, 0.6409197449684143, -4.188982E-4, -0.0051211286, -0.012058258
204, 1211390207, -165.48582458496094, -79.9261245727539, 0.6569126844406128, -0.012859588, -0.0027876536, -0.008347511
205, 1211406874, -165.47845458984375, -79.92760467529297, 0.6695953607559204, 0.010152629, -0.00829451, -0.019843102
206, 1211423541, -165.47999572753906, -79.9268798828125, 0.6832395195960999, 0.035156205, -0.020370133, -0.003540039
207, 1211440208, -165.4808349609375, -79.92384338378906, 0.6908504962921143, 0.03844034, -0.0037678697, -0.021363258
208, 1211456875, -165.4851837158203, -79.9197998046875, 0.706213653087616, 0.051884916, 0.03880157, -0.03952217
209, 1211473542, -165.5037384033203, -79.91492462158203, 0.741013765335083, 0.030344399, 0.021421313, -0.024474144
210, 1211490209, -165.5314483642578, -79.90784454345703, 0.7806639671325684, 0.03295278, -0.0055924617, -0.021979332
211, 1211506876, -165.55873107910156, -79.90032196044922, 0.8056989908218384, 0.039525732, -0.035749722, -0.021212578
212, 1211523543, -165.59080505371094, -79.89339447021484, 0.8190612196922302, -0.0068227747, -0.047557186, 0.006272316
213, 1211540210, -165.63523864746094, -79.88646697998047, 0.8380162119865417, -0.008910197, 0.027199961, -0.011949539
214, 1211556877, -165.69020080566406, -79.88032531738281, 0.8733357191085815, -0.019504774, 0.035209883, -0.037675858
215, 1211573544, -165.73690795898438, -79.87639617919922, 0.9066027402877808, -0.046145044, 0.0063662636, -0.037875175
216, 1211590211, -165.77346801757812, -79.87403106689453, 0.9329155683517456, -0.03572893, -0.028150339, -0.009123802
217, 1211606878, -165.8039093017578, -79.87428283691406, 0.9462125897407532, -0.027076576, -0.078424215, 0.035229683
218, 1211623545, -165.83033752441406, -79.87535095214844, 0.9495429396629333, 7.405543E-4, -0.03879492, 0.010207176
219, 1211640212, -165.8490447998047, -79.87962341308594, 0.9429787993431091, -0.015355745, -0.013186705, -0.0413723
220, 1211656879, -165.8683319091797, -79.8832015991211, 0.9504091143608093, -0.009329291, 0.016855503, -0.043504715
221, 1211673546, -165.86920166015625, -79.88594055175781, 0.9503622651100159, 0.0065470715, 0.007392691, 0.0021181107
222, 1211690213, -165.85552978515625, -79.88963317871094, 0.9363706111907959, 0.008187698, -0.028171126, 0.038352013
223, 1211706880, -165.83697509765625, -79.89393615722656, 0.9144724011421204, 0.057273105, -0.043862294, -0.0061616898
224, 1211723547, -165.81712341308594, -79.89545440673828, 0.8966723680496216, 0.07806951, 0.0011631615, -0.05882263
225, 1211740214, -165.7967071533203, -79.89358520507812, 0.8860284686088562, 0.0640191, 0.03629744, -0.051826477
226, 1211756881, -165.8002166748047, -79.88887786865234, 0.8985296487808228, 0.04077829, 0.02307682, -0.018907547
227, 1211773548, -165.81820678710938, -79.88323974609375, 0.9150611758232117, 0.007525157, -0.016830023, -0.02410984
228, 1211790215, -165.8370819091797, -79.87557983398438, 0.91587233543396, 2.9551206E-4, -0.032671392, -0.014915466
229, 1211806882, -165.8490753173828, -79.86812591552734, 0.9014161229133606, 0.0061285505, -0.008375868, -0.01490593
230, 1211823549, -165.84788513183594, -79.8619155883789, 0.8698602914810181, 0.01490807, -0.021927403, -0.0075292587
231, 1211840216, -165.86480712890625, -79.85626983642578, 0.8639190196990967, 0.016402261, 0.026566694, -0.024995804
232, 1211856883, -165.87857055664062, -79.84931182861328, 0.869137704372406, 0.012750562, 0.00674808, -0.034114838
233, 1211873550, -165.8928680419922, -79.84201049804688, 0.8854106068611145, 0.010583052, -0.001135334, 0.0042123795
234, 1211890217, -165.89971923828125, -79.83631896972656, 0.8906474113464355, -0.032471195, -0.02744376, 0.026069641
235, 1211906884, -165.91452026367188, -79.8318862915039, 0.8970010876655579, -0.014340857, -0.024344472, -0.020329475
236, 1211923551, -165.92356872558594, -79.82772827148438, 0.8923539519309998, -0.031760547, -0.03215396, -0.022833824
237, 1211940218, -165.9347381591797, -79.8256607055664, 0.8856009244918823, -0.0095798215, 0.0013124122, -0.020154953
238, 1211956885, -165.9447479248047, -79.82434844970703, 0.882182776927948, -0.014044548, 0.03655085, -0.021219254
239, 1211973552, -165.9563446044922, -79.82308959960938, 0.8956851959228516, -0.014995868, 0.04634396, -0.015723228
240, 1211990219, -165.96209716796875, -79.82320404052734, 0.9252979159355164, 0.018763263, 0.054488212, -0.026621819
241, 1212006886, -165.9756317138672, -79.82273864746094, 0.966462254524231, 0.008588793, 0.0040481547, -0.020799637
242, 1212023553, -165.99049377441406, -79.82273864746094, 1.0031384229660034, 0.0154080475, -0.03276778, -0.0063638687
243, 1212040220, -166.00576782226562, -79.8248291015625, 1.0369703769683838, -0.016703807, -0.044141404, -0.033753395
244, 1212056887, -166.00131225585938, -79.8287353515625, 1.0508126020431519, -0.035883907, -0.054731395, -0.024546623
245, 1212073554, -165.98428344726562, -79.83399963378906, 1.0600378513336182, -0.045082904, -0.035339355, 0.0078058243
246, 1212090221, -165.94467163085938, -79.84030151367188, 1.0575790405273438, -0.028637059, -0.034509674, 0.024402618
247, 1212106888, -165.89169311523438, -79.84959411621094, 1.043304204940796, -0.008149981, -0.007644031, -0.0017824173
248, 1212123555, -165.83380126953125, -79.8609848022461, 1.0217070579528809, 3.9514995E-4, -0.0333074, -0.05095482
249, 1212140222, -165.77503967285156, -79.86812591552734, 0.9844079613685608, 0.03641474, -0.04184185, -0.036382675
250, 1212156889, -165.72059631347656, -79.87530517578125, 0.9294257760047913, 0.039770637, -0.019107563, -0.017256737
251, 1212173556, -165.6746368408203, -79.87918090820312, 0.8682070970535278, 0.051929854, 0.021115381, -0.008669853
252, 1212190223, -165.64788818359375, -79.8776626586914, 0.8210328221321106, 0.08807807, 0.04364392, -0.019236565
253, 1212206890, -165.65155029296875, -79.87332916259766, 0.8002579808235168, 0.08403835, 0.060220927, -0.07392883
254, 1212223557, -165.6743927001953, -79.86270904541016, 0.7957472205162048, 0.07521597, 0.06454937, -0.05423069
255, 1212240224, -165.71485900878906, -79.84834289550781, 0.8117409348487854, 0.046767473, 0.03468798, -0.011313438
256, 1212256891, -165.76339721679688, -79.8327407836914, 0.8378635048866272, 0.05403605, 0.04446388, 0.0060100555
257, 1212273558, -165.84140014648438, -79.8167495727539, 0.8907985687255859, 0.033200096, 0.012698889, -0.014844894
258, 1212290225, -165.9199981689453, -79.79776000976562, 0.941059947013855, -0.008451018, -0.0065807244, -0.039121628
259, 1212306892, -165.99008178710938, -79.7801742553711, 0.9913629293441772, 3.9559E-4, 0.021746973, -0.018063545
260, 1212323559, -166.0570831298828, -79.76326751708984, 1.050095796585083, -0.050337885, 0.018616337, -0.0025043488
261, 1212340226, -166.10870361328125, -79.7492904663086, 1.101515769958496, -0.058298297, -0.02193925, -0.013766289
262, 1212356893, -166.15113830566406, -79.73947143554688, 1.1500710248947144, -0.05361617, -0.011895583, -0.014044762
263, 1212373560, -166.19180297851562, -79.73136138916016, 1.1945053339004517, -0.0481046, -0.0069156587, -2.2888184E-4
264, 1212390227, -166.2236328125, -79.72620391845703, 1.2355420589447021, -0.040223874, -0.004916391, -0.0021123886
265, 1212406894, -166.25184631347656, -79.72238159179688, 1.2722599506378174, -0.013870271, -0.015803372, -0.017119408
266, 1212423561, -166.28228759765625, -79.71916198730469, 1.3087596893310547, -0.0047743064, -0.01381528, -0.023083687
267, 1212440228, -166.3170623779297, -79.71720886230469, 1.3471662998199463, -0.0014433349, -0.024262443, -0.011171341
268, 1212456895, -166.34999084472656, -79.71483612060547, 1.382992148399353, 0.007972505, -0.017831417, -0.010756493
269, 1212473562, -166.3766326904297, -79.71273803710938, 1.4100090265274048, -0.0029345504, -0.019838786, -0.021680832
270, 1212490229, -166.4078369140625, -79.71080780029297, 1.4386035203933716, -0.016180389, 0.0042965338, -0.022726059
271, 1212506896, -166.44053649902344, -79.71182250976562, 1.4705077409744263, -0.01336122, -0.017077954, 0.0021429062
272, 1212523563, -166.46531677246094, -79.71385955810547, 1.4949396848678589, -0.025689747, -0.02102022, -7.8105927E-4
273, 1212540230, -166.49000549316406, -79.7164535522461, 1.5156712532043457, -0.015378376, -0.02790604, -0.025709152
274, 1212556897, -166.50607299804688, -79.72000885009766, 1.5266225337982178, -0.033059627, -0.037356, -0.0116119385
275, 1212573564, -166.50344848632812, -79.72538757324219, 1.5212475061416626, -0.019198772, -0.021535026, -0.0026550293
276, 1212590231, -166.50973510742188, -79.73065185546875, 1.5253791809082031, -0.019842809, -0.009796405, -0.0012435913
277, 1212606898, -166.51402282714844, -79.7362060546875, 1.528645634651184, -0.0049491217, -0.0254997, -0.020853043
278, 1212623565, -166.510986328125, -79.74276733398438, 1.522239089012146, -5.3641014E-4, -0.0030827466, -0.0038852692
279, 1212640232, -166.50344848632812, -79.74868774414062, 1.5129032135009766, 7.1497605E-4, 0.0025794513, -0.019205093
280, 1212656899, -166.49752807617188, -79.7533187866211, 1.5088462829589844, 0.011275963, -8.9405185E-5, -0.011004448
281, 1212673566, -166.493896484375, -79.75967407226562, 1.5089762210845947, 0.028871777, -0.024681864, -0.017261505
282, 1212690233, -166.48902893066406, -79.76417541503906, 1.5037827491760254, 0.02844057, -0.036105894, -0.01569748
283, 1212706900, -166.4790496826172, -79.76802825927734, 1.4840588569641113, -0.011932833, -0.023086151, -0.012371063
284, 1212723567, -166.4674835205078, -79.77272033691406, 1.4603577852249146, -0.015792014, -0.024669908, -0.01731968
285, 1212740234, -166.45455932617188, -79.77853393554688, 1.4415616989135742, -0.030461023, 0.015430273, -0.018336296
286, 1212756901, -166.43270874023438, -79.78483581542969, 1.424545168876648, 0.007655277, 0.012812098, -0.0019922256
287, 1212773568, -166.4117889404297, -79.78976440429688, 1.4085127115249634, 0.010982687, -0.016077567, -0.017256737
288, 1212790235, -166.39405822753906, -79.79390716552734, 1.3907369375228882, 0.064420275, -0.027630169, -0.0147743225
289, 1212806902, -166.3773651123047, -79.79658508300781, 1.3684473037719727, 0.037528887, -0.0073118913, -0.03330326
290, 1212823569, -166.3744659423828, -79.79785919189453, 1.3590971231460571, 0.010927213, 0.015349976, -0.03631401
291, 1212840236, -166.36489868164062, -79.797607421875, 1.352628231048584, 0.007031571, 0.03210607, -0.0055980682
292, 1212856903, -166.3592529296875, -79.7998046875, 1.3526251316070557, -0.02133649, 0.0048977835, 0.015213966
293, 1212873570, -166.35333251953125, -79.80237579345703, 1.3519113063812256, -0.016399775, -0.014226767, -0.009678841
294, 1212890237, -166.3506317138672, -79.80506896972656, 1.3480503559112549, 0.00734261, 0.0054048225, -0.03174591
295, 1212906904, -166.33786010742188, -79.80599212646484, 1.3387216329574585, 0.02672923, 0.009666544, -0.023357391
296, 1212923571, -166.33169555664062, -79.80804443359375, 1.3337095975875854, 0.020457666, -0.012181456, -0.020858765
297, 1212940238, -166.33094787597656, -79.80950927734375, 1.3283600807189941, 0.0033686406, -0.018068843, -0.03788376
298, 1212956905, -166.33248901367188, -79.81084442138672, 1.3221946954727173, -0.01104214, -0.024417896, -0.028583527
299, 1212973572, -166.31790161132812, -79.8122329711914, 1.3003952503204346, 4.3888864E-4, 0.004613028, -0.0010490417
300, 1212990239, -166.29904174804688, -79.81458282470703, 1.274634599685669, -0.0058391993, 0.013032314, 0.018803596
301, 1213006906, -166.2783966064453, -79.81974029541016, 1.249243974685669, -0.011921189, -0.0048064785, -0.002922058
302, 1213023573, -166.25245666503906, -79.82508087158203, 1.2202930450439453, 0.0026261306, 0.0024749031, -0.024964333
303, 1213040240, -166.2261962890625, -79.82960510253906, 1.1943901777267456, 0.0065174284, -0.0017325607, -0.024518013
304, 1213056907, -166.20726013183594, -79.83271789550781, 1.1785274744033813, 0.018501397, 0.0038490049, -0.01403141
305, 1213073574, -166.1931915283203, -79.83650970458984, 1.1687595844268799, 0.020320456, 0.007545965, -0.007408142
306, 1213090241, -166.18150329589844, -79.83736419677734, 1.1589422225952148, 0.020033844, -0.0010942635, -0.009962082
307, 1213106908, -166.1748046875, -79.83740234375, 1.1521304845809937, 0.021470739, -0.003953162, -0.004421234
308, 1213123575, -166.17391967773438, -79.83732604980469, 1.150343418121338, 0.018523993, 0.010473873, -0.0300951
309, 1213140242, -166.1680450439453, -79.8377456665039, 1.145965576171875, 0.012463592, 0.029295955, -0.029065132
310, 1213156909, -166.16989135742188, -79.83902740478516, 1.152658224105835, -0.026185626, 0.02985429, -0.022315979
311, 1213173576, -166.17327880859375, -79.84191131591797, 1.1597410440444946, -0.020763481, 0.0031180617, -0.024770737
312, 1213190243, -166.1709442138672, -79.84487915039062, 1.1589627265930176, -0.02293891, -0.045693256, 0.0066375732
313, 1213206910, -166.16842651367188, -79.85002899169922, 1.1536425352096558, -0.0054937736, -0.054522187, -0.004085541
314, 1213223577, -166.16082763671875, -79.85623168945312, 1.1407418251037598, -0.010284984, -0.020330347, -0.029595375
315, 1213240244, -166.15232849121094, -79.86416625976562, 1.13264000415802, -0.035171404, 0.0037181939, -0.032424927
316, 1213256911, -166.14361572265625, -79.87567901611328, 1.1329210996627808, -0.038816217, 0.006235397, -0.024055481
317, 1213273578, -166.11410522460938, -79.88827514648438, 1.1188533306121826, -0.030035056, -0.0065270253, 0.0023965836
318, 1213290245, -166.08230590820312, -79.90178680419922, 1.1004481315612793, -0.03361282, -0.007026968, -9.3078613E-4
319, 1213306912, -166.05059814453125, -79.91734313964844, 1.0778690576553345, -0.011316747, -0.02353016, -0.01846695
320, 1213323579, -166.01190185546875, -79.93352508544922, 1.0488897562026978, -0.004044935, -0.005619954, -0.01154232
321, 1213340246, -165.97560119628906, -79.9478759765625, 1.02894926071167, 0.015868226, 0.02650439, -0.023693085
322, 1213356913, -165.94129943847656, -79.96082305908203, 1.0175583362579346, 0.025581485, 0.012080093, -0.021630287
323, 1213373580, -165.91412353515625, -79.9726791381836, 1.0117815732955933, 0.029894935, 0.0061468855, -0.012979507
324, 1213390247, -165.88182067871094, -79.98356628417969, 0.9988953471183777, 0.028867334, 0.007971366, -0.015084267
325, 1213406914, -165.8636932373047, -79.9922866821289, 0.9944401383399963, 0.02191404, -0.0017915681, -0.042380333
326, 1213423581, -165.85208129882812, -79.99608612060547, 0.9885098934173584, 0.05959322, 0.003409355, -0.030264854
327, 1213440248, -165.85052490234375, -79.99740600585938, 0.9813567996025085, 0.06546671, -0.032293934, -0.05471611
328, 1213456915, -165.8509521484375, -79.99608612060547, 0.9648705124855042, 0.056456175, -0.013163907, -0.021834373
329, 1213473582, -165.84251403808594, -79.99375915527344, 0.9372515678405762, 0.047650665, 0.005075476, 0.0050554276
330, 1213490249, -165.8453369140625, -79.99337005615234, 0.9236314296722412, -0.015548308, -0.026223434, -0.024454117
331, 1213506916, -165.83018493652344, -79.99295806884766, 0.8980757594108582, -0.022606876, -0.031279854, -0.024184227
332, 1213523583, -165.7952423095703, -79.99219512939453, 0.8602843284606934, -0.032142602, -0.0011737224, -0.0051670074
333, 1213540250, -165.75177001953125, -79.99372100830078, 0.8204196691513062, -0.016616967, 0.0065713366, 0.012863159
334, 1213556917, -165.71075439453125, -79.99600219726562, 0.778637170791626, 0.004325032, 0.018837057, -0.0062332153
335, 1213573584, -165.67529296875, -79.99620056152344, 0.738348662853241, 0.021076672, 0.0141353505, -0.04082012
336, 1213590251, -165.6476593017578, -79.99588775634766, 0.6992454528808594, -0.011256692, -0.022581123, -0.026943207
337, 1213606918, -165.62159729003906, -79.99628448486328, 0.6556090712547302, -0.02360011, -0.017320186, -0.015586853
338, 1213623585, -165.58815002441406, -79.9979476928711, 0.6140535473823547, -0.028811678, -5.6330854E-4, -0.019350052
339, 1213640252, -165.5435028076172, -80.00228118896484, 0.5768092274665833, -0.010534948, 0.030060817, -0.025419235
340, 1213656919, -165.50148010253906, -80.0051040649414, 0.5562239289283752, 0.04599161, 0.029761309, 0.007777214
341, 1213673586, -165.48121643066406, -80.00611114501953, 0.5542669892311096, 0.026822211, 0.027532717, -0.0323143
342, 1213690253, -165.47547912597656, -80.00569915771484, 0.5580784678459167, 0.023604441, 0.019412994, -0.03013897
343, 1213706920, -165.45082092285156, -80.00491333007812, 0.5427027344703674, 0.0478354, -0.028676769, 0.00894928
344, 1213723587, -165.4268798828125, -80.00019073486328, 0.5230199694633484, 0.023210535, 0.025736175, -0.0095825195
345, 1213740254, -165.41822814941406, -79.99696350097656, 0.5177013874053955, 0.028898919, -0.0017532915, -0.013895035
346, 1213756921, -165.4159393310547, -79.99443054199219, 0.5189212560653687, 0.0315406, 0.018524697, -0.012168884
347, 1213773588, -165.4170379638672, -79.99053955078125, 0.523512065410614, 0.023830784, 0.019400477, -0.0208292
348, 1213790255, -165.42579650878906, -79.98407745361328, 0.5386205315589905, -0.005613025, 0.015032643, -0.015812874
349, 1213806922, -165.45201110839844, -79.9771499633789, 0.5709114074707031, -0.045752104, 0.0077674664, -0.014279366
350, 1213823589, -165.47256469726562, -79.97357940673828, 0.5938816070556641, -0.023084858, -0.01640166, -0.024137497
351, 1213840256, -165.478271484375, -79.97139739990234, 0.5990413427352905, -0.007215208, -0.031572714, -0.03167534
352, 1213856923, -165.4882049560547, -79.9681625366211, 0.5986955165863037, -0.003111901, -0.05504297, -0.010183334
353, 1213873590, -165.49862670898438, -79.96656036376953, 0.5915307402610779, -0.020592283, -0.028581329, -0.02717495
354, 1213890257, -165.49508666992188, -79.9651870727539, 0.5713151097297668, -0.0029176753, -0.009667662, -0.013196945
355, 1213906924, -165.47512817382812, -79.966064453125, 0.5405352711677551, -0.045991037, -0.049038295, 0.03627014
356, 1213923591, -165.44671630859375, -79.97074127197266, 0.5022825598716736, -0.03466978, -0.060630683, 0.0026683807
357, 1213940258, -165.40728759765625, -79.97301483154297, 0.45236828923225403, 0.020685676, -0.04860485, -0.035678864
358, 1213956925, -165.34645080566406, -79.97522735595703, 0.38104918599128723, 0.059396856, -0.011938777, -0.031905174
359, 1213973592, -165.3038787841797, -79.97679901123047, 0.32562676072120667, 0.03162172, 0.028694816, -0.042562485
360, 1213990259, -165.26841735839844, -79.98126983642578, 0.2865004539489746, -0.07091735, -0.025714215, -0.05184269
361, 1214006926, -165.2127227783203, -79.98977661132812, 0.24047207832336426, -0.10394533, -0.05035255, 0.004404068
362, 1214023593, -165.1271209716797, -80.0038070678711, 0.16890177130699158, -0.12722877, -0.032051086, 0.060433388
363, 1214040260, -165.00755310058594, -80.02279663085938, 0.06984144449234009, -0.08685393, -0.025345363, 0.028486252
364, 1214056927, -164.87213134765625, -80.04386901855469, -0.06380996108055115, -0.0030342024, -0.041187793, -0.041246414
365, 1214073594, -164.76611328125, -80.06304931640625, -0.20475752651691437, 0.032405794, -0.026749695, -0.044751167
366, 1214090261, -164.67127990722656, -80.07659149169922, -0.35144945979118347, 0.1394782, 0.031517617, -0.048106194
367, 1214106928, -164.60568237304688, -80.0849380493164, -0.46681904792785645, 0.15962388, 0.12311882, -0.04459095
368, 1214123595, -164.5777130126953, -80.0866470336914, -0.5278064012527466, 0.13874741, 0.1430436, -0.0335474
369, 1214140262, -164.60153198242188, -80.0819091796875, -0.5026119351387024, 0.17539757, 0.15983278, -0.053768158
370, 1214156929, -164.6533660888672, -80.0674819946289, -0.41914668679237366, 0.128826, 0.11514113, -0.054722786
371, 1214173596, -164.7349090576172, -80.0480728149414, -0.3094736933708191, 0.08731016, 0.026970414, -0.022079468
372, 1214190263, -164.8314208984375, -80.02628326416016, -0.20421327650547028, 0.10732392, -0.025603354, 0.0028409958
373, 1214206930, -164.95751953125, -80.00326538085938, -0.10234392434358597, 0.015993057, -0.036656126, -0.019472122
374, 1214223597, -165.07461547851562, -79.98099517822266, -0.033424507826566696, -0.056487717, -0.051638532, -0.00849247
375, 1214240264, -165.1681365966797, -79.96636199951172, 0.0017788192490115762, -0.12345442, -0.07332689, 0.040308
376, 1214256931, -165.24232482910156, -79.9603500366211, 0.020118560642004013, -0.14531139, -0.04334017, 0.032844543
377, 1214273598, -165.29823303222656, -79.96056365966797, 0.03860725834965706, -0.15222196, -0.0036985807, 0.005060196
378, 1214290265, -165.32749938964844, -79.96691131591797, 0.059993207454681396, -0.11845108, 0.030672235, 0.005469322
379, 1214306932, -165.32427978515625, -79.98129272460938, 0.07473716139793396, -0.071198516, 0.0052621653, -0.0073566437
380, 1214323599, -165.32931518554688, -79.9976577758789, 0.10576164722442627, -0.04527978, 0.0065796627, -0.02012539
381, 1214340266, -165.31805419921875, -80.01612854003906, 0.12615109980106354, -0.032623224, 0.006538704, -0.029763222
382, 1214356933, -165.3134307861328, -80.0353775024414, 0.15104664862155914, 0.0146795, 0.014974977, -0.011833191
383, 1214373600, -165.3158721923828, -80.05224609375, 0.18044032156467438, 0.07237615, -0.0020828054, -0.005106926
384, 1214390267, -165.3304901123047, -80.0660171508789, 0.20491422712802887, 0.069284566, -0.04189493, -0.033207893
385, 1214406934, -165.36070251464844, -80.07758331298828, 0.22426539659500122, 0.09457013, -0.04882389, -0.04365349
386, 1214423601, -165.38433837890625, -80.08634948730469, 0.2346089482307434, 0.008770753, 8.9980726E-4, -0.023742676
387, 1214440268, -165.39955139160156, -80.09249877929688, 0.25574207305908203, 0.03715354, 0.034887522, -0.004673958
388, 1214456935, -165.41375732421875, -80.09569549560547, 0.2925774157047272, 0.058158282, 0.008837647, -0.02032566
389, 1214473602, -165.42332458496094, -80.09783935546875, 0.3206098973751068, 0.04358828, -0.05028701, -0.013161659
390, 1214490269, -165.4347381591797, -80.09791564941406, 0.3390689194202423, 0.03365775, -0.00977763, -0.019542694
391, 1214506936, -165.43296813964844, -80.10016632080078, 0.34311777353286743, 0.014347534, -0.0039961324, 0.002623558
392, 1214523603, -165.4288787841797, -80.10157012939453, 0.34153228998184204, 0.008726994, -0.03570938, -0.013425827
393, 1214540270, -165.4342498779297, -80.1015396118164, 0.34549060463905334, 0.021409517, 0.014588243, -0.03157425
394, 1214556937, -165.441162109375, -80.09964752197266, 0.3524460792541504, 0.035092294, 0.0046299035, -0.028233528
395, 1214573604, -165.44993591308594, -80.09442901611328, 0.35562440752983093, 0.07025117, 0.013350876, -0.0176754
396, 1214590271, -165.4774169921875, -80.08759307861328, 0.3664429187774658, 0.043502968, 0.017687809, -0.025216103
397, 1214606938, -165.51930236816406, -80.07933044433594, 0.3808482885360718, 0.008383105, -0.0043913033, -0.018113136
398, 1214623605, -165.56085205078125, -80.07144165039062, 0.38770613074302673, -0.003930238, -0.0076924777, -0.0038404465
399, 1214640272, -165.6040802001953, -80.06350708007812, 0.396926611661911, -0.016972946, -0.00658838, 0.0032634735
400, 1214656939, -165.63429260253906, -80.05713653564453, 0.40052157640457153, 9.933196E-4, -0.0066612447, -0.013995171
401, 1214673606, -165.6577911376953, -80.05167388916016, 0.40749773383140564, -0.019981883, 3.2420555E-4, -0.01631546
402, 1214690273, -165.67588806152344, -80.04815673828125, 0.4171689748764038, -0.047926318, 0.05093754, -0.015095711
403, 1214706940, -165.662109375, -80.04522705078125, 0.41059166193008423, -0.016248351, -0.011083169, -0.011713028
404, 1214723607, -165.65435791015625, -80.04370880126953, 0.3983890414237976, -0.005555121, -0.056256816, -0.010725975
405, 1214740274, -165.6489715576172, -80.04043579101562, 0.3786833882331848, 0.008322582, -0.012104177, -0.032769203
406, 1214756941, -165.64666748046875, -80.03843688964844, 0.35940131545066833, 0.011390332, 0.0064809816, 0.009315491
407, 1214773608, -165.62399291992188, -80.04025268554688, 0.33549848198890686, 0.011360101, 0.004762111, -3.3855438E-4
408, 1214790275, -165.61354064941406, -80.03689575195312, 0.3483644425868988, 0.052102733, 0.07976149, -0.051612854
409, 1214806942, -165.63079833984375, -80.03013610839844, 0.3991074860095978, 0.006626279, 0.06319823, -0.021743774
410, 1214823609, -165.6286163330078, -80.0276870727539, 0.42559054493904114, -0.0010538496, -0.066248454, -0.009932518
411, 1214840276, -165.6175537109375, -80.0285873413086, 0.4258313775062561, -0.04451451, -0.051499117, 0.008778572
412, 1214856943, -165.5978546142578, -80.031494140625, 0.3931151032447815, -0.070159666, -0.05516378, 0.02604103
413, 1214873610, -165.57395935058594, -80.03742980957031, 0.34799695014953613, -0.05235499, -0.04597008, -0.010527611
414, 1214890277, -165.5380401611328, -80.0480728149414, 0.30201804637908936, -0.042198177, 0.013389879, -0.033637047
415, 1214906944, -165.48440551757812, -80.0594482421875, 0.25266000628471375, -0.031547695, 0.033636913, -0.034080505
416, 1214923611, -165.43206787109375, -80.0731430053711, 0.21674223244190216, -0.047957387, 0.007615478, -0.02168274
417, 1214940278, -165.36709594726562, -80.0919418334961, 0.18203957378864288, -0.053125188, -0.03428074, 0.023200989
418, 1214956945, -165.2838897705078, -80.11209106445312, 0.13057886064052582, -0.032323744, -0.023852073, 0.008422852
419, 1214973612, -165.20066833496094, -80.12957000732422, 0.08128209412097931, 0.012037779, -0.00731787, -0.004626274
420, 1214990279, -165.1224365234375, -80.14802551269531, 0.0403774119913578, 0.036077373, 0.044933256, -0.04751396
421, 1215006946, -165.0391845703125, -80.1626968383789, 0.0035879320930689573, 0.05237641, 0.03617859, -0.05237961
422, 1215023613, -164.96583557128906, -80.17418670654297, -0.02758106403052807, 0.072132654, -0.024062455, -0.021974564
423, 1215040280, -164.90631103515625, -80.18228149414062, -0.06730953603982925, 0.07723456, -0.032621436, -0.04228306
424, 1215056947, -164.86427307128906, -80.18802642822266, -0.10682687163352966, 0.09489238, 1.3595175E-4, -0.031181335
425, 1215073614, -164.82958984375, -80.19063568115234, -0.15034747123718262, 0.07657722, 0.021186234, -0.04500389
426, 1215090281, -164.81948852539062, -80.18855285644531, -0.1729632169008255, 0.08170993, 0.028489297, -0.06063652
427, 1215106948, -164.82110595703125, -80.18193817138672, -0.18736866116523743, 0.054724578, 0.029666819, -0.009444237
428, 1215123615, -164.84423828125, -80.1751937866211, -0.18468603491783142, 0.050142847, 0.0079456065, -0.01190567
429, 1215140282, -164.90321350097656, -80.1648941040039, -0.1647016555070877, 0.051150206, -0.011427044, -0.05251026
430, 1215156949, -164.94775390625, -80.15525817871094, -0.1710302084684372, 0.06382647, -0.046106588, -0.04571247
431, 1215173616, -164.97523498535156, -80.14561462402344, -0.18732240796089172, -0.008793356, 0.04041628, 4.1294098E-4
432, 1215190283, -165.0205535888672, -80.1409683227539, -0.17848354578018188, -0.10324898, 0.03882677, 0.057429314
433, 1215206950, -165.06507873535156, -80.14202880859375, -0.14955930411815643, -0.05930936, 0.026024899, -5.187988E-4
434, 1215223617, -165.09402465820312, -80.14775085449219, -0.11759661138057709, -0.13232858, 0.024304353, -0.055638313
435, 1215240284, -165.08673095703125, -80.15425872802734, -0.10880569368600845, -0.08796255, -0.00994655, 7.05719E-4
436, 1215256951, -165.0647735595703, -80.16710662841797, -0.12777414917945862, -0.0836673, -0.076789945, 0.062113762
437, 1215273618, -165.04400634765625, -80.18782806396484, -0.16214941442012787, -0.090762965, -0.078279436, -0.027915955
438, 1215290285, -164.99525451660156, -80.2108383178711, -0.2284575253725052, -0.05446618, -0.045193147, -0.06421852
439, 1215306952, -164.92178344726562, -80.23455047607422, -0.31172338128089905, -0.02185036, 0.011203587, 9.536743E-6
440, 1215323619, -164.86483764648438, -80.26023864746094, -0.35464027523994446, 0.028337546, 0.08148327, 0.008548737
441, 1215340286, -164.81915283203125, -80.28356170654297, -0.36763477325439453, 0.0838229, 0.057122704, -0.042160988
442, 1215356953, -164.78623962402344, -80.3049545288086, -0.3615499436855316, 0.10906573, 0.02075776, -0.033244133
443, 1215373620, -164.76058959960938, -80.31724548339844, -0.36020004749298096, 0.13556312, -0.020087669, -0.024364471
444, 1215390287, -164.74508666992188, -80.3235855102539, -0.3725276291370392, 0.12469119, -0.03190994, 0.0075998306
445, 1215406954, -164.73886108398438, -80.32500457763672, -0.38898611068725586, 0.09877576, 0.011431291, -0.023571014
446, 1215423621, -164.7532501220703, -80.3219223022461, -0.3871075510978699, 0.06842197, 0.054464128, -0.057113647
447, 1215440288, -164.78550720214844, -80.31566619873047, -0.3602144122123718, 0.032335214, 0.055766426, -0.029907227
448, 1215456955, -164.82981872558594, -80.30939483642578, -0.3142470121383667, 0.025286984, 0.026652634, -0.031492233
449, 1215473622, -164.88937377929688, -80.30302429199219, -0.25396135449409485, 0.005909927, 0.0038759941, -0.03722191
450, 1215490289, -164.92807006835938, -80.29734802246094, -0.2211185246706009, 0.0066697034, -0.066882506, -0.024095535
451, 1215506956, -164.9499969482422, -80.29252624511719, -0.2164473831653595, -0.01452135, -0.06913384, 0.0022821426
452, 1215523623, -164.9512176513672, -80.2906265258789, -0.2286684662103653, 0.0018341612, -0.00595405, 0.017850876
453, 1215540290, -164.9587860107422, -80.29167175292969, -0.21867263317108154, -0.0089492705, 0.050970566, -0.031249046
454, 1215556957, -164.96405029296875, -80.2896499633789, -0.19187994301319122, 0.010937949, 0.04918883, -0.047193527
455, 1215573624, -164.96731567382812, -80.2868423461914, -0.1502373069524765, 0.025056815, 0.048175927, -0.020456314
456, 1215590291, -164.97840881347656, -80.28533935546875, -0.09787831455469131, 0.018847827, 0.013245322, -0.015752792
457, 1215606958, -164.9890899658203, -80.28507995605469, -0.055694423615932465, -0.014846925, -0.016772188, -0.010492325
458, 1215623625, -165.01141357421875, -80.2842025756836, -0.017994944006204605, -0.026251737, -0.047130723, -0.01224041
459, 1215640292, -165.05291748046875, -80.28345489501953, 0.026588378474116325, -0.003271245, -0.020545535, -0.013928413
460, 1215656959, -165.08078002929688, -80.28543853759766, 0.05836351960897446, -0.02281088, 0.00434878, -0.014348984
461, 1215673626, -165.09039306640625, -80.28841400146484, 0.07161124050617218, 0.0023388744, 0.012268682, -0.013464928
462, 1215690293, -165.09640502929688, -80.29161071777344, 0.0845547690987587, -0.002702034, -0.019358737, -0.0014095306
463, 1215706960, -165.08958435058594, -80.29544830322266, 0.0791427418589592, -0.0019213873, -0.049686708, -0.010970116
464, 1215723627, -165.0804443359375, -80.30111694335938, 0.06388919055461884, -0.03457946, -0.024831172, -0.006052971
465, 1215740294, -165.0771026611328, -80.30811309814453, 0.061171069741249084, 0.006029541, 0.017773136, -0.051688194
466, 1215756961, -165.0676727294922, -80.31481170654297, 0.052524976432323456, 0.0061157895, -0.0031866243, -0.034893036
467, 1215773628, -165.05467224121094, -80.31905364990234, 0.03527046740055084, 0.019688578, -0.004123255, -0.0037355423
468, 1215790295, -165.04994201660156, -80.32524871826172, 0.026407413184642792, 0.017805113, 0.018903943, -0.01985836
469, 1215806962, -165.0613250732422, -80.32915496826172, 0.03584584221243858, 0.06059826, 0.033090927, -0.029147148
470, 1215823629, -165.07798767089844, -80.33087921142578, 0.056851159781217575, 0.07014977, 0.035352543, -0.058631897
471, 1215840296, -165.10873413085938, -80.32823944091797, 0.09177368879318237, 0.051095873, 0.036368575, -0.03415203
472, 1215856963, -165.14422607421875, -80.32208251953125, 0.12977007031440735, 0.05221091, 0.03123532, -0.017683983
473, 1215873630, -165.20118713378906, -80.3125991821289, 0.18017928302288055, 0.084403, 0.019489827, -0.004501343
474, 1215890297, -165.27969360351562, -80.29888916015625, 0.23347075283527374, 0.10095157, -0.008060045, -0.04293251
475, 1215906964, -165.37286376953125, -80.28177642822266, 0.28535693883895874, 0.08994951, 0.024705892, -2.632141E-4
476, 1215923631, -165.47314453125, -80.26752471923828, 0.34094512462615967, 0.01914693, 0.026806133, 0.005470276
477, 1215940298, -165.58053588867188, -80.25385284423828, 0.4191163182258606, -0.053584997, 3.9170645E-4, -0.04694271
478, 1215956965, -165.65846252441406, -80.24205017089844, 0.49256065487861633, -0.09138815, -0.06467554, -0.06397724
479, 1215973632, -165.6829376220703, -80.23271942138672, 0.5317620635032654, -0.087487236, -0.08524505, 0.006631851
480, 1215990299, -165.65093994140625, -80.22770690917969, 0.525718092918396, -0.062112253, -0.079565026, 0.07205868
481, 1216006966, -165.618408203125, -80.23028564453125, 0.5011306405067444, -0.07909852, -0.07053828, 0.0059604645
482, 1216023633, -165.58111572265625, -80.24071502685547, 0.4616028666496277, -0.10953818, -0.010556852, -0.06324482
483, 1216040300, -165.52420043945312, -80.25640106201172, 0.40490031242370605, -0.11201192, -0.0013609704, -0.015936852
484, 1216056967, -165.4400634765625, -80.27660369873047, 0.33559373021125793, -0.05989171, 0.010364296, 0.013889313
485, 1216073634, -165.3647003173828, -80.29789733886719, 0.2917795479297638, 0.053359136, 0.038820177, 0.0026111603
486, 1216090301, -165.30331420898438, -80.31643676757812, 0.27230894565582275, 0.12767692, 0.034554377, -0.036364555
487, 1216106968, -165.25531005859375, -80.32691955566406, 0.26813992857933044, 0.13187787, 0.037779894, -0.04142666
488, 1216123635, -165.2357940673828, -80.33059692382812, 0.28360626101493835, 0.12585476, 0.07314635, -0.037906647
489, 1216140302, -165.25820922851562, -80.33094024658203, 0.3387950360774994, 0.08165285, 0.07746171, -0.039616585
490, 1216156969, -165.29776000976562, -80.32706451416016, 0.4025477170944214, 0.08494539, 0.012531812, -0.04114628
491, 1216173636, -165.3402557373047, -80.319580078125, 0.4564722776412964, 0.052305188, -0.012764154, -0.032654762
492, 1216190303, -165.39724731445312, -80.31048583984375, 0.5103960633277893, 0.053755894, -5.3509E-4, -0.057106018
493, 1216206970, -165.4628448486328, -80.2989730834961, 0.573144793510437, 0.043120313, 0.03913589, -0.03505993
494, 1216223637, -165.51907348632812, -80.288818359375, 0.6275185942649841, 0.026947176, -0.026141461, -0.008836746
495, 1216240304, -165.5622100830078, -80.27843475341797, 0.6594542860984802, 8.011123E-4, -0.045924928, -0.004899025
496, 1216256971, -165.59674072265625, -80.2685546875, 0.6718448400497437, 0.016947996, -0.0637602, -0.01349926
497, 1216273638, -165.62539672851562, -80.25711059570312, 0.6690120100975037, 0.01610174, -0.037160818, 0.0015478134
498, 1216290305, -165.64878845214844, -80.24960327148438, 0.6610918045043945, -0.0052508293, 0.0032274153, -0.028455734
499, 1216306972, -165.68174743652344, -80.24125671386719, 0.6725427508354187, -0.016775122, 0.043505512, -0.065410614
500, 1216323639, -165.71151733398438, -80.23464965820312, 0.6966007947921753, -0.019687565, 0.032229785, -0.033068657
501, 1216340306, -165.7452850341797, -80.22672271728516, 0.73576420545578, -0.05609086, 0.027354801, -0.0072755814
502, 1216356973, -165.78466796875, -80.22173309326172, 0.7823491096496582, -0.014699546, 0.002462051, -0.0060186386
503, 1216373640, -165.81993103027344, -80.21733093261719, 0.8226073980331421, 0.013036149, -0.011400055, -7.02858E-4
504, 1216390307, -165.85157775878906, -80.2143783569336, 0.8533783555030823, 0.005436876, -0.040595595, -0.013349533
505, 1216406974, -165.8812255859375, -80.21186065673828, 0.876205325126648, 0.004115153, -0.031721685, -0.0202322
506, 1216423641, -165.89297485351562, -80.20975494384766, 0.8811708092689514, -3.458863E-5, -0.0041988585, -0.009482384
507, 1216440308, -165.8833465576172, -80.20674133300781, 0.8723368048667908, 0.017803624, 0.0011103565, 0.0061922073
508, 1216456975, -165.88705444335938, -80.20397186279297, 0.8820275068283081, 0.024489965, 0.012375913, -0.009536743
509, 1216473642, -165.90464782714844, -80.20137786865234, 0.8993350863456726, -0.017457955, -0.022729926, -0.05895233
510, 1216490309, -165.91688537597656, -80.19792938232422, 0.911544919013977, -0.014695383, 0.03231014, -0.022667885
511, 1216506976, -165.9410400390625, -80.19599151611328, 0.943615198135376, -0.014693574, 0.027453817, 0.0065279007
512, 1216523643, -165.9610137939453, -80.1947250366211, 0.9707432985305786, -0.015903443, -0.030581713, 0.010183334
513, 1216540310, -165.9804229736328, -80.1950454711914, 0.9858664274215698, -0.002996736, -0.044015456, -0.019058228
514, 1216556977, -165.9954376220703, -80.19575500488281, 0.9911797642707825, 0.020919053, 1.2410557E-4, -0.035681725
515, 1216573644, -166.01210021972656, -80.19538116455078, 0.9947609305381775, 0.017420147, 0.012396531, -0.05011463
516, 1216590311, -166.0125732421875, -80.19439697265625, 0.9864159226417542, 0.006901144, 0.042305972, -0.0064144135
517, 1216606978, -166.02587890625, -80.1928939819336, 1.0043842792510986, -0.013334545, 0.061550103, -0.008230209
518, 1216623645, -166.05206298828125, -80.19364166259766, 1.0421522855758667, -0.015306523, 0.017569795, -0.02068901
519, 1216640312, -166.06788635253906, -80.19518280029297, 1.0715000629425049, -0.021953924, -0.017100586, -0.025476456
520, 1216656979, -166.07769775390625, -80.1949691772461, 1.0896236896514893, 0.0067142383, -0.027265284, -0.005010605
521, 1216673646, -166.08839416503906, -80.196533203125, 1.0993586778640747, 0.0051363627, -0.03294307, -0.013327599
522, 1216690313, -166.10377502441406, -80.1977310180664, 1.1098144054412842, 0.009626452, -2.477641E-4, -0.0027475357
523, 1216706980, -166.11727905273438, -80.19865417480469, 1.1198365688323975, 0.01849905, 0.009283946, -0.01931572
524, 1216723647, -166.13461303710938, -80.19821166992188, 1.134996771812439, 0.012475341, 0.019842809, -0.021186829
525, 1216740314, -166.15499877929688, -80.19680786132812, 1.1530096530914307, 0.01670218, 0.045651346, -0.014931679
526, 1216756981, -166.1774139404297, -80.19470977783203, 1.1698352098464966, 0.010432453, -0.010443866, -0.021960258
527, 1216773648, -166.19740295410156, -80.19312286376953, 1.1750699281692505, 0.0069253254, -0.01803677, -0.019853592
528, 1216790315, -166.2076873779297, -80.19137573242188, 1.1654196977615356, 0.015128523, -0.04267069, -0.019247055
529, 1216806982, -166.21548461914062, -80.19071960449219, 1.1488192081451416, -0.015639257, -0.018094435, -0.015332222
530, 1216823649, -166.22874450683594, -80.19083404541016, 1.142796277999878, 0.0011091691, 0.005902139, -0.031798363
531, 1216840316, -166.23681640625, -80.192138671875, 1.1419953107833862, -0.02270951, 0.011058471, -0.017848969
532, 1216856983, -166.2379608154297, -80.19480895996094, 1.144121766090393, -0.02618068, 0.0035360309, -0.019021988
533, 1216873650, -166.22874450683594, -80.19941711425781, 1.1427431106567383, -0.038531058, -0.012418939, -0.015724182
534, 1216890317, -166.2080535888672, -80.20491790771484, 1.1299653053283691, -0.019368738, -0.026753439, -0.0053930283
535, 1216906984, -166.17141723632812, -80.21080017089844, 1.101292610168457, 0.004177499, -0.04626651, -0.0049419403
536, 1216923651, -166.13381958007812, -80.2160873413086, 1.0681604146957397, -0.009712441, -0.031190395, -0.009280205
537, 1216940318, -166.0950927734375, -80.222900390625, 1.0394327640533447, 0.0134072015, 0.020697467, -0.017692566
538, 1216956985, -166.05682373046875, -80.22881317138672, 1.0164756774902344, 0.021925252, -0.0010268744, -0.016645432
539, 1216973652, -166.02529907226562, -80.23259735107422, 1.0002816915512085, 0.043506145, 0.017784758, -0.023561478
540, 1216990319, -165.9951934814453, -80.23543548583984, 0.9805238246917725, 0.016471026, 0.008800655, -0.01703167
541, 1217006986, -165.9832763671875, -80.23738861083984, 0.9684469699859619, 0.03756636, -0.007910905, -0.028315544
542, 1217023653, -165.98928833007812, -80.23567962646484, 0.9657658934593201, 0.051813096, 0.024177117, -0.01763153
543, 1217040320, -166.0028839111328, -80.23284149169922, 0.9679149985313416, 0.018943233, 0.026738463, -0.026661873
544, 1217056987, -166.0198974609375, -80.22763061523438, 0.9778087139129639, 0.034877498, 0.023039995, -0.01000309
545, 1217073654, -166.01620483398438, -80.22346496582031, 0.9703158140182495, 0.010770824, 0.013152955, 0.015133858
546, 1217090321, -166.0171356201172, -80.21859741210938, 0.9708355069160461, -0.0067520123, 0.0075077442, 5.0735474E-4
547, 1217106988, -166.01992797851562, -80.2145767211914, 0.9664084911346436, -0.011991337, 0.017446248, -0.03209591
548, 1217123655, -166.02346801757812, -80.21055603027344, 0.963933527469635, -0.015008825, 0.026893247, -0.034256935
549, 1217140322, -166.02651977539062, -80.20596313476562, 0.9709398746490479, -1.1784721E-4, 0.01742641, -0.0038814545
550, 1217156989, -166.02076721191406, -80.20230865478516, 0.9721270799636841, -0.006492276, -0.019571353, -0.013981819
551, 1217173656, -166.0062255859375, -80.19873809814453, 0.968599796295166, 0.021445585, -0.019430205, -0.025179863
552, 1217190323, -165.982177734375, -80.19259643554688, 0.9618444442749023, 0.043444864, -0.02107269, -0.022888184
553, 1217206990, -165.9533233642578, -80.18672943115234, 0.9560139179229736, 0.01668828, 0.0026303004, -0.005127907
554, 1217223657, -165.90933227539062, -80.183837890625, 0.9406424760818481, -8.019505E-4, -0.011901506, -0.0076704025
555, 1217240324, -165.867919921875, -80.18157958984375, 0.9231106638908386, -0.020897882, -0.042038262, -0.017744064
556, 1217256991, -165.81057739257812, -80.18091583251953, 0.8794174194335938, -0.021147888, -0.0703977, -0.022774696
557, 1217273658, -165.7495574951172, -80.17953491210938, 0.8217910528182983, -0.0025704969, -0.0137576135, -0.016186714
558, 1217290325, -165.68873596191406, -80.1778335571289, 0.7604377269744873, -0.002248191, 0.027807917, -0.03988743
559, 1217306992, -165.6475372314453, -80.17687225341797, 0.7258961200714111, 0.016458258, 0.055068396, -0.022097588
560, 1217323659, -165.6196746826172, -80.1751937866211, 0.7117887735366821, 0.019825578, 0.014845004, -0.020655632
561, 1217340326, -165.59767150878906, -80.17329406738281, 0.6987676024436951, 0.04598232, 0.009914308, -0.01817131
562, 1217356993, -165.59664916992188, -80.16901397705078, 0.6932834982872009, 0.020799074, -0.03570938, -0.003353119
563, 1217373660, -165.5980224609375, -80.16349029541016, 0.6759823560714722, -0.0151067935, -0.010744771, -0.03186512
564, 1217390327, -165.5992889404297, -80.16155242919922, 0.6551196575164795, -0.019992696, 0.02431575, -0.008563995
565, 1217406994, -165.6085205078125, -80.15863800048828, 0.648709237575531, -0.043426536, 0.0345427, 0.0024642944
566, 1217423661, -165.6175537109375, -80.15765380859375, 0.6542481184005737, -0.022877682, 0.028626813, 0.0014429092
567, 1217440328, -165.62664794921875, -80.15825653076172, 0.6663814783096313, 0.0065052886, -0.004114706, -0.01290226
568, 1217456995, -165.6256103515625, -80.16087341308594, 0.6652616262435913, -0.017833589, -0.038630415, -0.029183388
569, 1217473662, -165.61972045898438, -80.16474914550781, 0.6551373600959778, -0.06259064, -0.018190267, -0.033798218
570, 1217490329, -165.5988311767578, -80.1724853515625, 0.6391929388046265, -0.08155271, 0.054867905, 0.0011768341
571, 1217506996, -165.58970642089844, -80.18408966064453, 0.6600431203842163, -0.08464841, 0.09607978, 0.0052747726
572, 1217523663, -165.57949829101562, -80.19893646240234, 0.6997155547142029, -0.049580384, 0.009586248, -0.018403053
573, 1217540330, -165.56039428710938, -80.2177505493164, 0.7238641381263733, 0.0022352273, -0.06343622, -0.009581566
574, 1217556997, -165.5319366455078, -80.23555755615234, 0.7169890999794006, 0.04215805, -0.08255747, 0.0061454773
575, 1217573664, -165.50143432617188, -80.2509536743164, 0.6943158507347107, 0.07270047, -0.0145228105, -0.017137527
576, 1217590331, -165.48374938964844, -80.25898742675781, 0.6938611268997192, 0.043058723, 0.07442216, -0.030883789
577, 1217606998, -165.49412536621094, -80.2717514038086, 0.7336137890815735, 0.06389024, 0.09413075, -0.031899452
578, 1217623665, -165.4998779296875, -80.2783432006836, 0.7848912477493286, 0.07098263, 0.04057833, -0.056263924
579, 1217640332, -165.5157012939453, -80.28153228759766, 0.8389807343482971, 0.08135796, -0.036795933, -0.020593643
580, 1217656999, -165.53651428222656, -80.28070831298828, 0.8669586777687073, 0.09049996, -0.061250318, 0.0031433105
581, 1217673666, -165.57162475585938, -80.27633666992188, 0.888746440410614, 0.09655502, -0.03892506, -0.04151535
582, 1217690333, -165.60411071777344, -80.26659393310547, 0.9004552364349365, 0.07279186, 0.0023946061, -0.039829254
583, 1217707000, -165.64439392089844, -80.2537612915039, 0.9162184596061707, 0.032772817, 0.011162014, -0.036406517
584, 1217723667, -165.66876220703125, -80.24178314208984, 0.9078773856163025, 0.009734918, -0.044404704, -0.007890701
585, 1217740334, -165.6874542236328, -80.23092651367188, 0.8792925477027893, -0.017509481, -0.07378917, -0.0052480698
586, 1217757001, -165.68963623046875, -80.22782897949219, 0.8292079567909241, -0.06883741, -0.038400978, 0.006494522
587, 1217773668, -165.6732940673828, -80.22575378417969, 0.7664300799369812, -0.044603653, -0.0071929265, -0.010205269
588, 1217790335, -165.64834594726562, -80.22559356689453, 0.7048646807670593, -0.02816301, 0.0134188235, 6.866455E-5
589, 1217807002, -165.62425231933594, -80.22503662109375, 0.6533533930778503, -0.012889189, -7.967678E-4, -0.030823708
590, 1217823669, -165.59559631347656, -80.22518920898438, 0.6046518683433533, -0.007915753, 0.0024490315, -0.025698662
591, 1217840336, -165.5626678466797, -80.22716522216797, 0.5486739873886108, 0.010399451, 0.021021338, 0.0020551682
592, 1217857003, -165.54159545898438, -80.22509765625, 0.5069774389266968, 0.015941327, 0.01928302, -0.009509087
593, 1217873670, -165.52774047851562, -80.22332000732422, 0.46776822209358215, 0.026344718, 0.0010396147, -0.007332802
594, 1217890337, -165.50607299804688, -80.2200698852539, 0.41696101427078247, 0.01868129, 0.018594882, -0.02909565
595, 1217907004, -165.49404907226562, -80.2155990600586, 0.37850311398506165, 0.03080225, 0.010649443, -0.028225899
596, 1217923671, -165.48402404785156, -80.20889282226562, 0.3470531105995178, 0.07859694, -0.009295122, -0.0185709
597, 1217940338, -165.48983764648438, -80.20106506347656, 0.3308864235877991, -0.003540019, 0.02204268, -0.006586075
598, 1217957005, -165.49765014648438, -80.19314575195312, 0.32371002435684204, 8.03543E-4, 0.003646949, -0.01840496
599, 1217973672, -165.50204467773438, -80.18466186523438, 0.32043716311454773, 0.017733442, 0.014402057, -0.028471947
600, 1217990339, -165.5178985595703, -80.17527770996094, 0.3258734345436096, -0.005766907, 0.0060497695, -0.024965286
601, 1218007006, -165.5518798828125, -80.16387176513672, 0.34273219108581543, 0.024168357, -0.0034360087, -0.02413559
602, 1218023673, -165.5955352783203, -80.15497589111328, 0.3617132008075714, 0.01405103, -0.008101283, -0.03309536
603, 1218040340, -165.65277099609375, -80.14306640625, 0.3917059600353241, 0.0010303039, 0.04885278, -0.013341904
604, 1218057007, -165.6793670654297, -80.1327896118164, 0.3988637924194336, -0.046371, -0.060080897, 0.011463165
605, 1218073674, -165.67921447753906, -80.12311553955078, 0.37199878692626953, -0.028568322, -0.104394406, 0.03907013
606, 1218090341, -165.646240234375, -80.11590576171875, 0.3095203638076782, -0.027420277, -0.040273737, 0.006705284
607, 1218107008, -165.6100616455078, -80.10872650146484, 0.2643168270587921, -0.020695252, 0.015965251, -0.039274216
608, 1218123675, -165.57192993164062, -80.10108184814453, 0.238203763961792, -0.011251719, 0.052502356, -0.012999535
609, 1218140342, -165.5311737060547, -80.09503936767578, 0.22650279104709625, 0.010945129, 0.03246425, 0.012385368
610, 1218157009, -165.48301696777344, -80.08781433105469, 0.2093174010515213, 0.015198252, -0.039537262, 0.010023117
611, 1218173676, -165.41281127929688, -80.07659149169922, 0.16072413325309753, 0.04665979, -0.10019706, 0.01905632
612, 1218190343, -165.31613159179688, -80.05870819091797, 0.07137183099985123, 0.03923026, -0.118547976, 0.07080364
613, 1218207010, -165.20335388183594, -80.03939056396484, -0.04410272464156151, 0.042913154, -0.07065105, 0.0023088455
614, 1218223677, -165.13259887695312, -80.02798461914062, -0.09873411804437637, -0.017287722, 0.08894804, -0.16080952
615, 1218240344, -165.0894317626953, -80.02044677734375, -0.08541371673345566, -0.050561927, 0.12741278, -0.14913559
616, 1218257011, -165.0382843017578, -80.0141830444336, -0.045326314866542816, -0.074463814, 0.067690454, 0.009881973
617, 1218273678, -164.99932861328125, -80.01658630371094, 0.010223854333162308, -0.086875685, -0.025566027, 0.037896156
618, 1218290345, -164.97174072265625, -80.02366638183594, 0.05641317367553711, -0.05066407, -0.14767194, -0.038404465
619, 1218307012, -164.91123962402344, -80.0346908569336, 0.04132857918739319, -0.044186555, -0.16017056, -0.045873642
620, 1218323679, -164.82550048828125, -80.04908752441406, 0.002816192340105772, -0.017131556, 0.015238331, 0.019479752
621, 1218340346, -164.72608947753906, -80.06086730957031, -0.014893798157572746, -0.03323241, 0.11202095, 0.042546272
622, 1218357013, -164.6614227294922, -80.07637023925781, 0.02969490736722946, -0.017036507, 0.12730443, -0.02304554
623, 1218373680, -164.59861755371094, -80.09749603271484, 0.09487204253673553, -0.037709344, 0.06258776, -0.049790382
624, 1218390347, -164.53573608398438, -80.1159896850586, 0.14753137528896332, -0.039675582, -0.04684731, -0.012103081
625, 1218407014, -164.46067810058594, -80.14232635498047, 0.15887847542762756, -0.05064317, -0.0835007, 0.018464088
626, 1218423681, -164.3829345703125, -80.17909240722656, 0.14343476295471191, -0.13826647, 0.01046633, -0.003036499
627, 1218440348, -164.30679321289062, -80.22328186035156, 0.1488875299692154, -0.17419416, 0.043211926, 0.008687973
628, 1218457015, -164.18600463867188, -80.27631378173828, 0.1466086506843567, -0.13148119, 0.03110954, 0.050061226
629, 1218473682, -164.06390380859375, -80.33651733398438, 0.16038629412651062, -0.12971336, -0.031363226, 0.02029705
630, 1218490349, -163.91737365722656, -80.40753173828125, 0.15194055438041687, -0.059298582, -0.070524596, -0.022187233
631, 1218507016, -163.7474822998047, -80.48335266113281, 0.10010267049074173, -0.08188931, -0.12347973, -0.051340103
632, 1218523683, -163.55734252929688, -80.56372833251953, -0.0011508597526699305, -0.026407853, -0.10158016, -0.019441605
633, 1218540350, -163.3575439453125, -80.6436767578125, -0.1360265612602234, 0.028457027, -0.0015073714, 0.004263878
634, 1218557017, -163.19515991210938, -80.7232666015625, -0.23734010756015778, 0.10377798, 0.08405881, -0.05697632
635, 1218573684, -163.07350158691406, -80.79252624511719, -0.30259642004966736, 0.23028111, 0.12018822, -0.08427429
636, 1218590351, -162.9786376953125, -80.84931945800781, -0.35349342226982117, 0.279699, 0.09085981, -0.0048103333
637, 1218607018, -162.9520263671875, -80.8956298828125, -0.36819005012512207, 0.28779534, 0.06373735, -0.008877754
638, 1218623685, -163.00424194335938, -80.92890167236328, -0.3350858688354492, 0.24489364, 0.0867313, -0.07280636
639, 1218640352, -163.0957489013672, -80.94627380371094, -0.26617807149887085, 0.2420573, 0.11917711, -0.08440399
640, 1218657019, -163.1968536376953, -80.95645904541016, -0.1923208087682724, 0.20037222, 0.019093147, -0.051052094
641, 1218673686, -163.3208770751953, -80.95975494384766, -0.12290754914283752, 0.1112069, -0.015937703, -0.027245522
642, 1218690353, -163.44061279296875, -80.96086883544922, -0.08560555428266525, 0.08694711, -0.062303398, 0.018576622
643, 1218707020, -163.56703186035156, -80.95771789550781, -0.06533544510602951, 0.037720457, -0.011704759, -0.020080566
644, 1218723687, -163.7086944580078, -80.9588851928711, -0.018385304138064384, -0.09221473, -0.0030170337, -0.097088814
645, 1218740354, -163.83970642089844, -80.96234130859375, 0.043850746005773544, -0.14399227, 0.022041172, -0.034457207
646, 1218757021, -163.9550323486328, -80.96993255615234, 0.11455464363098145, -0.109667666, 0.03554912, 0.027915
647, 1218773688, -164.05979919433594, -80.98005676269531, 0.18757891654968262, -0.08033932, -0.03949211, 0.017819405
648, 1218790355, -164.1492156982422, -80.9939193725586, 0.23925898969173431, -0.02227864, -0.09532777, -0.016295433
649, 1218807022, -164.2411346435547, -81.00981903076172, 0.2778245210647583, 0.0034514032, -0.074278995, -0.035736084
650, 1218823689, -164.29428100585938, -81.02629089355469, 0.28153640031814575, 0.043776296, 0.007945271, -0.003920555
651, 1218840356, -164.3139190673828, -81.0409927368164, 0.27797600626945496, 0.033944737, 0.020283801, 0.032847404
652, 1218857023, -164.3511962890625, -81.05473327636719, 0.3072659373283386, 0.078767054, 0.011118205, 0.0038881302
653, 1218873690, -164.40382385253906, -81.06712341308594, 0.3548368215560913, 0.06855262, 0.04116153, -0.062314034
654, 1218890357, -164.4648895263672, -81.07813262939453, 0.4146485924720764, 0.013532738, 0.0660487, -0.04383278
655, 1218907024, -164.55078125, -81.09232330322266, 0.5111585855484009, 0.0017557571, 0.07136288, -0.018449783
656, 1218923691, -164.65029907226562, -81.10430908203125, 0.6260198950767517, 0.009817394, 0.052195694, -0.030321121
657, 1218940358, -164.77059936523438, -81.11463165283203, 0.7493237257003784, 0.02420954, 0.003975178, -0.031040192
658, 1218957025, -164.90945434570312, -81.126220703125, 0.8726344704627991, 0.03575056, -0.024854474, -0.02034378
659, 1218973692, -165.04177856445312, -81.13494110107422, 0.981332540512085, 0.064606555, 0.034811918, -0.02560234
660, 1218990359, -165.18894958496094, -81.14330291748047, 1.1153134107589722, 0.058164112, 0.08262989, -0.022039413
661, 1219007026, -165.34674072265625, -81.15269470214844, 1.2659708261489868, 0.008169888, 0.020595992, -0.029335976
662, 1219023693, -165.46685791015625, -81.16600036621094, 1.3937419652938843, 0.010629194, -0.028239297, -0.0022907257
663, 1219040360, -165.5570526123047, -81.178955078125, 1.5090397596359253, 0.073566765, -0.053634394, -0.006962776
664, 1219057027, -165.6416473388672, -81.18869018554688, 1.6261192560195923, 0.074059196, -0.047857758, -0.04414749
665, 1219073694, -165.72872924804688, -81.19987487792969, 1.738110065460205, 0.027452106, -0.012308188, -0.050369263
666, 1219090361, -165.7849884033203, -81.21226501464844, 1.8163098096847534, 0.0029324342, -0.022298826, -0.02362442
667, 1219107028, -165.81260681152344, -81.22560119628906, 1.857472538948059, 0.008512128, -0.03838265, 0.02163601
668, 1219123695, -165.8212432861328, -81.24431610107422, 1.8559517860412598, -0.008667399, -0.04229826, 0.027308464
669, 1219140362, -165.8409423828125, -81.2702865600586, 1.8396856784820557, -0.042738535, 0.052932225, -0.039643288
670, 1219157029, -165.8119354248047, -81.29714965820312, 1.7924668788909912, 0.027799033, 0.044518583, -0.100850105
671, 1219173696, -165.80386352539062, -81.3224868774414, 1.787075400352478, -0.025845466, 0.0032351266, -0.003255844
672, 1219190363, -165.8884735107422, -81.34998321533203, 1.9153581857681274, 0.11534272, 0.1423444, 0.14366245
673, 1219207030, -166.36265563964844, -81.3675765991211, 2.481919050216675, 0.3739435, 0.367935, 0.2042408
674, 1219223697, -166.97564697265625, -81.35218811035156, 3.226813316345215, 0.5095211, 0.36432958, -0.026395798
675, 1219240364, -167.51239013671875, -81.30708312988281, 3.916414737701416, 0.58284545, 0.26820466, -0.18473148
676, 1219257031, -168.08493041992188, -81.23007202148438, 4.62461519241333, 0.43523693, 0.26961115, -0.25479794
677, 1219273698, -168.71182250976562, -81.12345886230469, 5.38385534286499, 0.24531391, 0.08476041, -0.11993408
678, 1219290365, -169.22341918945312, -81.00125885009766, 6.014242649078369, 0.058681224, -0.10817524, -0.007376671
679, 1219307032, -169.64947509765625, -80.88197326660156, 6.503028869628906, -0.13483153, -0.2896844, -0.01913929
680, 1219323699, -169.97787475585938, -80.7701416015625, 6.854747295379639, -0.16556627, -0.41226545, -0.09768009
681, 1219340366, -170.1619415283203, -80.6685562133789, 7.058338165283203, -0.19818819, -0.3784162, -0.08538437
682, 1219357033, -170.2406463623047, -80.5764389038086, 7.188995361328125, -0.20758878, -0.15219562, -0.055784225
683, 1219373700, -170.27969360351562, -80.49022674560547, 7.337934494018555, -0.09465626, 0.089176364, 0.004395485
684, 1219390367, -170.35252380371094, -80.3916015625, 7.5481719970703125, -0.021984454, 0.15172395, -0.0065927505
685, 1219407034, -170.46173095703125, -80.29402160644531, 7.7646002769470215, 0.047092028, -0.008120505, -0.03131485
686, 1219423701, -170.62258911132812, -80.19967651367188, 7.962166786193848, 0.15676525, -0.05177013, -0.025355339
687, 1219440368, -170.8439178466797, -80.09786224365234, 8.149714469909668, 0.34550962, 0.050601266, 0.0038022995
688, 1219457035, -171.17794799804688, -79.97991943359375, 8.369140625, 0.51509434, 0.12967394, -0.044272423
689, 1219473702, -171.5926971435547, -79.83740234375, 8.633984565734863, 0.7740803, 0.23793468, -0.16723251
690, 1219490369, -172.04147338867188, -79.65061950683594, 8.944058418273926, 0.7925535, 0.22400837, -0.21215057
691, 1219507036, -172.5688018798828, -79.41867065429688, 9.36073112487793, 0.6006827, 0.42832664, -0.2056694
692, 1219523703, -173.1749267578125, -79.17062377929688, 9.89369010925293, 0.010313558, 0.3360373, -0.12024021
693, 1219540370, -173.80145263671875, -78.90216827392578, 10.509450912475586, 0.08178111, 0.28012532, -0.22780609
694, 1219557037, -174.56906127929688, -78.56941986083984, 11.305407524108887, 0.7012355, 0.60816914, -0.15303135
695, 1219573704, -175.50953674316406, -78.2052001953125, 12.182089805603027, 0.6697796, 0.22068043, 0.11152363
696, 1219590371, -176.64898681640625, -77.82707977294922, 13.100384712219238, 0.44864187, 0.2392458, -0.19840717
697, 1219607038, -177.7749786376953, -77.4049301147461, 14.055699348449707, 0.44934663, 0.39794627, -0.5335245
698, 1219623705, -178.89088439941406, -76.96013641357422, 15.027795791625977, -0.05123449, 0.1830879, -0.21153831
699, 1219640372, 179.9108123779297, -76.48943328857422, 16.02272605895996, 0.07727407, 0.13840543, -0.12566757
700, 1219657039, 178.69827270507812, -75.99032592773438, 17.026704788208008, 0.3452735, 0.30484238, -0.19526958
701, 1219673706, 177.57139587402344, -75.48082733154297, 17.943540573120117, 0.13302246, -0.087599814, -0.111741066
702, 1219690373, 176.42715454101562, -74.97406005859375, 18.775611877441406, -0.31458127, -0.20133282, -0.073937416
703, 1219707040, 175.22348022460938, -74.45581817626953, 19.574844360351562, -0.3874693, 0.03806012, -0.19967079
704, 1219723707, 174.05543518066406, -73.91702270507812, 20.368549346923828, -0.2431798, 0.26569232, -0.1931696
705, 1219740374, 172.97634887695312, -73.3575210571289, 21.185516357421875, 0.077568024, 0.3602451, 0.024410248
706, 1219757041, 171.9285125732422, -72.7630615234375, 22.015775680541992, 0.411293, 0.17306937, -0.121040344
707, 1219773708, 170.92970275878906, -72.16239929199219, 22.799577713012695, 0.3268546, 0.061126407, -0.41338444
708, 1219790375, 170.02310180664062, -71.5641098022461, 23.50224494934082, 0.013810419, -0.24370667, -0.4374733
709, 1219807042, 169.12542724609375, -70.98989868164062, 24.164766311645508, -0.6189931, -0.7254789, -0.076132774
710, 1219823709, 168.289794921875, -70.4098129272461, 24.764860153198242, -0.4141741, -0.1691568, -0.07452774
711, 1219840376, 167.63124084472656, -69.78694915771484, 25.27180290222168, 0.018225415, 0.51824534, -0.049102783
712, 1219857043, 167.19996643066406, -69.12686920166016, 25.71973991394043, 0.6051753, 0.62916714, -0.22480679
713, 1219873710, 166.8680419921875, -68.45616149902344, 26.161945343017578, 0.5791699, 0.07333549, -0.18196201
714, 1219890377, 166.5718536376953, -67.80358123779297, 26.55649185180664, 0.6381141, -0.21437876, -0.3522911
715, 1219907044, 166.2670440673828, -67.17821502685547, 26.88393783569336, -0.17468403, -0.64135724, -0.17710686
716, 1219923711, 165.99754333496094, -66.56071472167969, 27.148435592651367, -0.21436188, -0.41859752, -0.36276627
717, 1219940378, 165.8770751953125, -65.9048843383789, 27.304988861083984, 0.00885118, 0.0074054035, -0.22074032
718, 1219957045, 165.9148712158203, -65.23582458496094, 27.35616111755371, 0.45190793, 0.23189932, -0.14579391
719, 1219973712, 166.0578155517578, -64.5640640258789, 27.340274810791016, 0.39593804, -0.07048329, -0.10854626
720, 1219990379, 166.18704223632812, -63.90956115722656, 27.31210708618164, 0.2838497, -0.45424363, -0.30821228
721, 1220007046, 166.2364044189453, -63.27711868286133, 27.274459838867188, -0.29705623, -0.59157825, -0.22525787
722, 1220023713, 166.20327758789062, -62.68401336669922, 27.2596378326416, -0.8762426, -0.524528, -0.23864174
723, 1220040380, 166.25062561035156, -62.08507537841797, 27.218820571899414, -0.808349, 0.43673447, -0.26781845
724, 1220057047, 166.40110778808594, -61.464134216308594, 27.196584701538086, -0.1517764, 1.046624, 0.0053749084
725, 1220073714, 166.58941650390625, -60.83348846435547, 27.242334365844727, 0.17970623, 0.8803365, -0.073996544
726, 1220090381, 166.71498107910156, -60.214805603027344, 27.375993728637695, -0.004178973, 0.35738045, 0.07529259
727, 1220107048, 166.70263671875, -59.62627410888672, 27.572345733642578, -0.4240367, -0.18504934, 0.32153702
728, 1220123715, 166.61126708984375, -59.06117248535156, 27.80219078063965, -0.69696736, -0.3178685, -0.036429405
729, 1220140382, 166.4979705810547, -58.4725456237793, 28.02195167541504, -0.558587, -0.033294335, -0.33903503
730, 1220157049, 166.3672332763672, -57.90288162231445, 28.232227325439453, -0.32491383, -0.05224435, 0.010554314
731, 1220173716, 166.0843048095703, -57.359519958496094, 28.4537410736084, -0.31345615, -0.27783245, 0.107471466
732, 1220190383, 165.713134765625, -56.84824752807617, 28.715478897094727, -0.4427322, -0.15126833, -0.27525043
733, 1220207050, 165.53343200683594, -56.280609130859375, 28.950969696044922, -0.026908316, 0.117272206, -0.5964823
734, 1220223717, 165.50888061523438, -55.721561431884766, 29.148529052734375, -0.0864842, -0.8082821, 0.3496523
735, 1220240384, 165.36080932617188, -55.191165924072266, 29.341196060180664, -0.3866284, -1.0719179, 0.6681862
736, 1220257051, 165.12841796875, -54.68535614013672, 29.527950286865234, -0.26306713, -0.15564194, 0.21609402
737, 1220273718, 164.9922637939453, -54.195411682128906, 29.68836784362793, -0.080226034, 0.65630645, -0.14316463
738, 1220290385, 165.0237579345703, -53.734004974365234, 29.85226821899414, 0.08398994, 0.23425402, 0.1499958
739, 1220307052, 165.16416931152344, -53.30060958862305, 29.98890495300293, -0.43339816, -0.86471325, 0.47698307
740, 1220323719, 165.17041015625, -52.88361740112305, 30.099414825439453, -0.5321003, -1.0374905, 0.40833282
741, 1220340386, 165.05271911621094, -52.467384338378906, 30.184186935424805, -0.013251427, -0.70116675, 0.16863728
742, 1220357053, 164.84341430664062, -52.09150314331055, 30.22674560546875, 0.38360947, -0.15012182, 0.07855415
743, 1220373720, 164.68588256835938, -51.814361572265625, 30.23001480102539, 0.05043376, 0.0031019363, 0.34507942
744, 1220390387, 164.65158081054688, -51.58710479736328, 30.193668365478516, -0.49577117, 0.028214976, 0.2488308
745, 1220407054, 164.720947265625, -51.324100494384766, 30.185461044311523, -0.64649785, 0.35119125, -0.2542057
746, 1220423721, 164.8536834716797, -51.02201843261719, 30.226797103881836, -0.3057978, 0.41916236, 0.061395645
747, 1220440388, 164.95266723632812, -50.73391342163086, 30.335783004760742, -0.07722938, 0.12373948, 0.12625313
748, 1220457055, 165.0357208251953, -50.50094223022461, 30.433683395385742, 0.03773619, -0.3406252, 0.1829691
749, 1220473722, 165.08583068847656, -50.324581146240234, 30.46815299987793, -0.015528416, -0.5087296, 0.3987112
750, 1220490389, 165.0736083984375, -50.17523956298828, 30.495080947875977, -0.44555748, -0.80191857, 0.14807892
751, 1220507056, 165.0427703857422, -50.00883483886719, 30.49700355529785, -0.22397017, -0.45719758, -0.020210266
752, 1220523723, 165.01388549804688, -49.88252258300781, 30.450138092041016, 0.0058564516, -0.32616574, 0.44054985
753, 1220540390, 164.93309020996094, -49.78363037109375, 30.390844345092773, -0.23062108, -0.0066518895, 0.040763855
754, 1220557057, 164.9861297607422, -49.71208190917969, 30.3212833404541, -0.24017504, 0.42797273, -0.021835327
755, 1220573724, 165.183349609375, -49.65472412109375, 30.25531005859375, -0.24239142, 0.29500788, 0.17406464
756, 1220590391, 165.38352966308594, -49.592411041259766, 30.248899459838867, -0.5255428, -0.15681738, 0.096731186
757, 1220607058, 165.55064392089844, -49.49342346191406, 30.275005340576172, -0.61981833, -0.3391945, -0.041568756
758, 1220623725, 165.6554412841797, -49.42563247680664, 30.29490852355957, -0.1625931, -0.054648638, 0.345253
759, 1220640392, 165.6978302001953, -49.4401741027832, 30.308530807495117, -0.118273064, -0.4867151, 0.54804516
760, 1220657059, 165.6725616455078, -49.4687614440918, 30.29754066467285, -0.43817854, -0.8461298, 0.107224464
761, 1220673726, 165.60089111328125, -49.529396057128906, 30.253131866455078, -0.3347819, -0.46129832, 0.40589905
762, 1220690393, 165.51388549804688, -49.66276550292969, 30.19049835205078, -0.32412446, -0.2465432, 0.6973753
763, 1220707060, 165.47445678710938, -49.826358795166016, 30.147785186767578, -0.39710855, -0.21171978, 0.08905983
764, 1220723727, 165.53929138183594, -49.99971008300781, 30.07908821105957, -0.39775172, -0.56794953, 0.080174446
765, 1220740394, 165.58346557617188, -50.219295501708984, 29.960792541503906, -0.27691036, -0.31689543, 0.49536133
766, 1220757061, 165.60438537597656, -50.46998977661133, 29.832828521728516, -0.34925085, -0.08304537, 0.1300211
767, 1220773728, 165.6630859375, -50.74651336669922, 29.714351654052734, -0.41154784, 0.41282958, 0.050066948
768, 1220790395, 165.78514099121094, -51.07012939453125, 29.645244598388672, -0.5358303, 0.43632796, 0.37825775
769, 1220807062, 165.93606567382812, -51.414241790771484, 29.650861740112305, -0.67806, 0.13353957, 0.17146778
770, 1220823729, 166.0186309814453, -51.744876861572266, 29.714195251464844, -0.51845217, 0.08762615, 0.106897354
771, 1220840396, 165.9435272216797, -52.1186408996582, 29.8465576171875, -0.59520066, -0.15264615, 0.5177622
772, 1220857063, 165.73155212402344, -52.52870178222656, 30.041105270385742, -0.56210274, -0.1591461, 0.17949772
773, 1220873730, 165.5574188232422, -52.98452377319336, 30.205276489257812, -0.44150195, -0.40583232, 0.24292088
774, 1220890397, 165.4438934326172, -53.50124740600586, 30.308319091796875, -0.19996147, -0.5729463, 0.536355
775, 1220907064, 165.3164520263672, -54.063987731933594, 30.370891571044922, -0.17908537, -0.9214877, 0.86023426
776, 1220923731, 165.13211059570312, -54.68362808227539, 30.420501708984375, -0.5861865, -0.98801243, 0.4244957
777, 1220940398, 165.04237365722656, -55.30718231201172, 30.412490844726562, -0.5286125, -0.48240176, -0.16552067
778, 1220957065, 165.13499450683594, -55.97391891479492, 30.300628662109375, -0.23349743, -0.36092845, 0.18647861
779, 1220973732, 165.29124450683594, -56.704132080078125, 30.137744903564453, -0.39324737, -0.46937022, 0.5207987
780, 1220990399, 165.49900817871094, -57.47409439086914, 29.9270076751709, -0.39582223, -0.48564503, 0.064463615
781, 1221007066, 165.728759765625, -58.29201126098633, 29.70757293701172, -0.40669125, -0.27202246, -0.0071258545
782, 1221023733, 165.8661651611328, -59.13543701171875, 29.51980209350586, -0.79687023, -0.28783938, 0.4038105
783, 1221040400, 166.00473022460938, -60.01493453979492, 29.35704803466797, -0.5317908, -0.17614992, -0.062981606
784, 1221057067, 166.21311950683594, -60.93522644042969, 29.149574279785156, -0.7046456, -0.33456835, 0.38153934
785, 1221073734, 166.49195861816406, -61.9623908996582, 28.865083694458008, -0.5307441, -0.3907482, 0.38142872
786, 1221090401, 166.8946990966797, -63.062591552734375, 28.498796463012695, -0.1972923, -0.46460363, 0.29878807
787, 1221107068, 167.24026489257812, -64.20439910888672, 28.01624870300293, -0.44692156, -1.0325147, 0.33810616
788, 1221123735, 167.50540161132812, -65.39213562011719, 27.41617774963379, -0.77162516, -1.1044513, -0.60944843
789, 1221140402, 167.9381103515625, -66.53897857666016, 26.686481475830078, -0.71269196, -0.04372964, -1.0184298
790, 1221157069, 168.78048706054688, -67.63802337646484, 25.78899383544922, -0.16023488, 0.7548895, -0.33479595
791, 1221173736, 170.0168914794922, -68.7541732788086, 24.86820411682129, 0.009407506, 0.7342684, 0.027941704
792, 1221190403, 171.43545532226562, -69.91224670410156, 23.97063446044922, 0.18946666, 0.25243682, -0.21169949
793, 1221207070, 172.6956787109375, -71.04885864257812, 22.97638511657715, -0.14798641, -0.4950422, -0.5499182
794, 1221223737, 173.9618377685547, -72.15807342529297, 21.84841537475586, -0.10127443, -0.47863668, -1.3004541
795, 1221240404, 175.285400390625, -73.13458251953125, 20.571352005004883, 0.44979554, 0.27265206, -1.0267363
796, 1221257071, 176.60623168945312, -74.03346252441406, 19.209957122802734, 0.9446672, 0.47899336, -0.436965
797, 1221273738, 177.9210662841797, -74.8827133178711, 17.81717300415039, 1.5387999, 0.6717383, -0.47640324
798, 1221290405, 179.1796875, -75.6650619506836, 16.414098739624023, 1.5371411, 0.37040448, -0.7279854
799, 1221307072, -179.6453857421875, -76.35791015625, 14.904635429382324, 1.1004888, 0.027631454, -0.9714575
800, 1221323739, -178.56930541992188, -76.91569519042969, 13.365116119384766, 1.043697, 0.4011961, -1.0970058
801, 1221340406, -177.4562225341797, -77.34148406982422, 11.876858711242676, 1.0164886, 1.1627088, -0.43057346
802, 1221357073, -176.4652099609375, -77.68460845947266, 10.735872268676758, 1.12913, 1.4262893, -0.09999275
803, 1221373740, -175.59349060058594, -77.9775619506836, 9.905267715454102, 1.0775266, 1.2206639, -0.12688923
804, 1221390407, -174.76553344726562, -78.19866180419922, 9.250984191894531, 1.0875398, 0.8583102, -0.25694656
805, 1221407074, -174.1336212158203, -78.33596801757812, 8.798371315002441, 0.7049638, 0.29236284, -0.32318783
806, 1221423741, -173.77500915527344, -78.4189224243164, 8.540619850158691, 0.3435236, 0.095143266, -0.18703175
807, 1221440408, -173.51840209960938, -78.47742462158203, 8.320025444030762, 0.16866222, 0.33648556, -0.045516014
808, 1221457075, -173.3203887939453, -78.52848052978516, 8.164168357849121, -0.043934938, 0.12831259, -0.054903984
809, 1221473742, -173.15650939941406, -78.546630859375, 8.105051040649414, 0.1782411, 0.15127128, -0.11829567
810, 1221490409, -173.07264709472656, -78.54798889160156, 8.132793426513672, 0.16338554, 0.18195228, 0.0021629333
811, 1221507076, -172.9857940673828, -78.5383071899414, 8.174683570861816, 0.2351212, 0.22258522, 0.063928604
812, 1221523743, -172.93775939941406, -78.50662231445312, 8.309266090393066, 0.44780463, 0.4585504, 0.0032949448
813, 1221540410, -172.94168090820312, -78.45646667480469, 8.571642875671387, 0.3913946, 0.25829884, -0.12531376
814, 1221557077, -172.96995544433594, -78.3775863647461, 8.882431030273438, 0.28667825, 0.049564667, -0.2412653
815, 1221573744, -173.00125122070312, -78.29314422607422, 9.163792610168457, 0.17389312, -0.26144412, -0.015035629
816, 1221590411, -173.06793212890625, -78.21551513671875, 9.353621482849121, 0.013878485, -0.4258205, -0.006341934
817, 1221607078, -173.1449737548828, -78.13776397705078, 9.436379432678223, 0.04601915, -0.40779185, -0.16256428
818, 1221623745, -173.1962890625, -78.03331756591797, 9.457535743713379, 0.1456816, 0.07876613, -0.04510975
819, 1221640412, -173.2019805908203, -77.93685150146484, 9.409568786621094, -0.080275476, -0.048591103, 0.31795406
820, 1221657079, -173.272705078125, -77.85292053222656, 9.429500579833984, -0.02546064, 0.21773542, 0.036179543
821, 1221673746, -173.37991333007812, -77.77841186523438, 9.552762031555176, -0.25367293, 0.23595245, -0.13363361
822, 1221690413, -173.43386840820312, -77.71351623535156, 9.72256851196289, -0.20002976, 0.196527, -0.13592339
823, 1221707080, -173.4592742919922, -77.6647720336914, 9.94467830657959, -0.24570589, -0.046506733, 0.055728912
824, 1221723747, -173.48619079589844, -77.64252471923828, 10.095231056213379, -0.2603666, -0.49489322, 0.07390022
825, 1221740414, -173.47671508789062, -77.63166809082031, 10.168429374694824, -0.112084016, -0.18033193, -0.1040287
826, 1221757081, -173.51031494140625, -77.60865783691406, 10.276057243347168, 0.037632547, 0.028078312, -0.03183651
827, 1221773748, -173.538818359375, -77.60551452636719, 10.349634170532227, -0.075175166, -0.13889156, 0.06954765
828, 1221790415, -173.59815979003906, -77.60818481445312, 10.444374084472656, -0.020334901, 0.040000383, -0.032156944
829, 1221807082, -173.63623046875, -77.6215591430664, 10.552413940429688, -0.24417455, 0.012516446, 0.044672966
830, 1221823749, -173.5897674560547, -77.66069793701172, 10.620037078857422, -0.4233259, -0.11004325, 0.12507439
831, 1221840416, -173.5465850830078, -77.71939086914062, 10.697556495666504, -0.43058822, -0.107760176, 0.11193085
832, 1221857083, -173.55320739746094, -77.79301452636719, 10.741052627563477, -0.36872882, -0.062673256, -0.0277071
833, 1221873750, -173.5704803466797, -77.8699722290039, 10.778153419494629, -0.14357394, 0.04155916, -0.09790325
834, 1221890417, -173.58392333984375, -77.95649719238281, 10.791862487792969, -0.1834617, -0.12901346, 0.19630527
835, 1221907084, -173.68580627441406, -78.05384826660156, 10.840555191040039, -0.10187973, 0.011356303, 0.15542984
836, 1221923751, -173.9464111328125, -78.14729309082031, 11.057456970214844, -0.042958546, 0.22166032, -0.1460638
837, 1221940418, -174.1967315673828, -78.2586669921875, 11.259142875671387, -0.27981648, -0.2266617, -0.1768198
838, 1221957085, -174.3319854736328, -78.40091705322266, 11.304376602172852, -0.32991943, -0.506117, -0.10169697
839, 1221973752, -174.47943115234375, -78.57205963134766, 11.31185531616211, -0.2255108, -0.38679895, 0.08457756
840, 1221990419, -174.70579528808594, -78.74076080322266, 11.345927238464355, -0.15291505, -0.017838122, 0.23773289
841, 1222007086, -175.11062622070312, -78.90350341796875, 11.459416389465332, -0.012425756, 0.21730757, 0.076462746
842, 1222023753, -175.74832153320312, -79.01131439208984, 11.70181655883789, 0.5349198, 0.48537683, -0.35359383
843, 1222040420, -176.43972778320312, -79.11326599121094, 11.949052810668945, 0.25570905, -0.3169668, -0.32365513
844, 1222057087, -177.07321166992188, -79.20681762695312, 12.077984809875488, 0.24117914, -0.68485194, -0.20694065
845, 1222073754, -177.87339782714844, -79.24384307861328, 12.240025520324707, 0.53964686, -0.10980275, -0.031921387
846, 1222090421, -178.90155029296875, -79.17623901367188, 12.527341842651367, 1.0323106, 0.29214215, -0.058348656
847, 1222107088, 179.84767150878906, -78.99840545654297, 12.962287902832031, 0.6372467, -0.048655696, -0.11017513
848, 1222123755, 178.3620147705078, -78.74175262451172, 13.73588752746582, 0.35757637, 0.612879, -0.22350025
849, 1222140422, 176.7933349609375, -78.47502899169922, 14.885740280151367, 0.5622605, 1.347158, 0.029899597
850, 1222157089, 175.16746520996094, -78.20703887939453, 16.3681697845459, 0.36153615, 1.3321708, -0.11408615
851, 1222173756, 173.76123046875, -77.9214859008789, 17.847763061523438, 0.4265882, 1.2985406, -0.60102177
852, 1222190423, 172.7225341796875, -77.63719940185547, 19.134931564331055, 0.24001595, 0.5060049, -0.39500904
853, 1222207090, 171.66322326660156, -77.31212615966797, 20.346981048583984, 0.21756214, -0.5274474, 0.061332703
854, 1222223757, 170.5037841796875, -76.94635772705078, 21.460779190063477, 0.41999477, -0.6120672, 0.31005478
855, 1222240424, 169.3751220703125, -76.53109741210938, 22.429794311523438, 0.8255203, 0.57544917, -0.16718674
856, 1222257091, 168.41485595703125, -76.05026245117188, 23.431133270263672, 1.1815524, 1.499868, -0.6401415
857, 1222273758, 167.6956787109375, -75.54943084716797, 24.415542602539062, 0.6327426, 0.82056844, -0.585413
858, 1222290425, 167.0727996826172, -75.014892578125, 25.371923446655273, 0.4427088, 0.21501267, -0.30777073
859, 1222307092, 166.34527587890625, -74.38905334472656, 26.289751052856445, 0.3385673, -0.4925309, -0.38392162
860, 1222323759, 165.6202392578125, -73.66754150390625, 27.096158981323242, 0.4678578, -0.8877474, -0.31186104
861, 1222340426, 164.96450805664062, -72.90350341796875, 27.650339126586914, 1.114489, 0.032521985, -0.55847836
862, 1222357093, 164.4407501220703, -72.14057922363281, 28.10070037841797, 1.0967834, -0.024957765, -0.24755573
863, 1222373760, 163.999267578125, -71.38023376464844, 28.463153839111328, 0.75978225, -0.12220149, -0.8161402
864, 1222390427, 163.63327026367188, -70.60836791992188, 28.797321319580078, -0.11321908, -0.41831714, -0.75226116
865, 1222407094, 163.35276794433594, -69.80406188964844, 29.05681037902832, -0.67275786, -0.784284, -0.14291859
866, 1222423761, 163.15408325195312, -68.9156265258789, 29.20867919921875, 0.12287766, 0.14828333, -0.40407467
867, 1222440428, 163.09934997558594, -67.98995971679688, 29.31418228149414, 0.6526524, 1.1103563, -0.5763798
868, 1222457095, 163.1717529296875, -67.06900787353516, 29.451772689819336, 0.46351853, 0.97387636, -0.19302273
869, 1222473762, 163.271240234375, -66.17755889892578, 29.607011795043945, 0.68886346, 0.4789583, -0.35874557
870, 1222490429, 163.30960083007812, -65.33324432373047, 29.778135299682617, -0.71136475, -0.6140469, -0.027161598
871, 1222507096, 163.27745056152344, -64.5191421508789, 29.93375587463379, -0.91506064, -1.042528, -0.5906429
872, 1222523763, 163.0692596435547, -63.65278625488281, 30.060096740722656, -0.26662856, 0.62416035, -0.68780327
873, 1222540430, 162.9425048828125, -62.84626007080078, 30.22000503540039, 0.6417657, 1.0832607, 0.62075615
874, 1222557097, 163.0030059814453, -62.13794708251953, 30.346233367919922, 0.16862272, -0.018153233, 0.4923048
875, 1222573764, 163.1526336669922, -61.48365020751953, 30.428791046142578, -0.4089701, -1.0200782, -0.33154297
876, 1222590431, 163.24012756347656, -60.78016662597656, 30.434335708618164, -0.9883149, -0.47626218, -0.2637787
877, 1222607098, 163.3697052001953, -60.043785095214844, 30.474042892456055, -0.5605887, -0.3805631, 0.30131245
878, 1222623765, 163.4541778564453, -59.313575744628906, 30.570554733276367, -0.31427872, 0.37065762, 0.20826912
879, 1222640432, 163.64552307128906, -58.725311279296875, 30.65791893005371, -0.3798818, 0.37132415, 0.97076225
880, 1222657099, 163.94064331054688, -58.236263275146484, 30.704418182373047, -0.7460589, -0.3632024, 0.7455387
881, 1222673766, 164.21072387695312, -57.727230072021484, 30.708526611328125, -0.61486304, -0.8393363, -0.48790073
882, 1222690433, 164.3258819580078, -57.154293060302734, 30.725046157836914, -0.6621153, -0.42121655, -0.3876171
883, 1222707100, 164.30926513671875, -56.66762924194336, 30.801267623901367, -0.7525932, -0.9789779, 1.079032
884, 1222723767, 164.2379150390625, -56.23135757446289, 30.904632568359375, -0.26867163, -0.13855594, 0.5474329
885, 1222740434, 164.334716796875, -55.862796783447266, 30.901599884033203, -0.2787121, -0.51524377, 0.62360954
886, 1222757101, 164.4220428466797, -55.516517639160156, 30.83806610107422, -0.22441179, -0.39773655, 0.2668562
887, 1222773768, 164.43923950195312, -55.18091583251953, 30.814002990722656, -0.20869142, -0.410379, 0.2977209
888, 1222790435, 164.48060607910156, -54.909912109375, 30.777347564697266, -0.25012192, -0.58122766, 0.3354292
889, 1222807102, 164.5126190185547, -54.656578063964844, 30.74054718017578, -0.49333686, -0.20347433, -0.25626087
890, 1222823769, 164.58981323242188, -54.41606903076172, 30.735164642333984, -0.705497, -0.018710492, -0.06565571
891, 1222840436, 164.75486755371094, -54.19731903076172, 30.743865966796875, -0.47852603, 0.1179707, 0.29967594
892, 1222857103, 164.927001953125, -53.99831771850586, 30.750843048095703, -0.45035738, -0.34904996, 0.4692974
893, 1222873770, 164.98178100585938, -53.83066940307617, 30.752147674560547, -0.15811226, -0.35221076, 0.21235752
894, 1222890437, 164.95387268066406, -53.7114143371582, 30.747251510620117, -0.044949364, -0.41480407, 0.45145226
895, 1222907104, 164.902587890625, -53.66865158081055, 30.71537208557129, -0.35083452, -0.5242549, 0.492527
896, 1222923771, 164.8158721923828, -53.645206451416016, 30.687957763671875, -0.7135439, -0.2043471, -0.022802353
897, 1222940438, 164.7697296142578, -53.627498626708984, 30.655982971191406, -0.65873086, -0.063117266, 0.03999996
898, 1222957105, 164.73973083496094, -53.631690979003906, 30.637859344482422, -0.36350945, -0.16714925, 0.18443203
899, 1222973772, 164.63528442382812, -53.69512939453125, 30.65745735168457, -0.51341295, -0.4182605, 0.47312927
900, 1222990439, 164.5542755126953, -53.79777526855469, 30.663846969604492, -0.40200767, -0.39829925, 0.39493465
901, 1223007106, 164.5875244140625, -53.90950012207031, 30.591949462890625, -0.03578642, -0.9482142, 0.19722843
902, 1223023773, 164.47393798828125, -54.058597564697266, 30.510875701904297, -0.41267246, -0.74871284, 0.5258074
903, 1223040440, 164.29689025878906, -54.26597213745117, 30.45235824584961, -0.43517599, -0.101220205, 0.44145584
904, 1223057107, 164.2837371826172, -54.499752044677734, 30.32343101501465, -0.43737084, -0.19060618, 0.22596455
905, 1223073774, 164.38870239257812, -54.76654052734375, 30.128450393676758, -0.44303468, -0.13226053, 0.19285583
906, 1223090441, 164.4593963623047, -55.03512954711914, 29.97878646850586, -0.2409387, -0.14890333, 0.21855354
907, 1223107108, 164.44830322265625, -55.32308578491211, 29.90521240234375, -0.22646995, -0.42890954, 0.3977251
908, 1223123775, 164.41891479492188, -55.67017364501953, 29.84425163269043, -0.25658962, -0.47914496, 0.4222622
909, 1223140442, 164.377685546875, -56.08156204223633, 29.76156997680664, -0.30909085, -0.38000405, 0.37713528
910, 1223157109, 164.27627563476562, -56.524559020996094, 29.70846176147461, -0.753186, -0.071509644, 0.30064774
911, 1223173776, 164.16351318359375, -56.97229766845703, 29.73666000366211, -0.69323426, 0.6128318, 0.0051908493
912, 1223190443, 164.16433715820312, -57.4488525390625, 29.826152801513672, -0.6491968, 0.3931805, 0.2770357
913, 1223207110, 164.18142700195312, -57.98899841308594, 29.951414108276367, -0.8380866, 0.006505498, 0.6290283
914, 1223223777, 164.17344665527344, -58.5885009765625, 30.137401580810547, -0.68277764, -0.010029823, 0.30753708
915, 1223240444, 164.182373046875, -59.22960662841797, 30.372861862182617, -0.60087097, -0.3939749, 0.097667694
916, 1223257111, 164.20579528808594, -59.932456970214844, 30.586009979248047, -0.6917335, -0.6966488, 0.14664268
917, 1223273778, 164.28155517578125, -60.649574279785156, 30.72698974609375, -0.41369334, -0.6434683, 0.17963314
918, 1223290445, 164.3863983154297, -61.42885208129883, 30.79629135131836, -0.4737441, -0.6093746, 0.2777586
919, 1223307112, 164.62034606933594, -62.248939514160156, 30.775712966918945, -0.34659675, -0.3813781, 0.04719448
920, 1223323779, 165.07386779785156, -63.11140060424805, 30.67842674255371, -0.2584594, -0.5170979, 0.0942688
921, 1223340446, 165.60353088378906, -64.01033020019531, 30.445226669311523, -0.37180173, -0.8112553, 0.15001106
922, 1223357113, 166.15184020996094, -64.98374938964844, 30.082372665405273, -0.4151568, -1.1049159, -0.19998741
923, 1223373780, 166.7878875732422, -65.98066711425781, 29.54395294189453, -0.34730348, -0.94340026, -0.33145905
924, 1223390447, 167.6269073486328, -67.02006530761719, 28.774490356445312, 0.058795754, -0.55528736, -0.03992653
925, 1223407114, 168.65487670898438, -68.1268539428711, 27.8090763092041, 0.36153176, -0.34018257, 0.109869
926, 1223423781, 169.68572998046875, -69.21366882324219, 26.643373489379883, -0.2990971, -0.76007736, -0.11849499
927, 1223440448, 170.9477996826172, -70.34020233154297, 25.264339447021484, -0.5802042, -0.6834143, -0.6322279
928, 1223457115, 172.50979614257812, -71.37641143798828, 23.708585739135742, 0.0019044002, 0.8401841, -0.70753956
929, 1223473782, 174.21383666992188, -72.34768676757812, 22.149749755859375, 0.3317581, 0.68903583, -0.36614132
930, 1223490449, 175.97377014160156, -73.3231201171875, 20.553464889526367, 0.14425834, 0.07769601, -0.48927784
931, 1223507116, 177.83424377441406, -74.31402587890625, 18.80549430847168, 0.4852926, -0.05080975, -0.7761955
932, 1223523783, 179.76727294921875, -75.27201080322266, 16.745485305786133, -0.18289359, -0.48814315, -0.49211788
933, 1223540450, -178.28089904785156, -76.14347076416016, 14.476995468139648, 0.5896141, 0.42048916, -1.0511084
934, 1223557117, -176.51248168945312, -76.82266998291016, 12.362213134765625, 1.1737608, 1.1705608, -0.949584
935, 1223573784, -174.8387451171875, -77.38919830322266, 10.356684684753418, 1.4415376, 1.1087594, -0.33245468
936, 1223590451, -173.2959442138672, -77.93167114257812, 8.42679214477539, 1.1781588, 0.7544879, -0.267128
937, 1223607118, -171.98875427246094, -78.41233825683594, 6.698533535003662, 1.1854632, 0.9540843, -0.6818981
938, 1223623785, -170.93630981445312, -78.76725006103516, 5.313834190368652, 1.458826, 1.3831751, -0.874547
939, 1223640452, -170.1419219970703, -78.94850158691406, 4.324864864349365, 1.4529666, 1.2407014, -0.39883518
940, 1223657119, -169.78472900390625, -79.00731658935547, 3.8666653633117676, 1.2836198, 1.1064055, 0.06547642
941, 1223673786, -169.67372131347656, -79.037109375, 3.7967374324798584, 1.1128482, 0.9190197, 0.051607132
942, 1223690453, -169.6351776123047, -79.02635192871094, 3.9534318447113037, 0.97210187, 0.83000773, -0.26391315
943, 1223707120, -169.67251586914062, -78.94164276123047, 4.315959930419922, 0.6449042, 0.39661673, -0.28569412
944, 1223723787, -169.77049255371094, -78.82622528076172, 4.748022079467773, -0.15789011, -0.22052677, 0.07856941
945, 1223740454, -169.8643798828125, -78.69499206542969, 5.1458048820495605, -0.30627635, -0.20228644, 0.27982998
946, 1223757121, -169.98916625976562, -78.55430603027344, 5.611700534820557, -0.11320236, 0.1325919, 0.28132343
947, 1223773788, -170.08624267578125, -78.43802642822266, 6.0176777839660645, -0.416907, -0.34030446, 0.14086533
948, 1223790455, -170.0377960205078, -78.36776733398438, 6.208648204803467, -0.37845123, -0.5895012, -0.2301712
949, 1223807122, -169.94488525390625, -78.29805755615234, 6.257913112640381, -0.1758303, -0.18630777, -0.22050095
950, 1223823789, -169.87918090820312, -78.23235321044922, 6.276691913604736, 0.012654039, 0.030580483, 0.08539581
951, 1223840456, -169.89187622070312, -78.20946502685547, 6.340194225311279, -0.21563219, -0.29877865, 0.15071774
952, 1223857123, -169.95909118652344, -78.21096801757812, 6.36358118057251, -0.19346915, -0.27245837, -0.098254204
953, 1223873790, -169.97341918945312, -78.2155532836914, 6.304287910461426, -0.096512415, 0.03652822, -0.05666256
954, 1223890457, -169.98672485351562, -78.21353912353516, 6.277923583984375, -0.054650072, 0.17291248, 0.036185265
955, 1223907124, -170.0669403076172, -78.22012329101562, 6.350493907928467, -0.041403692, 0.06713933, -0.0041360855
956, 1223923791, -170.080810546875, -78.24092864990234, 6.401063919067383, 0.24308537, 0.109497935, -0.02585888
957, 1223940458, -170.0559539794922, -78.25940704345703, 6.394697189331055, 0.014020702, -0.07907358, 0.016856194
958, 1223957125, -170.0234832763672, -78.30587005615234, 6.301103591918945, -0.15673068, -0.537773, -0.061917305
959, 1223973792, -169.94900512695312, -78.34439849853516, 6.212088584899902, -0.3033767, -0.037015032, -0.13328266
960, 1223990459, -169.83544921875, -78.39863586425781, 6.149607181549072, -0.29944825, 0.014212239, 0.018138885
961, 1224007126, -169.68800354003906, -78.45875549316406, 6.061961650848389, -0.15798247, 0.112675115, 0.10365677
962, 1224023793, -169.600341796875, -78.52901458740234, 6.034477233886719, -0.107462004, -0.0077692545, 0.15220451
963, 1224040460, -169.50912475585938, -78.62094116210938, 5.960840225219727, -0.20238748, -0.3240636, 0.10257435
964, 1224057127, -169.41798400878906, -78.71240234375, 5.803617000579834, -0.15988214, -0.32026282, -0.100577354
965, 1224073794, -169.3319091796875, -78.80654907226562, 5.559614181518555, -0.15903048, -0.11123306, -0.094368935
966, 1224090461, -169.19801330566406, -78.89862060546875, 5.288177967071533, -0.06506839, 0.12996998, 0.016896248
967, 1224107128, -169.0725555419922, -79.00514221191406, 5.076178550720215, -0.10305918, 0.12358931, 0.10220432
968, 1224123795, -169.01234436035156, -79.11557006835938, 4.969097137451172, -0.03909824, 0.20159802, -0.041915894
969, 1224140462, -169.04661560058594, -79.22899627685547, 5.002234935760498, -0.11455251, 0.26998696, -0.09505081
970, 1224157129, -169.11782836914062, -79.33751678466797, 5.1257643699646, -0.008096023, 0.08897526, -0.038485527
971, 1224173796, -169.25634765625, -79.45243835449219, 5.276660919189453, 0.04994435, -0.23475587, 0.10215855
972, 1224190463, -169.48336791992188, -79.54576873779297, 5.394552707672119, 0.4374772, -0.30937114, -0.15438175
973, 1224207130, -169.71864318847656, -79.61952209472656, 5.338005542755127, 0.41863328, -0.5299092, -0.23073483
974, 1224223797, -169.96214294433594, -79.68794250488281, 5.127518653869629, 0.24040176, -0.27036864, -0.105101585
975, 1224240464, -170.3520050048828, -79.7319107055664, 5.064331531524658, 0.3023866, 0.7662764, 0.04445839
976, 1224257131, -171.0870819091797, -79.71296691894531, 5.520919322967529, 0.6352601, 1.3986931, -0.05673504
977, 1224273798, -172.01524353027344, -79.66911315917969, 6.377935886383057, 0.48231918, 0.5616311, -0.21050644
978, 1224290465, -172.88479614257812, -79.61917114257812, 7.1465582847595215, 0.13884236, -0.40003926, -0.15651035
979, 1224307132, -173.74191284179688, -79.58342742919922, 7.756602764129639, -0.08846268, -0.26971856, -0.011187553
980, 1224323799, -174.93862915039062, -79.48532104492188, 8.717255592346191, 0.3293809, 1.3807487, -0.09518337
981, 1224340466, -176.60818481445312, -79.21217346191406, 10.517800331115723, 0.8079211, 3.4354196, 0.015433311
982, 1224357133, -178.45977783203125, -78.79580688476562, 13.06745433807373, 0.9324194, 2.9671812, 0.060917854
983, 1224373800, 179.90016174316406, -78.37764739990234, 15.655035972595215, 0.637675, -0.21507707, -0.27253246
984, 1224390467, 178.3651580810547, -77.94059753417969, 17.873865127563477, 0.6343486, -2.41794, -0.6794796
985, 1224407134, 176.9697265625, -77.4768295288086, 19.34832191467285, 0.5668019, -3.345271, -0.489192
986, 1224423801, 175.71182250976562, -76.97266387939453, 19.950334548950195, 0.35100424, -2.5882037, 0.14144039
987, 1224440468, 174.47418212890625, -76.43318176269531, 20.155986785888672, 0.6793712, -0.076368175, 0.11254406
988, 1224457135, 173.46437072753906, -75.84266662597656, 20.411359786987305, 1.3644558, 1.5104531, -0.44495583
989, 1224473802, 172.8892822265625, -75.21807098388672, 20.66028594970703, 1.4014975, 0.8239229, -0.8375149
990, 1224490469, 172.35409545898438, -74.58761596679688, 20.926105499267578, 0.48721394, -0.43536842, -0.6637497
991, 1224507136, 171.40341186523438, -73.88584899902344, 21.376920700073242, 0.03159799, 0.26283112, -0.47577286
992, 1224523803, 170.15402221679688, -73.0761489868164, 22.124380111694336, 0.42774993, 2.2366657, -0.52486134
993, 1224540470, 169.1153564453125, -72.16300964355469, 23.122278213500977, 1.0286542, 3.584348, -0.5859232
994, 1224557137, 168.5264129638672, -71.19557189941406, 24.3371524810791, 0.90626985, 1.9170185, -0.7217512
995, 1224573804, 168.33592224121094, -70.23970794677734, 25.475040435791016, 0.23032543, -1.3220894, -0.6267834
996, 1224590471, 168.13145446777344, -69.31172180175781, 26.242647171020508, -0.5555489, -3.7162223, -0.17562962
997, 1224607138, 167.5890350341797, -68.41607666015625, 26.526485443115234, -0.14082201, -2.0298064, -0.38928413
998, 1224623805, 166.8973388671875, -67.51164245605469, 26.61893653869629, 0.33935398, 0.95381117, -0.21331787
999, 1224640472, 166.49822998046875, -66.60635375976562, 26.822038650512695, 1.4005599, 2.722332, -0.5574837
1000, 1224657139, 166.5175323486328, -65.71212005615234, 27.25600814819336, 0.24649645, 1.7434498, -0.33699226
1001, 1224673806, 166.77366638183594, -64.8675537109375, 27.768136978149414, -0.792955, -0.8745273, 0.029450417
1002, 1224690473, 167.01231384277344, -64.0500717163086, 28.070688247680664, -1.3217207, -2.4631007, 0.031167984
1003, 1224707140, 166.92965698242188, -63.13630294799805, 28.176889419555664, -0.3566076, -1.1680586, -0.5249214
1004, 1224723807, 166.60691833496094, -62.13772201538086, 28.258317947387695, 0.37773645, -0.31606153, 0.1869278
1005, 1224740474, 166.45379638671875, -61.281612396240234, 28.214122772216797, 0.8207793, -0.85806274, 0.47991848
1006, 1224757141, 166.31234741210938, -60.63372039794922, 28.15548324584961, -0.80287695, -1.1376661, 0.5134697
1007, 1224773808, 166.27679443359375, -60.07806396484375, 28.09177017211914, -1.2279038, -0.02453795, -0.30933857
1008, 1224790475, 166.45510864257812, -59.39598846435547, 28.023849487304688, -0.77596575, 0.72295165, -0.42081165
1009, 1224807142, 166.7598419189453, -58.620140075683594, 27.970136642456055, 0.51495194, 0.6068939, -0.40385628
1010, 1224823809, 166.9923095703125, -57.920230865478516, 27.97458267211914, -0.1883663, -0.5389697, 0.79934216
1011, 1224840476, 167.078369140625, -57.40152359008789, 27.935691833496094, -0.843081, -0.96410793, 1.1903639
1012, 1224857143, 167.12890625, -56.933101654052734, 27.83279037475586, -1.5407169, -0.43551674, 0.47836876
1013, 1224873810, 167.26129150390625, -56.43149185180664, 27.723114013671875, -1.1514615, 0.069467075, -0.4413147
1014, 1224890477, 167.29542541503906, -55.88304901123047, 27.741376876831055, -0.516311, 1.0375044, -0.035668373
1015, 1224907144, 167.1625518798828, -55.44786071777344, 27.928401947021484, -0.6613102, 0.41730818, 0.7468586
1016, 1224923811, 167.04183959960938, -55.090675354003906, 28.212026596069336, -1.1719735, 0.24111988, 0.24693394
1017, 1224940478, 167.03721618652344, -54.75735855102539, 28.461708068847656, -1.1155561, 0.054518778, 0.14395046
1018, 1224957145, 166.97634887695312, -54.40251159667969, 28.686504364013672, -0.2987642, -0.08919022, 0.4123764
1019, 1224973812, 166.60226440429688, -54.08052444458008, 29.0488224029541, -0.3616994, -0.5985068, 0.7734041
1020, 1224990479, 166.13926696777344, -53.79011917114258, 29.45903968811035, -0.0969296, 0.04064635, 0.11205101
1021, 1225007146, 165.90036010742188, -53.56648254394531, 29.747913360595703, 0.19945416, -0.20580138, 0.05226803
1022, 1225023813, 165.74468994140625, -53.37356948852539, 29.967336654663086, -0.48029593, -0.7335101, 0.123129845
1023, 1225040480, 165.59793090820312, -53.163883209228516, 30.197341918945312, -0.60854477, -0.39429244, -0.034124374
1024, 1225057147, 165.51760864257812, -52.956966400146484, 30.42138671875, 0.10954111, 0.035452683, 0.009898186
1025, 1225073814, 165.4324951171875, -52.76873016357422, 30.624820709228516, 0.03021933, -0.45939773, 0.090991974
1026, 1225090481, 165.36192321777344, -52.599246978759766, 30.79010772705078, 0.040396012, -0.45840955, -0.12722588
1027, 1225107148, 165.32630920410156, -52.47458267211914, 30.907108306884766, 0.08933871, -0.35524994, 0.36667538
1028, 1225123815, 165.2820587158203, -52.39011764526367, 30.991369247436523, -0.097964264, -0.62027705, 0.5491581
1029, 1225140482, 165.12005615234375, -52.30050277709961, 31.080162048339844, -0.21816158, -0.56686115, 0.13224602
1030, 1225157149, 164.9515380859375, -52.20181655883789, 31.135766983032227, -0.26678044, -0.37332812, 0.0026779175
1031, 1225173816, 164.76055908203125, -52.132869720458984, 31.174087524414062, -0.11455034, 0.2833285, 0.2222166
1032, 1225190483, 164.70614624023438, -52.13017272949219, 31.227249145507812, -0.3953893, 0.28795704, 0.34178543
1033, 1225207150, 164.77133178710938, -52.14018630981445, 31.26893424987793, -0.5835625, -0.14398466, 0.066137314
1034, 1225223817, 164.7960205078125, -52.14522933959961, 31.29892921447754, -0.4482851, -0.029577645, 0.25262642
1035, 1225240484, 164.75953674316406, -52.18450164794922, 31.346343994140625, -0.22443943, -0.30373824, 0.6759167
1036, 1225257151, 164.68984985351562, -52.26156234741211, 31.40132713317871, -0.35001284, -0.6168248, 0.4129696
1037, 1225273818, 164.64096069335938, -52.384063720703125, 31.388763427734375, -0.23837294, -1.0562168, 0.20804214
