sep=,
DeviceTag:,tibiaLeft,,,,,,,,,,,,,,,,,
FirmwareVersion:,1.6.0,,,,,,,,,,,,,,,,,
AppVersion:,1.1,,,,,,,,,,,,,,,,,
SyncStatus:,Synced,,,,,,,,,,,,,,,,,
OutputRate:,60Hz,,,,,,,,,,,,,,,,,
FilterProfile:,General,,,,,,,,,,,,,,,,,
Measurement Mode:,Sensor fusion Mode - Complete (Euler),,,,,,,,,,,,,,,,,
StartTime:,2021-03-10 17:02:37.943 +0800,,,,,,,,,,,,,,,,,
© Xsens Technologies B. V. 2005-2021,,,,,,,,,,,,,,,,,,,

PacketCounter,SampleTimeFine,Euler_X,Euler_Y,Euler_Z,FreeAcc_X,FreeAcc_Y,FreeAcc_Z
1, 2343592535, -129.1051025390625, -73.2071304321289, -23.077043533325195, 0.037263744, 0.017127462, -0.009520531
2, 2343609202, -129.12277221679688, -73.19854736328125, -23.056840896606445, 0.0719591, 0.034623943, 0.025515556
3, 2343625869, -129.1142578125, -73.19160461425781, -23.055795669555664, 0.07704288, 0.027878324, 0.03631878
4, 2343642536, -129.0989990234375, -73.19439697265625, -23.056350708007812, 0.1125975, 0.009853345, -0.008311272
5, 2343659203, -129.0953369140625, -73.19650268554688, -23.0460147857666, 0.110519275, -0.019616056, -0.0593338
6, 2343675870, -129.09378051757812, -73.19536590576172, -23.043251037597656, 0.09817498, -0.06595107, -0.048841476
7, 2343692537, -129.09451293945312, -73.19580841064453, -23.056243896484375, 0.048160575, -0.11237326, -0.027127266
8, 2343709204, -129.11671447753906, -73.1960678100586, -23.076820373535156, 0.01396977, -0.08179155, 0.028004646
9, 2343725871, -129.1385498046875, -73.19927978515625, -23.111454010009766, -0.024183348, -0.057178304, 0.07339764
10, 2343742538, -129.14093017578125, -73.21678924560547, -23.178272247314453, -0.06973448, 0.024878891, 0.049793243
11, 2343759205, -129.14529418945312, -73.23890686035156, -23.24203872680664, -0.12084678, 0.09270871, -0.0040302277
12, 2343775872, -129.14944458007812, -73.25591278076172, -23.29096794128418, -0.16313864, 0.14750078, -0.04034424
13, 2343792539, -129.16070556640625, -73.26375579833984, -23.314271926879883, -0.15837304, 0.14757174, -0.0476017
14, 2343809206, -129.17868041992188, -73.25933837890625, -23.316282272338867, -0.1826891, 0.15026742, -0.010902405
15, 2343825873, -129.19143676757812, -73.24793243408203, -23.303369522094727, -0.18119451, 0.15052089, 0.0136938095
16, 2343842540, -129.2049102783203, -73.2365951538086, -23.263778686523438, -0.12906761, 0.12996194, -0.0015277863
17, 2343859207, -129.20632934570312, -73.22949981689453, -23.216524124145508, -0.07480409, 0.057902597, 0.002149582
18, 2343875874, -129.1729278564453, -73.2256851196289, -23.179244995117188, -0.04901061, 0.021828722, 0.01647377
19, 2343892541, -129.10427856445312, -73.22830200195312, -23.17389678955078, -0.010867479, -0.0116868215, -0.0015449524
20, 2343909208, -129.05392456054688, -73.2283935546875, -23.15532875061035, 0.02070828, -0.029115357, -0.030957222
21, 2343925875, -129.02322387695312, -73.22229766845703, -23.125333786010742, 0.03143967, -0.049567685, -0.008886337
22, 2343942542, -128.99745178222656, -73.21456909179688, -23.093008041381836, 0.046638217, -0.06453541, 0.019569397
23, 2343959209, -128.97296142578125, -73.2110595703125, -23.076942443847656, 0.065426655, -0.08169644, 0.023087502
24, 2343975876, -128.9264373779297, -73.21791076660156, -23.093175888061523, 0.055657633, -0.049554944, 0.07247639
25, 2343992543, -128.85784912109375, -73.2354965209961, -23.138057708740234, 0.049181093, -0.03839159, 0.049099922
27, 2344025877, -128.74208068847656, -73.27693939208984, -23.225461959838867, 0.0055144, -0.0065605524, -0.09993744
28, 2344042544, -128.70831298828125, -73.27950286865234, -23.259986877441406, -0.024215141, -0.009430794, -0.055174828
30, 2344075878, -128.6221466064453, -73.27625274658203, -23.368274688720703, -0.07254708, -0.070717044, 0.014436722
32, 2344109212, -128.5703582763672, -73.28842163085938, -23.457773208618164, -0.0500222, 0.0068886694, -0.024154663
34, 2344142546, -128.5630645751953, -73.29098510742188, -23.471487045288086, -0.027043978, 0.017275205, -0.039004326
36, 2344175880, -128.541748046875, -73.269775390625, -23.489112854003906, -0.022663208, 0.015541079, -0.013142586
39, 2344225881, -128.51950073242188, -73.2403793334961, -23.52216339111328, 0.09518573, 0.00154928, -0.00390625
41, 2344259215, -128.52272033691406, -73.23693084716797, -23.537288665771484, 0.07781478, 0.008107038, -0.012420654
43, 2344292549, -128.53839111328125, -73.24201202392578, -23.579526901245117, 0.023990791, -0.01898318, -0.002325058
45, 2344325883, -128.5134735107422, -73.24864959716797, -23.719573974609375, -0.080158785, 0.0044713765, -9.775162E-4
46, 2344342550, -128.53546142578125, -73.25468444824219, -23.759933471679688, -0.097911164, 0.040262617, -0.016075134
50, 2344409218, -128.6623992919922, -73.24578094482422, -23.754026412963867, -0.08336863, 0.20505895, 0.013674736
52, 2344442552, -128.60702514648438, -73.25560760498047, -23.792770385742188, -0.09692497, 0.1925581, 0.016958237
54, 2344475886, -128.59576416015625, -73.24945068359375, -23.733688354492188, -0.049247056, 0.077360965, -2.9277802E-4
55, 2344492553, -128.5812530517578, -73.24188232421875, -23.70357322692871, -0.03432656, 0.021043409, 0.015778542
57, 2344525887, -128.54348754882812, -73.24562072753906, -23.678247451782227, 0.044899296, -0.09204688, -0.032263756
61, 2344592555, -128.4858856201172, -73.2790298461914, -23.747814178466797, -0.073086224, 0.023827488, 0.056570053
63, 2344625889, -128.52011108398438, -73.32709503173828, -23.730304718017578, -0.12696964, 0.1235726, -0.012070656
64, 2344642556, -128.50942993164062, -73.34286499023438, -23.73457908630371, -0.12731527, 0.1234338, -0.050811768
66, 2344675890, -128.46896362304688, -73.33458709716797, -23.754865646362305, -0.078274965, 0.02796337, -0.00829792
68, 2344709224, -128.4423370361328, -73.33206176757812, -23.760513305664062, -0.014691549, -0.049565405, 0.03319931
70, 2344742558, -128.4102325439453, -73.36448669433594, -23.786806106567383, -0.04856568, -0.02023284, -0.012516975
72, 2344775892, -128.4151611328125, -73.38347625732422, -23.792438507080078, -0.051167704, -1.5735312E-4, -0.0138731
73, 2344792559, -128.4271697998047, -73.38228607177734, -23.792266845703125, -0.041287117, -0.004580898, 0.0160141
75, 2344825893, -128.48956298828125, -73.38410186767578, -23.758014678955078, 0.072303034, -0.020348173, -0.023797035
77, 2344859227, -128.4879150390625, -73.40484619140625, -23.802457809448242, 0.04950509, -0.048930004, -0.02128601
81, 2344925895, -128.45606994628906, -73.45425415039062, -23.9420223236084, -0.11090568, -0.0033509063, -0.02735138
82, 2344942562, -128.47607421875, -73.45182037353516, -23.91724395751953, -0.14738648, 0.017377462, -0.030591011
84, 2344975896, -128.5074462890625, -73.43111419677734, -23.846607208251953, -0.05340736, 0.06453143, -0.02904129
86, 2345009230, -128.61183166503906, -73.39476776123047, -23.711336135864258, 0.13093582, 0.06616051, -0.020832062
88, 2345042564, -128.6926727294922, -73.36636352539062, -23.647586822509766, 0.1995438, -0.012424415, 8.325577E-4
90, 2345075898, -128.71397399902344, -73.3625259399414, -23.679819107055664, 0.12795179, 0.0023948296, 0.070674896
91, 2345092565, -128.7171173095703, -73.37440490722656, -23.72306251525879, 0.06090812, 1.2818468E-4, 0.12129116
93, 2345125899, -128.6504669189453, -73.43797302246094, -23.877843856811523, -0.093852445, 0.03334746, -0.0049648285
95, 2345159233, -128.53411865234375, -73.48615264892578, -24.037639617919922, -0.23852001, 0.063949406, -0.077604294
97, 2345192567, -128.47157287597656, -73.47964477539062, -24.032546997070312, -0.2222453, 0.077157676, -0.034482956
99, 2345225901, -128.48150634765625, -73.45884704589844, -23.889209747314453, -0.17080522, 0.100153476, -0.0066747665
100, 2345242568, -128.50233459472656, -73.44728088378906, -23.814424514770508, -0.10879088, 0.09712398, -0.06978226
102, 2345275902, -128.541015625, -73.39009094238281, -23.69649887084961, 0.06359332, -0.03692445, 0.0067481995
104, 2345309236, -128.5789337158203, -73.34990692138672, -23.619550704956055, 0.16292617, -0.1736271, 0.086081505
106, 2345342570, -128.59373474121094, -73.38926696777344, -23.637781143188477, 0.10458368, -0.10401175, -0.036126137
108, 2345375904, -128.54159545898438, -73.41547393798828, -23.754243850708008, -0.0109206475, 0.025030322, -0.009947777
109, 2345392571, -128.51025390625, -73.42032623291016, -23.811410903930664, -0.018903663, 0.05592484, 0.014639854
111, 2345425905, -128.45220947265625, -73.43521118164062, -23.897050857543945, -0.064919785, 0.103969954, 0.0012521744
115, 2345492573, -128.3656768798828, -73.43730926513672, -23.98880386352539, -0.09364832, -6.7735603E-4, 0.0035037994
118, 2345542574, -128.3539581298828, -73.43032836914062, -24.041406631469727, -0.0074828644, -0.050473697, -0.0367651
120, 2345575908, -128.3833465576172, -73.42699432373047, -24.00241470336914, -0.023514792, -0.0027005952, 0.01103878
122, 2345609242, -128.4122772216797, -73.42485046386719, -23.95694923400879, -0.07645294, 0.16968009, 0.008401871
124, 2345642576, -128.4239501953125, -73.40908813476562, -23.940391540527344, -0.022090986, 0.16925317, 0.0012273788
126, 2345675910, -128.4063262939453, -73.38677978515625, -23.919095993041992, 0.101641834, -0.037308224, -0.012440681
127, 2345692577, -128.392333984375, -73.38118743896484, -23.908388137817383, 0.10521259, -0.09203336, -0.01878357
129, 2345725911, -128.3857421875, -73.38362121582031, -23.905277252197266, 0.034032196, -0.14984499, -0.0239954
131, 2345759245, -128.41064453125, -73.38430786132812, -23.927637100219727, -0.030593155, -0.052629925, -2.8705597E-4
133, 2345792579, -128.45697021484375, -73.38931274414062, -23.944692611694336, -0.06401757, 0.10091286, -0.014144897
135, 2345825913, -128.5358428955078, -73.380615234375, -23.89281463623047, -0.11062195, 0.19172439, 0.033150673
138, 2345875914, -128.5364990234375, -73.3636245727539, -23.83904266357422, -0.13679169, 0.11873746, 0.004098892
140, 2345909248, -128.55067443847656, -73.3449478149414, -23.731399536132812, -0.08233904, -0.04019959, -0.040906906
142, 2345942582, -128.60951232910156, -73.31123352050781, -23.554393768310547, -0.0042793653, -0.088397585, -0.058563232
144, 2345975916, -128.67564392089844, -73.2663345336914, -23.396556854248047, 0.022543838, -0.08356032, 0.019201279
145, 2345992583, -128.69552612304688, -73.25342559814453, -23.354398727416992, 0.031767562, -0.06688782, 0.030243874
147, 2346025917, -128.745849609375, -73.25944519042969, -23.302865982055664, 0.05951907, -0.022388957, 0.021785736
149, 2346059251, -128.7742156982422, -73.27313995361328, -23.295181274414062, -0.0037004247, 0.06706394, -0.03285408
151, 2346092585, -128.77662658691406, -73.26640319824219, -23.32035255432129, -0.086767256, 0.07611186, -0.010263443
153, 2346125919, -128.7796630859375, -73.24382019042969, -23.328954696655273, -0.08476388, 0.025408283, 0.029088974
154, 2346142586, -128.79248046875, -73.24030303955078, -23.314443588256836, -0.0720974, -0.007248972, 0.0069332123
158, 2346209254, -128.86282348632812, -73.21599578857422, -23.21845054626465, -0.0058505354, -0.025952872, 0.020533562
160, 2346242588, -128.88255310058594, -73.20751953125, -23.21977424621582, -0.013508368, -0.03231327, -0.019990921
162, 2346275922, -128.91395568847656, -73.2078857421875, -23.22592544555664, -0.011449535, 0.02409872, 0.023679733
163, 2346292589, -128.914306640625, -73.21138000488281, -23.242137908935547, -0.02154866, 0.049175642, 0.024962425
165, 2346325923, -128.8949432373047, -73.22572326660156, -23.284273147583008, -0.05291915, 0.13325708, 0.036263466
167, 2346359257, -128.85275268554688, -73.24591064453125, -23.334754943847656, -0.11133102, 0.12200946, -0.020244598
169, 2346392591, -128.87335205078125, -73.23292541503906, -23.311595916748047, -0.075896844, 0.06979706, -0.018704414
171, 2346425925, -128.8596649169922, -73.21244812011719, -23.296794891357422, -0.012640831, -0.0559292, 0.0043935776
172, 2346442592, -128.8402099609375, -73.208984375, -23.300567626953125, 1.2008234E-4, -0.06665536, 0.0068359375
174, 2346475926, -128.85153198242188, -73.2203140258789, -23.263290405273438, -0.0047217673, -0.03743797, 0.0022659302
178, 2346542594, -128.9074249267578, -73.2485122680664, -23.241065979003906, -0.025551302, 0.08621107, -0.015400887
180, 2346575928, -128.9276123046875, -73.24076080322266, -23.245206832885742, -0.03993802, 0.06545633, 0.021455765
181, 2346592595, -128.93531799316406, -73.24015045166016, -23.24398422241211, -0.04505932, 0.036016542, 0.036930084
183, 2346625929, -128.94261169433594, -73.2540283203125, -23.244112014770508, -0.052808147, 0.016590025, 0.011648178
185, 2346659263, -128.92095947265625, -73.27069854736328, -23.26215362548828, -0.027006233, -0.007416942, -0.016330719
187, 2346692597, -128.90684509277344, -73.28567504882812, -23.247695922851562, -0.067285866, -0.030384462, 0.013547897
189, 2346725931, -128.8765106201172, -73.30294036865234, -23.226905822753906, -0.12945127, 0.01697715, 0.056991577
190, 2346742598, -128.8487091064453, -73.3199234008789, -23.22391700744629, -0.13494885, 0.05412679, 0.035990715
194, 2346809266, -128.6884765625, -73.34306335449219, -23.192445755004883, -0.055026766, -6.800382E-4, -0.027744293
196, 2346842600, -128.6146697998047, -73.34093475341797, -23.119701385498047, -0.05138817, -0.13623953, 0.0042276382
198, 2346875934, -128.54550170898438, -73.35502624511719, -23.09565544128418, -0.03702316, -0.119681574, -0.06335831
199, 2346892601, -128.54698181152344, -73.35008239746094, -23.0593204498291, 0.008094298, -0.0937296, -0.07677555
201, 2346925935, -128.575927734375, -73.31745910644531, -22.971590042114258, 0.0048041036, -0.061982937, 0.06508255
203, 2346959269, -128.62738037109375, -73.31739807128906, -22.92028045654297, 0.037350077, 0.06578378, 0.0082063675
205, 2346992603, -128.6355743408203, -73.30915832519531, -22.92923355102539, 0.08235432, 0.09400826, 0.026435852
207, 2347025937, -128.57373046875, -73.32003784179688, -23.00997543334961, 0.017962785, 0.06880344, 0.05930996
208, 2347042604, -128.533447265625, -73.34182739257812, -23.06997299194336, -1.7000955E-4, 0.07238892, 0.0143146515
210, 2347075938, -128.4918212890625, -73.38109588623047, -23.17198371887207, -0.013402256, -0.007349218, -0.11850071
212, 2347109272, -128.54530334472656, -73.35224151611328, -23.161113739013672, 0.013351044, -0.11621132, -0.07980251
216, 2347175940, -128.62718200683594, -73.34749603271484, -23.324064254760742, 0.08740184, -0.07300011, -0.022299767
217, 2347192607, -128.64527893066406, -73.35906219482422, -23.3894100189209, 0.053273477, 0.0047512148, -0.056598663
219, 2347225941, -128.76637268066406, -73.36202239990234, -23.42414093017578, -0.060652588, 0.09752105, 0.030481339
221, 2347259275, -128.81021118164062, -73.38217163085938, -23.50889015197754, -0.2091838, 0.11607553, 0.02924633
223, 2347292609, -128.73324584960938, -73.40300750732422, -23.64644432067871, -0.24952435, 0.16372469, 0.015583992
225, 2347325943, -128.797119140625, -73.42436218261719, -23.579349517822266, -0.116775796, 0.098138615, -0.072442055
226, 2347342610, -128.78526306152344, -73.40454864501953, -23.56309700012207, -0.12342754, 0.048515946, -0.027107239
228, 2347375944, -128.68576049804688, -73.34994506835938, -23.578397750854492, 0.009737062, -0.00483995, 0.017245293
230, 2347409278, -128.7144012451172, -73.31903839111328, -23.482221603393555, 0.19267249, -0.16147883, 0.03299141
232, 2347442612, -128.6904296875, -73.33423614501953, -23.48720932006836, 0.16573086, -0.23128495, -0.076797485
235, 2347492613, -128.71604919433594, -73.36070251464844, -23.623098373413086, -0.044262145, -0.061934657, -0.020730972
237, 2347525947, -128.7269287109375, -73.337158203125, -23.77597999572754, -0.093371026, 0.01196342, 0.055099487
239, 2347559281, -128.73268127441406, -73.36820983886719, -23.875619888305664, -0.15269478, 0.18434489, 0.08179474
241, 2347592615, -128.64920043945312, -73.40955352783203, -23.96426010131836, -0.23260286, 0.2774938, 0.08562946
243, 2347625949, -128.4107666015625, -73.477783203125, -24.12249183654785, -0.26118, 0.25222665, -0.011257172
244, 2347642616, -128.3096466064453, -73.50284576416016, -24.155393600463867, -0.2822435, 0.16984604, -0.04269123
246, 2347675950, -128.109619140625, -73.52519226074219, -24.183456420898438, -0.26060197, -0.018969657, -0.05322838
248, 2347709284, -127.91912078857422, -73.5504379272461, -24.2015438079834, -0.12804103, -0.13872533, -0.07304859
250, 2347742618, -127.68745422363281, -73.53377532958984, -24.348342895507812, -0.116289236, -0.1859335, 0.013090134
252, 2347775952, -127.60592651367188, -73.54684448242188, -24.428030014038086, 0.12005655, -0.21945608, 0.06477356
255, 2347825953, -127.33546447753906, -73.67005157470703, -24.77184295654297, 0.078077435, -0.06623639, 0.07410145
257, 2347859287, -126.98812103271484, -73.77226257324219, -25.278261184692383, -0.18087867, -0.06173305, 0.060962677
259, 2347892621, -126.64452362060547, -73.92327117919922, -25.779081344604492, -0.22562131, -0.07084198, 0.050533295
261, 2347925955, -126.08991241455078, -74.08053588867188, -26.485227584838867, -0.33959863, -0.016563874, 0.04725361
262, 2347942622, -125.68708038330078, -74.16293334960938, -26.950321197509766, -0.4644705, 0.002568164, 0.15801811
264, 2347975956, -124.63851928710938, -74.40885925292969, -28.112247467041016, -0.7293786, -0.032527395, 0.038279533
266, 2348009290, -123.4127197265625, -74.63890075683594, -29.512479782104492, -0.68261224, -0.2381127, 0.1687603
268, 2348042624, -122.01958465576172, -74.896728515625, -31.16295623779297, -0.40046754, -0.33297396, 0.25343037
270, 2348075958, -120.38679504394531, -75.3449478149414, -33.13325119018555, -0.24610643, -0.08869877, -0.047493935
271, 2348092625, -119.6258773803711, -75.61267852783203, -34.1286506652832, -0.16202536, 0.11219445, -0.22812843
275, 2348159293, -116.32899475097656, -76.48016357421875, -38.07978057861328, -0.52638936, -0.24117036, 0.16729546
277, 2348192627, -113.1534652709961, -77.14738464355469, -41.952110290527344, -0.54850185, -0.61807656, 0.41519737
279, 2348225961, -107.52779388427734, -77.90827178955078, -48.942649841308594, 0.18081279, -0.6145132, -0.12037563
280, 2348242628, -104.25574493408203, -78.21785736083984, -52.94449996948242, 0.5353239, -0.6063827, -0.4330988
282, 2348275962, -98.12501525878906, -78.59938049316406, -60.38629913330078, 0.49767563, -0.88274616, -0.42076683
284, 2348309296, -93.3188247680664, -78.70167541503906, -66.51097869873047, -0.39303106, -0.24032336, -0.20270538
286, 2348342630, -89.3134994506836, -78.68441772460938, -71.55625915527344, -0.52112067, 0.6490592, -0.40304756
288, 2348375964, -85.89508056640625, -78.7034683227539, -75.78936767578125, -0.17815408, 0.18685058, 0.40490818
289, 2348392631, -83.82994842529297, -78.75492858886719, -78.31197357177734, -0.20411964, -0.13440046, 0.84130764
291, 2348425965, -77.5450210571289, -78.7959213256836, -85.6561508178711, 0.15745294, 0.36785585, 0.5847359
293, 2348459299, -67.69164276123047, -78.4058837890625, -96.37882995605469, 1.1260495, 1.2895501, 0.265193
295, 2348492633, -57.71047592163086, -77.30157470703125, -107.03682708740234, 1.4160255, 1.5016506, -0.41951084
298, 2348542634, -44.93688201904297, -74.14784240722656, -119.3946304321289, 1.6224526, 1.1499797, 0.5241022
300, 2348575968, -36.73775100708008, -71.24469757080078, -126.22698211669922, 1.4471661, 1.8082116, -0.18280125
302, 2348609302, -30.606534957885742, -68.68230438232422, -130.61717224121094, 0.6207533, 1.1861045, -0.6282406
304, 2348642636, -26.06686019897461, -65.8331298828125, -133.4791717529297, -0.19972461, 1.3016672, -1.3091259
306, 2348675970, -21.68604850769043, -63.184913635253906, -135.49392700195312, -1.4520912, 0.23182842, -2.3452282
307, 2348692637, -19.127195358276367, -61.86763000488281, -136.6748809814453, -1.3632544, -0.80123097, -1.70718
309, 2348725971, -14.409880638122559, -58.76658630371094, -139.16212463378906, 0.19966835, -1.3867879, -0.94874954
313, 2348792639, -9.78713321685791, -52.863609313964844, -140.842041015625, 0.18295605, -1.6457698, -1.4080915
315, 2348825973, -9.726306915283203, -50.27446365356445, -140.94740295410156, -0.0071211928, -0.38341692, -0.99461937
316, 2348842640, -10.261253356933594, -48.76551055908203, -141.1462860107422, 0.41405702, -0.08719341, -0.7230177
318, 2348875974, -10.716904640197754, -45.683349609375, -141.52830505371094, 0.8454185, 0.38540027, 0.31446457
320, 2348909308, -10.44031810760498, -43.04166793823242, -141.8085174560547, -1.0002981, 0.91347843, -0.46692467
322, 2348942642, -10.08393669128418, -40.56296920776367, -142.5155029296875, -0.21365444, 1.0146831, 0.016643524
324, 2348975976, -8.92630386352539, -37.946781158447266, -142.9712371826172, 0.27924466, 0.13597679, -0.09065914
325, 2348992643, -8.384254455566406, -36.76895523071289, -143.0439910888672, 0.20921794, -0.320956, -0.29071426
327, 2349025977, -7.7656450271606445, -34.50047302246094, -143.23800659179688, -0.062287185, -1.0801013, 0.60096455
329, 2349059311, -7.7831645011901855, -32.27579116821289, -143.37042236328125, -0.77586794, 0.46011266, 0.71060085
333, 2349125979, -7.607791900634766, -28.473724365234375, -142.96315002441406, -0.44057673, 0.21258233, 0.5467377
334, 2349142646, -7.637691974639893, -27.677433013916016, -142.7681884765625, -0.074233666, -0.19129926, 1.0452967
336, 2349175980, -7.700821399688721, -26.25360107421875, -142.45510864257812, 0.23062636, -1.1026287, 0.61163235
338, 2349209314, -8.002466201782227, -24.96879005432129, -142.3892059326172, 0.39071697, -0.28203553, 0.70287037
340, 2349242648, -8.311840057373047, -23.924089431762695, -142.52859497070312, 0.8074207, 0.059662815, 0.905077
342, 2349275982, -8.332581520080566, -23.074174880981445, -142.6313018798828, 0.37366867, 0.26960254, 0.34084415
343, 2349292649, -8.33633804321289, -22.756460189819336, -142.66294860839844, 0.23669933, 0.58525974, 0.734478
345, 2349325983, -8.407493591308594, -22.3182315826416, -142.79295349121094, 0.4439179, 0.31521747, 1.0308876
347, 2349359317, -8.467759132385254, -22.163288116455078, -142.786376953125, -0.0023069105, 0.4780199, 1.1449451
349, 2349392651, -8.459517478942871, -22.379783630371094, -142.58157348632812, 0.48326665, -0.03695647, 1.3883057
352, 2349442652, -8.499147415161133, -23.37236976623535, -142.13389587402344, 0.70615214, -0.4255428, 1.3684807
354, 2349475986, -8.70691967010498, -24.551300048828125, -142.20887756347656, 0.49112853, -0.5498462, 1.292881
356, 2349509320, -9.239124298095703, -26.099214553833008, -142.33877563476562, 0.20521931, 0.05633253, 1.5167007
358, 2349542654, -9.640912055969238, -28.021806716918945, -142.2379150390625, 0.03797379, 0.33513388, 1.0519323
360, 2349575988, -9.940007209777832, -30.23777961730957, -141.8546905517578, 0.24965657, 0.41540912, 0.96891594
361, 2349592655, -10.023122787475586, -31.460691452026367, -141.6014862060547, 0.35834134, 0.4159303, 0.7570839
363, 2349625989, -10.087200164794922, -34.11597442626953, -141.12315368652344, 0.27169535, 0.7625468, 0.46214294
365, 2349659323, -9.951910972595215, -37.02536392211914, -140.774169921875, 0.59963983, 0.41992044, 0.2573862
367, 2349692657, -9.669281959533691, -40.2288932800293, -140.31399536132812, 0.22076905, 0.15851684, -0.1164875
369, 2349725991, -9.449625968933105, -43.739036560058594, -139.6476287841797, 0.13020484, -0.23327947, 0.07809925
372, 2349775992, -10.496475219726562, -49.220458984375, -137.9580841064453, -0.332164, -0.8273929, 0.08167744
374, 2349809326, -12.313932418823242, -52.80244827270508, -136.2754364013672, -0.3172422, -1.6678369, -0.43189907
376, 2349842660, -14.89256477355957, -56.389312744140625, -134.4047393798828, -0.51524097, -2.0754018, -0.7556095
378, 2349875994, -19.201066970825195, -60.186458587646484, -132.27346801757812, -0.39307678, -2.0162513, -1.1764078
379, 2349892661, -21.971853256225586, -62.05812454223633, -130.955810546875, -0.5416466, -1.5135858, -1.3545618
381, 2349925995, -28.2987060546875, -65.4697265625, -127.65058135986328, -0.63983285, -0.2755412, -1.8097086
383, 2349959329, -35.60358810424805, -68.68640899658203, -123.2152328491211, -0.21409576, 0.52869296, -1.744914
385, 2349992663, -43.491092681884766, -71.75568389892578, -117.68775177001953, -0.0692294, 1.3035793, -1.6623297
387, 2350025997, -51.140316009521484, -74.40831756591797, -111.36324310302734, 0.44866288, 2.4757884, -1.563324
388, 2350042664, -54.969966888427734, -75.506103515625, -107.63375091552734, 0.61654663, 2.648073, -1.220231
390, 2350075998, -62.05284118652344, -76.97013854980469, -99.92115020751953, 0.17763107, 2.8141453, 0.4380932
392, 2350109332, -67.59325408935547, -77.48934173583984, -92.88404846191406, -0.7220265, 2.0121794, 1.3744602
394, 2350142666, -72.15583038330078, -77.76133728027344, -85.89141082763672, -0.4807765, 0.4015172, 0.45815468
396, 2350176000, -76.37942504882812, -78.440673828125, -78.54363250732422, -0.038069867, -0.85435706, -0.2938671
397, 2350192667, -78.60397338867188, -78.8316879272461, -74.85417938232422, -0.035229478, -1.3701042, -0.29419327
399, 2350226001, -82.83871459960938, -79.26514434814453, -68.84947204589844, 0.3299919, -2.1988363, -0.23202801
401, 2350259335, -85.73554992675781, -79.20063781738281, -66.12061309814453, 0.6382925, -2.4176118, -0.1001215
403, 2350292669, -88.06776428222656, -79.02091979980469, -65.46656799316406, 0.3182205, -1.4647712, -0.023266792
405, 2350326003, -88.88602447509766, -78.85794830322266, -66.84162902832031, -0.01043846, 0.09934749, 0.5367441
408, 2350376004, -86.7886962890625, -78.5505142211914, -71.31758117675781, -0.6925647, 1.7482039, 0.2081995
410, 2350409338, -85.1588134765625, -78.64476776123047, -73.58074951171875, -1.0095229, 1.4941709, 0.23436928
412, 2350442672, -83.46012878417969, -78.7929458618164, -74.89429473876953, -1.1666301, 1.2184904, -0.10551453
414, 2350476006, -81.75092315673828, -78.9637451171875, -75.57683563232422, -0.5943826, 0.29243898, 0.068743706
415, 2350492673, -80.1817855834961, -79.0936050415039, -76.646728515625, -0.43634215, -0.29579896, 0.22025585
417, 2350526007, -75.78495025634766, -79.33052062988281, -80.4236068725586, -0.41079697, -1.0097419, 0.17919827
419, 2350559341, -69.50423431396484, -79.2690200805664, -86.86552429199219, -0.622396, -1.2580818, 0.43345547
421, 2350592675, -59.3863525390625, -78.3582534790039, -97.6010513305664, -0.548213, -0.9311401, 0.17923164
423, 2350626009, -51.408817291259766, -76.88312530517578, -106.91546630859375, 0.83947754, 0.34611103, -0.3072281
424, 2350642676, -48.64176940917969, -76.00214385986328, -110.64517211914062, 1.0380461, 0.14527023, -0.053344727
428, 2350709344, -38.69511032104492, -71.98369598388672, -122.60185241699219, 0.12004638, 1.5463331, 0.035570145
430, 2350742678, -35.617103576660156, -69.72396850585938, -125.59191131591797, 0.69941586, 1.4746027, 0.035510063
432, 2350776012, -32.0107421875, -67.22997283935547, -128.6183319091797, 0.12959847, -0.046880502, -0.70392036
433, 2350792679, -29.376148223876953, -66.10177612304688, -130.36778259277344, 0.09223854, -0.6763902, -1.5266552
435, 2350826013, -24.783445358276367, -64.04248046875, -133.50108337402344, 0.4709954, 0.2669309, -1.3806868
437, 2350859347, -21.000051498413086, -61.81097412109375, -136.01585388183594, 0.3797637, 0.11621791, -0.9382229
439, 2350892681, -17.879884719848633, -59.02476119995117, -137.6615447998047, 0.5873685, -0.021031005, -0.910655
441, 2350926015, -14.954745292663574, -56.16773986816406, -139.09896850585938, 0.6114792, -0.61756253, -1.2767429
442, 2350942682, -13.674257278442383, -54.71648025512695, -139.68275451660156, 0.94553614, -0.70311207, -0.99373055
444, 2350976016, -12.129663467407227, -51.660133361816406, -140.49371337890625, 0.39429477, -0.9067745, -1.1284103
448, 2351042684, -9.417888641357422, -45.54825973510742, -143.04803466796875, -0.48333392, -0.1888842, -0.1385622
450, 2351076018, -9.585326194763184, -42.48825454711914, -143.3096466064453, 0.043449577, 0.437075, 0.29482841
451, 2351092685, -9.42056941986084, -40.89704132080078, -143.20433044433594, -0.24501881, -0.33961362, 0.018094063
453, 2351126019, -8.881781578063965, -37.921875, -143.0161590576172, -0.1467886, -0.8470504, -0.24133396
455, 2351159353, -8.972630500793457, -35.10929489135742, -143.3252716064453, 0.6421164, -0.9357934, 0.92253685
457, 2351192687, -8.621000289916992, -32.47053527832031, -144.1613311767578, -0.6725865, -0.24554586, -0.6963177
459, 2351226021, -8.625240325927734, -29.94762420654297, -144.81924438476562, 1.1695962, 0.9080078, 0.624856
460, 2351242688, -8.677750587463379, -28.680952072143555, -144.9149932861328, 1.2412088, 0.7988522, 0.51020813
462, 2351276022, -8.296305656433105, -26.466062545776367, -144.98194885253906, -0.049025375, 0.7031216, 0.24697685
464, 2351309356, -8.288013458251953, -24.519975662231445, -145.27381896972656, 0.59056985, 0.066640384, 0.89013577
468, 2351376024, -8.388113021850586, -21.38370132446289, -146.0871124267578, -0.15405864, -0.17612498, 0.7129803
469, 2351392691, -8.492032051086426, -20.72032928466797, -146.0736541748047, 0.052717816, 0.35768607, 0.86100674
471, 2351426025, -8.769522666931152, -19.656787872314453, -145.92063903808594, -0.14566395, 0.99974364, 1.372859
473, 2351459359, -8.513367652893066, -19.023548126220703, -145.9120330810547, -0.33893615, 0.6810139, 1.4220266
475, 2351492693, -8.05850601196289, -18.74712562561035, -146.00543212890625, 0.22139752, -0.30057272, 0.89379597
477, 2351526027, -8.176507949829102, -18.5821533203125, -145.8761749267578, 0.43292132, -0.7799595, 1.2026615
478, 2351542694, -8.361984252929688, -18.609024047851562, -145.7446746826172, -0.022844082, -0.3470818, 0.4807968
480, 2351576028, -9.044695854187012, -18.820865631103516, -145.55853271484375, -0.11525675, 0.09832642, 1.18649
482, 2351609362, -9.43909740447998, -19.339923858642578, -145.46035766601562, -0.51567507, 0.24473624, 1.620636
484, 2351642696, -9.292407035827637, -20.245281219482422, -145.3480682373047, -0.14570695, 0.13087282, 1.316783
486, 2351676030, -8.929377555847168, -21.502187728881836, -145.2001190185547, 0.4689455, 0.09424446, 0.88260174
487, 2351692697, -8.748855590820312, -22.234193801879883, -145.1026153564453, 0.74074996, 0.5356947, 1.1736069
489, 2351726031, -8.362293243408203, -24.050519943237305, -144.83935546875, 0.7014402, 0.7839339, 0.9265652
491, 2351759365, -8.007063865661621, -26.257932662963867, -144.5724334716797, 0.7244429, 0.5261542, 0.5791178
493, 2351792699, -8.235360145568848, -28.763965606689453, -144.1807403564453, 0.7628239, 0.21388496, 0.49261189
495, 2351826033, -8.883237838745117, -31.4871826171875, -143.5227813720703, 0.842897, 0.23831895, 0.39753723
496, 2351842700, -9.246832847595215, -32.96592712402344, -143.10260009765625, 0.4555286, 0.34287816, 0.30908012
498, 2351876034, -9.81551742553711, -36.21377944946289, -142.28126525878906, -0.2160972, 0.5674359, 0.64669037
500, 2351909368, -9.677363395690918, -39.74889373779297, -141.75059509277344, -0.546294, 0.05917785, 0.37126923
504, 2351976036, -9.417084693908691, -47.67920684814453, -140.07205200195312, 0.2034053, -0.9411657, -0.518734
505, 2351992703, -9.852694511413574, -49.68888854980469, -139.42437744140625, 0.15423119, -1.2201333, -0.6421442
507, 2352026037, -11.478554725646973, -53.68246841430664, -137.95632934570312, -0.28024435, -1.9396839, -0.9872942
509, 2352059371, -14.4923095703125, -57.80097579956055, -136.10398864746094, -0.30074024, -2.2857587, -1.1615286
511, 2352092705, -19.012985229492188, -62.051700592041016, -133.739990234375, -1.26858, -1.7913952, -1.2938156
513, 2352126039, -24.88724708557129, -66.02474212646484, -130.9551239013672, -0.9745517, -0.92386615, -1.4906483
514, 2352142706, -28.637176513671875, -67.95765686035156, -128.92514038085938, -0.6223531, -0.2668093, -2.0196815
516, 2352176040, -37.57707977294922, -71.65251922607422, -123.00419616699219, 0.036580563, 1.4448886, -2.5476928
518, 2352209374, -47.708309173583984, -74.99323272705078, -114.90645599365234, 0.4392896, 2.2299147, -2.6963878
520, 2352242708, -61.699066162109375, -78.17310333251953, -100.91667175292969, 0.8935724, 3.4067135, -2.038319
523, 2352292709, -89.9654541015625, -80.3826675415039, -69.59291076660156, 0.4658979, 2.5097778, 2.289874
525, 2352326043, -100.18936920166016, -79.79320526123047, -56.955177307128906, -0.28217328, -0.43742922, 2.7947206
527, 2352359377, -102.3560562133789, -79.4344482421875, -52.56780242919922, -0.038236033, -1.2875602, 0.5013199
529, 2352392711, -104.7669448852539, -79.33554077148438, -47.861480712890625, -0.525396, -1.8206093, -0.32291698
531, 2352426045, -108.5818099975586, -79.32476806640625, -42.760562896728516, -0.91058695, -2.1232967, -0.6160736
532, 2352442712, -110.58431243896484, -79.26522064208984, -40.800209045410156, 0.026194412, -1.7457893, -0.5061922
534, 2352476046, -111.60386657714844, -79.12714385986328, -40.80659866333008, 0.6451095, -0.92690253, 0.46324444
536, 2352509380, -109.98656463623047, -78.88468170166016, -44.01557159423828, 0.3491873, -0.024730591, -0.2913761
538, 2352542714, -110.3187484741211, -78.49516296386719, -44.91373825073242, -0.008299204, 0.48798388, 0.060112953
540, 2352576048, -111.843017578125, -78.24414825439453, -43.86253356933594, -0.45163232, 0.7460042, 0.7270546
543, 2352626049, -112.1218490600586, -78.55604553222656, -43.42472457885742, -1.329886, 1.487347, 0.030688286
545, 2352659383, -110.90486907958984, -78.73402404785156, -43.56725311279297, -0.25290334, 1.0380892, -0.5339718
547, 2352692717, -109.7374267578125, -78.50267028808594, -42.88198471069336, 0.37751535, 0.11063143, -0.28034973
549, 2352726051, -110.06278228759766, -78.1012191772461, -40.774715423583984, 0.9393856, -0.5537442, -0.16074371
550, 2352742718, -110.80522918701172, -77.99866485595703, -39.38883972167969, 0.8199777, -0.82696444, 0.10873222
552, 2352776052, -112.16178894042969, -78.00550079345703, -37.31590270996094, 0.1904687, -1.3040087, 0.41709328
554, 2352809386, -112.1278305053711, -78.12294006347656, -37.76162338256836, -0.03706697, -1.4983466, 0.19609928
556, 2352842720, -110.0324478149414, -78.3072509765625, -41.31096649169922, -0.13257499, -1.2852131, 0.53175354
558, 2352876054, -105.4814682006836, -78.57794189453125, -47.57453536987305, 0.0033465198, -0.27198207, 0.076701164
559, 2352892721, -102.88638305664062, -78.6927719116211, -51.07529067993164, -0.033638503, 0.29286847, -0.028709412
563, 2352959389, -87.76083374023438, -79.1493911743164, -69.91923522949219, -0.077219464, 0.97031736, 0.9219179
565, 2352992723, -71.35589599609375, -78.89259338378906, -88.17999267578125, -0.15656091, 1.423137, 0.7229376
567, 2353026057, -53.70832443237305, -76.85122680664062, -107.71327209472656, 0.7403648, 2.4237316, 0.31272125
568, 2353042724, -47.107181549072266, -75.11019134521484, -115.10611724853516, -0.19813865, 2.8834276, -0.111688614
570, 2353076058, -39.97512435913086, -71.13697052001953, -122.66181182861328, -1.4829456, 2.5349789, -2.3271961
572, 2353109392, -34.93000411987305, -67.57096862792969, -125.81089782714844, -0.9012583, 0.67664176, -2.4894123
574, 2353142726, -27.99036407470703, -64.36106872558594, -128.7143096923828, 1.1065882, -0.7707611, -2.123201
576, 2353176060, -20.642641067504883, -61.693145751953125, -131.78286743164062, 0.13726269, -1.0749015, -2.375875
577, 2353192727, -16.87282371520996, -60.27074432373047, -133.5084686279297, -0.6602937, -1.9845597, -2.740499
579, 2353226061, -11.659154891967773, -57.14940643310547, -136.3671875, -0.057583984, -3.4614067, -0.5125923
581, 2353259395, -9.24609088897705, -53.28849411010742, -138.80767822265625, 0.29556492, -2.8651538, -1.1268387
583, 2353292729, -8.991470336914062, -49.122894287109375, -140.0490264892578, -0.23666477, -0.18726161, -1.0534639
585, 2353326063, -10.458702087402344, -44.8288688659668, -139.935791015625, -0.5179101, 0.1139611, -0.28077984
586, 2353342730, -10.894499778747559, -42.75608825683594, -139.61965942382812, -0.73729026, -0.121554054, 0.010066986
588, 2353376064, -11.110466957092285, -38.93880844116211, -139.29776000976562, -1.4932872, 0.96715075, 1.7594604
592, 2353442732, -7.972943305969238, -32.895530700683594, -140.93299865722656, -0.2851241, -0.74624944, 0.8124523
594, 2353476066, -6.695420265197754, -29.965328216552734, -141.50503540039062, 0.15020499, -0.7438961, -0.054494858
595, 2353492733, -6.391724586486816, -28.641765594482422, -141.63327026367188, 0.52049136, -0.18076438, 0.11208439
597, 2353526067, -6.596604824066162, -26.12019157409668, -141.5850830078125, 0.9169, 0.18802133, 0.5618448
601, 2353592735, -7.687283992767334, -21.5615234375, -141.4254913330078, 0.04223427, 0.45813856, 1.0037212
603, 2353626069, -7.843335151672363, -19.843015670776367, -141.5846710205078, -0.24011642, 0.41310632, 1.0008402
604, 2353642736, -7.739299297332764, -19.1446590423584, -141.6378631591797, 0.53134316, 0.3229069, 0.9451418
606, 2353676070, -7.901149272918701, -17.851409912109375, -141.52487182617188, 1.8058864, 0.46852875, 1.2807894
608, 2353709404, -8.128637313842773, -16.97554588317871, -141.39788818359375, 0.9451361, 0.6529662, 1.1012487
610, 2353742738, -8.343212127685547, -16.56695556640625, -141.42832946777344, 0.7580467, 0.63491106, 1.2331123
612, 2353776072, -8.270017623901367, -16.655935287475586, -141.5599822998047, 0.26997513, 0.45316336, 1.6596327
613, 2353792739, -8.09460735321045, -16.844642639160156, -141.59645080566406, 0.7169566, 0.21460356, 1.81285
615, 2353826073, -7.9230570793151855, -17.620014190673828, -141.50270080566406, 0.42290643, 0.1489374, 1.1580944
617, 2353859407, -8.046653747558594, -18.71364402770996, -141.3860626220703, 0.87838906, -0.21502353, 1.4915581
621, 2353926075, -9.099822998046875, -22.249549865722656, -141.25439453125, 0.453817, 0.15482692, 1.2984657
622, 2353942742, -9.551787376403809, -23.3662109375, -141.13021850585938, 0.47403914, 0.37207952, 1.2562599
624, 2353976076, -10.484319686889648, -25.91056251525879, -140.71115112304688, 0.5833786, 0.8096425, 0.9103384
626, 2354009410, -11.478242874145508, -28.69057846069336, -140.2457733154297, 0.40009013, 0.60649896, 0.45921707
628, 2354042744, -12.293858528137207, -31.698972702026367, -139.79742431640625, 0.35979435, 0.5903127, 0.9353285
630, 2354076078, -12.339947700500488, -35.1330680847168, -139.66763305664062, -0.4528654, 0.366316, 0.058707237
631, 2354092745, -12.038331985473633, -37.0521240234375, -139.76425170898438, -0.7386948, 0.6346988, 0.45581055
633, 2354126079, -11.087725639343262, -40.915279388427734, -140.11300659179688, -0.32235518, -0.29860917, 0.24977493
635, 2354159413, -10.412707328796387, -44.7850456237793, -139.95333862304688, -0.11080181, -0.63699406, -0.04306221
637, 2354192747, -10.37190055847168, -48.891231536865234, -139.1865997314453, -0.2390185, -1.3500651, -0.3932438
640, 2354242748, -12.534090995788574, -55.08074951171875, -137.27342224121094, -0.4280297, -1.7731937, -0.9772253
642, 2354276082, -16.125091552734375, -59.082611083984375, -135.61390686035156, -0.58146244, -2.1682584, -1.3886299
644, 2354309416, -21.841617584228516, -62.923980712890625, -132.8271942138672, -0.32731542, -1.5497618, -1.5076475
646, 2354342750, -29.143468856811523, -66.31510162353516, -129.22789001464844, -0.9015996, -0.67141134, -1.8778133
648, 2354376084, -37.07398223876953, -69.4960708618164, -125.00495910644531, -0.56832606, 0.4783997, -1.8173852
649, 2354392751, -41.36160659790039, -71.07613372802734, -122.23577117919922, -0.032643795, 0.9832632, -1.6926832
651, 2354426085, -50.1671257019043, -74.08773040771484, -115.26459503173828, -0.09713583, 2.0253842, -1.7220011
653, 2354459419, -59.58325958251953, -76.75359344482422, -105.80459594726562, 0.08480966, 2.481104, -0.80406094
655, 2354492753, -72.08966827392578, -78.96212005615234, -91.68586730957031, 0.05105706, 2.0488133, 0.13901138
657, 2354526087, -87.61428833007812, -80.10558319091797, -73.7440185546875, -0.16170861, 1.534831, 0.4490862
660, 2354576088, -102.73505401611328, -79.7509765625, -54.96672821044922, 0.21709028, -0.78636694, 0.15466976
662, 2354609422, -109.13855743408203, -79.49762725830078, -46.76250076293945, -0.045955017, -2.2496295, 0.4169159
664, 2354642756, -113.19108581542969, -79.37640380859375, -42.69708251953125, 0.0076864986, -1.218731, 0.23603821
666, 2354676090, -115.42269897460938, -79.09676361083984, -41.508522033691406, 0.4574872, -0.01864478, 0.2420559
667, 2354692757, -116.26213073730469, -78.99223327636719, -41.10022735595703, 0.30585492, 0.49841478, 0.3288889
669, 2354726091, -117.32585906982422, -78.97795867919922, -40.37794494628906, -0.22090688, 1.0049597, 0.357543
671, 2354759425, -117.21951293945312, -79.0762710571289, -40.34345245361328, -0.28366077, 0.8613204, 0.10742283
673, 2354792759, -117.33069610595703, -79.08287048339844, -39.67268371582031, -0.23498805, 0.51022756, -0.19137573
675, 2354826093, -117.92591094970703, -79.05132293701172, -37.990989685058594, -0.08148855, -0.2155465, -0.13578415
676, 2354842760, -118.13186645507812, -78.97904205322266, -37.149269104003906, 0.07084495, -0.54830307, 0.13085747
678, 2354876094, -117.93135833740234, -78.94831848144531, -36.33836364746094, -0.01984749, -0.5841204, -0.025862694
680, 2354909428, -118.12374114990234, -78.92288970947266, -35.66978073120117, 0.1626381, -0.13093624, -0.36542606
682, 2354942762, -118.3055191040039, -78.76750946044922, -35.29362869262695, 0.14668663, -0.0017563648, 0.07639408
684, 2354976096, -117.76425170898438, -78.58323669433594, -35.71706771850586, 0.11691398, -0.122115076, 0.18258381
685, 2354992763, -117.58126068115234, -78.51834106445312, -35.87749481201172, 0.087539, -0.2211664, 0.023313522
687, 2355026097, -117.65080261230469, -78.4402847290039, -35.84081268310547, 0.018850971, -0.37729356, 0.21637726
689, 2355059431, -116.83561706542969, -78.41227722167969, -36.735347747802734, -0.0070749116, -0.3195625, 0.34171867
691, 2355092765, -114.36940002441406, -78.50813293457031, -39.14035415649414, -0.13946936, 0.047358148, 0.06271553
693, 2355126099, -111.72339630126953, -78.6775131225586, -41.632118225097656, -0.24518204, 0.22169714, 0.08211899
696, 2355176100, -106.30081939697266, -78.91072082519531, -47.410125732421875, -0.22179364, -0.38974681, 0.21899033
698, 2355209434, -101.6981201171875, -79.11076354980469, -52.842796325683594, 0.02258488, -0.35229352, -0.17302132
700, 2355242768, -97.02037048339844, -79.3233871459961, -58.54917526245117, 0.39791146, -0.33280465, 0.10452747
702, 2355276102, -90.63225555419922, -79.41521453857422, -66.04432678222656, 0.28129315, -0.33170843, 0.1843338
703, 2355292769, -87.1325912475586, -79.36090850830078, -70.12565612792969, 0.16875571, -0.15811932, -0.05371952
705, 2355326103, -79.89485168457031, -79.19145202636719, -78.9293212890625, 0.5205899, 0.5146735, -0.014659882
707, 2355359437, -71.24142456054688, -78.90770721435547, -89.23588562011719, 0.486968, 0.7868503, 0.46194935
709, 2355392771, -60.961090087890625, -77.81169891357422, -100.93955993652344, -0.39440554, 0.79884726, 0.26451683
711, 2355426105, -52.775390625, -75.97354888916016, -110.18130493164062, 0.74668974, 1.6596713, -0.4578867
712, 2355442772, -48.59639358520508, -74.8459701538086, -114.75643920898438, 0.5639819, 2.085767, -0.1238184
716, 2355509440, -34.74574661254883, -68.13130950927734, -127.23478698730469, -0.45176288, 1.0267477, -2.3388467
718, 2355542774, -28.752269744873047, -64.44095611572266, -129.85476684570312, -0.70140386, 0.28962976, -3.9135847
720, 2355576108, -22.5039005279541, -61.3836555480957, -130.9556427001953, -0.1974928, -0.5354596, -1.5760355
721, 2355592775, -20.078493118286133, -60.16793441772461, -131.42689514160156, -1.2353778, -2.3782494, -0.35083294
723, 2355626109, -15.239889144897461, -57.80150604248047, -133.91294860839844, -0.8403806, -2.5272386, -0.18657875
725, 2355659443, -11.813187599182129, -54.39913558959961, -136.90150451660156, -0.7078341, -1.3277227, -1.0665293
727, 2355692777, -9.208972930908203, -50.55968475341797, -138.84754943847656, -0.0014363362, -1.7798444, -0.8616018
729, 2355726111, -9.418081283569336, -46.80853271484375, -139.40977478027344, 0.6924531, -1.823082, -0.100743294
730, 2355742778, -10.098221778869629, -45.06431198120117, -139.5252685546875, -0.095379375, -0.8615628, 0.65243053
732, 2355776112, -11.207486152648926, -41.75026321411133, -140.34698486328125, -1.9104406, -0.18683761, 0.48365974
736, 2355842780, -11.136463165283203, -34.9625129699707, -142.9665069580078, 0.669624, 0.7828364, 0.06988335
738, 2355876114, -10.355749130249023, -31.89418601989746, -143.71804809570312, 0.012508411, 0.9915795, 0.6366415
741, 2355926115, -8.521371841430664, -28.308008193969727, -145.0999755859375, -0.58634806, 0.85085124, 0.7867193
743, 2355959449, -7.633845329284668, -26.185293197631836, -145.9069366455078, -0.4921601, -0.37711564, 0.84261894
745, 2355992783, -7.702236175537109, -24.211612701416016, -146.01766967773438, 0.67590266, 0.05028751, 0.9090338
747, 2356026117, -8.409637451171875, -22.536523818969727, -145.49285888671875, 0.64986503, 1.233666, 1.5876427
748, 2356042784, -8.661816596984863, -21.92026710510254, -145.26467895507812, 0.49184418, 1.2763191, 1.8147202
750, 2356076118, -8.692400932312012, -21.112937927246094, -145.1233367919922, 0.040687248, 0.13422891, 1.4300451
752, 2356109452, -8.822632789611816, -20.694828033447266, -145.08871459960938, -0.021335684, -0.59779817, 1.3643417
754, 2356142786, -9.036659240722656, -20.66360092163086, -144.87486267089844, 0.40788063, -0.07917829, 1.8516817
757, 2356192787, -9.131219863891602, -21.359346389770508, -144.6707305908203, 0.7384772, 0.29328632, 1.681036
759, 2356226121, -9.203145980834961, -22.4583797454834, -144.59799194335938, 0.63760793, -0.095640354, 1.2722006
761, 2356259455, -9.646868705749512, -23.90908432006836, -144.39605712890625, 0.5862675, 0.08515033, 1.2501802
763, 2356292789, -10.22138786315918, -25.69304847717285, -143.93528747558594, 0.63010824, 0.3621086, 1.1942835
765, 2356326123, -10.672411918640137, -27.825855255126953, -143.37806701660156, 0.28890657, 0.56066513, 0.9324455
766, 2356342790, -10.746648788452148, -29.062097549438477, -143.12709045410156, 0.1371162, 0.688752, 1.2889633
768, 2356376124, -10.460139274597168, -31.838302612304688, -142.79100036621094, -0.048234757, 0.47868732, 1.2133827
770, 2356409458, -9.745445251464844, -35.071231842041016, -142.5357666015625, -0.33041948, 0.23162167, 0.5761099
772, 2356442792, -9.191826820373535, -38.62035369873047, -142.0447998046875, 0.16322856, -0.22220507, 0.27964497
774, 2356476126, -9.088884353637695, -42.32343292236328, -141.0576171875, 0.20513119, -0.15977454, -0.03476906
775, 2356492793, -9.273519515991211, -44.19120788574219, -140.43385314941406, 0.032197054, -0.1088032, -0.07339859
777, 2356526127, -9.69970417022705, -48.148468017578125, -139.20428466796875, -0.13722977, -1.090293, -0.44679546
779, 2356559461, -10.440258026123047, -52.23627471923828, -138.10696411132812, -0.10494087, -1.8353851, -0.7462425
781, 2356592795, -12.777206420898438, -56.226341247558594, -136.8974609375, -0.3357232, -2.1710885, -0.801816
783, 2356626129, -17.168432235717773, -60.14550018310547, -134.92832946777344, -0.32358798, -2.1650786, -1.0986423
784, 2356642796, -20.12714385986328, -62.00739669799805, -133.5587615966797, -0.3289127, -1.6093763, -1.3065443
786, 2356676130, -26.801633834838867, -65.40129089355469, -130.32650756835938, -1.0073133, -1.0644015, -1.9243946
788, 2356709464, -34.22019958496094, -68.73731994628906, -126.477783203125, -1.1995895, 0.046508577, -1.7650814
790, 2356742798, -43.17815399169922, -72.2790298461914, -120.26154327392578, -0.262556, 1.579686, -1.9520321
793, 2356792799, -59.938148498535156, -77.17495727539062, -104.3637924194336, -0.08274391, 1.762588, -2.030436
795, 2356826133, -74.98954772949219, -79.35846710205078, -88.01476287841797, -0.057226785, 1.9828963, -1.5119209
797, 2356859467, -89.03910827636719, -79.8634262084961, -72.46302795410156, 0.64185214, 2.4056993, 1.2849779
799, 2356892801, -97.68335723876953, -79.19429779052734, -62.113548278808594, 0.3300317, 0.7322014, 1.6228428
802, 2356942802, -107.51123809814453, -78.76050567626953, -48.055397033691406, -0.30806983, -0.23799905, -0.22419834
804, 2356976136, -113.56974029541016, -78.49266815185547, -39.331878662109375, -1.1183877, -1.1595731, 0.044783592
806, 2357009470, -117.49190521240234, -77.93354034423828, -34.77088165283203, 0.19321485, -1.5178895, 0.7617197
808, 2357042804, -117.95307922363281, -77.8686752319336, -34.89662551879883, 1.038204, -1.1840485, 0.4920578
810, 2357076138, -116.25696563720703, -78.07638549804688, -37.42564010620117, 0.6906441, -0.36926898, -0.18761158
811, 2357092805, -115.63044738769531, -78.11333465576172, -38.529441833496094, 0.27591825, 0.2722572, -0.24878407
815, 2357159473, -114.85077667236328, -77.97077941894531, -40.134010314941406, -0.68389446, 1.234684, -0.1780672
817, 2357192807, -115.54141998291016, -78.02333068847656, -38.81585693359375, -0.33875513, 0.6943865, 0.3310976
819, 2357226141, -115.00640869140625, -77.9961166381836, -38.15825653076172, -0.24457687, 0.3313726, -0.05743122
820, 2357242808, -114.68489837646484, -77.96021270751953, -37.755191802978516, 0.08574112, -0.022588667, -0.15127468
824, 2357309476, -113.05024719238281, -77.97807312011719, -37.744117736816406, -0.059461333, -0.9307113, -0.003931999
826, 2357342810, -112.05536651611328, -78.05731964111328, -39.193058013916016, -0.12042248, -0.82047886, 0.019854546
828, 2357376144, -110.36079406738281, -78.17253875732422, -41.92775344848633, -0.26802194, -0.6085974, 0.23434544
829, 2357392811, -109.02694702148438, -78.25617218017578, -43.820552825927734, -0.09758961, -0.2922624, 0.009444237
831, 2357426145, -105.94097900390625, -78.46356964111328, -48.01259231567383, 0.07184469, 0.058774296, 0.39773178
833, 2357459479, -100.92000579833984, -78.84011840820312, -54.03480911254883, -0.17739405, 0.22629234, 0.8375969
837, 2357526147, -78.29288482666016, -79.37017822265625, -79.46665954589844, 0.46876556, 0.83606184, 0.15893555
838, 2357542814, -71.60944366455078, -79.14500427246094, -87.05115509033203, 0.5062961, 1.044633, -0.17689323
842, 2357609482, -52.12201690673828, -76.70672607421875, -108.43477630615234, -0.95237684, 0.619835, -0.36339378
844, 2357642816, -45.29242706298828, -74.7289810180664, -114.97190856933594, -0.43135482, 0.7001021, -0.15794754
846, 2357676150, -37.79435348510742, -71.74463653564453, -122.09669494628906, -0.0757598, -0.09112076, -0.16390419
847, 2357692817, -34.72141647338867, -70.0036849975586, -125.09477996826172, 0.8730984, 0.15723008, -0.9553642
849, 2357726151, -29.699190139770508, -67.00130462646484, -129.1961212158203, 1.3858991, 0.48004028, -2.1450295
851, 2357759485, -25.160051345825195, -63.96138381958008, -132.13133239746094, 0.31250158, 0.884459, -2.9447384
853, 2357792819, -21.935699462890625, -61.063297271728516, -133.95358276367188, 0.20694998, 1.1002963, -1.5449429
855, 2357826153, -18.330915451049805, -58.10964584350586, -135.74456787109375, -1.0629369, 0.24862608, -1.0023727
858, 2357876154, -12.649988174438477, -53.48029327392578, -137.74273681640625, -0.21113497, -1.0603164, -1.2892942
860, 2357909488, -9.735528945922852, -50.06839370727539, -138.71775817871094, -0.61349124, -1.4899119, 0.3983221
862, 2357942822, -7.756491184234619, -46.93987274169922, -139.732421875, -0.30672336, -1.8013383, 0.05486965
864, 2357976156, -7.717463493347168, -43.8173828125, -140.7695770263672, -0.16322415, -0.3984257, -0.22316074
865, 2357992823, -7.779289245605469, -42.14360809326172, -141.2474822998047, 0.1716476, 0.019196298, 0.012425423
867, 2358026157, -7.668586254119873, -38.6575813293457, -141.96974182128906, 0.44453198, -1.1472635, -1.5131807
869, 2358059491, -7.81777811050415, -35.36463165283203, -142.37887573242188, 0.7129169, 0.04204586, 0.66421795
871, 2358092825, -8.011639595031738, -32.50234603881836, -143.01210021972656, -1.7345879, 0.19380127, 0.95191574
873, 2358126159, -7.525692939758301, -30.062551498413086, -143.67877197265625, -1.4544971, 0.08883494, 1.5774031
874, 2358142826, -7.289399147033691, -28.966787338256836, -143.8346710205078, -0.5899182, -0.16905867, 1.9082966
876, 2358176160, -6.870001316070557, -27.034801483154297, -143.99851989746094, -0.17490882, -0.14541094, 0.61853313
878, 2358209494, -6.9123616218566895, -25.079492568969727, -144.12149047851562, 1.3592472, 0.30022168, 0.59655
880, 2358242828, -7.345096588134766, -23.4885196685791, -144.10125732421875, 1.6438437, 1.0456753, 1.3631334
882, 2358276162, -7.799994945526123, -22.485143661499023, -144.08157348632812, 0.40208003, 0.2877702, 0.92131424
883, 2358292829, -7.881653308868408, -22.221940994262695, -144.06529235839844, -0.258931, 0.17928137, 1.2574387
885, 2358326163, -8.035181045532227, -21.91011619567871, -143.9677276611328, -0.60141, 0.019281624, 1.8612127
887, 2358359497, -8.028857231140137, -21.96036720275879, -143.75169372558594, 0.017133884, 0.10705913, 1.4937468
889, 2358392831, -7.982068061828613, -22.397659301757812, -143.54403686523438, 1.1894313, 0.48305386, 0.9663811
891, 2358426165, -8.33044147491455, -23.230390548706055, -143.26780700683594, 1.2516059, 0.30312228, 1.4045448
894, 2358476166, -8.556051254272461, -25.31155776977539, -142.878173828125, -0.23095664, -0.23640262, 1.3969803
896, 2358509500, -8.72280502319336, -27.073909759521484, -142.775146484375, -0.06341913, -0.7339044, 1.2788248
898, 2358542834, -9.173380851745605, -29.100549697875977, -142.56541442871094, 0.18352634, -0.10855421, 1.044632
900, 2358576168, -9.674354553222656, -31.42378807067871, -142.11212158203125, 0.2619437, 0.4472068, 0.96737766
901, 2358592835, -9.806550025939941, -32.71255111694336, -141.853759765625, -0.15513203, 0.6793049, 0.6700134
903, 2358626169, -9.610790252685547, -35.502445220947266, -141.40809631347656, -0.34294847, 0.8360022, 0.8319721
907, 2358692837, -8.292495727539062, -42.12126541137695, -140.65782165527344, -0.4738439, -1.0325615, 0.18301582
909, 2358726171, -8.655499458312988, -45.58982849121094, -139.84104919433594, 0.0018805822, -1.371138, -0.0118255615
910, 2358742838, -9.239431381225586, -47.2885856628418, -139.26405334472656, -0.04189478, -1.397327, -0.05295086
912, 2358776172, -11.140996932983398, -50.71633529663086, -137.9820556640625, -0.12252726, -1.4359305, -0.45458317
916, 2358842840, -17.645814895629883, -58.04581832885742, -134.93099975585938, -1.0688199, -1.3381059, -0.93248653
918, 2358876174, -22.219303131103516, -61.899757385253906, -132.51194763183594, -1.4056916, -1.2005132, -1.4328794
919, 2358892841, -25.02880859375, -63.84783172607422, -130.7985076904297, -1.3640734, -1.0185285, -1.6078053
921, 2358926175, -31.664661407470703, -67.54805755615234, -126.41802978515625, -0.8834975, -0.13722612, -2.0507007
923, 2358959509, -39.3023567199707, -70.93815612792969, -120.9245834350586, 0.03954514, 0.77987397, -2.7037091
925, 2358992843, -48.90167236328125, -74.12491607666016, -112.50993347167969, 0.35009506, 1.45384, -2.8359814
927, 2359026177, -61.54596710205078, -76.7873764038086, -100.19995880126953, 0.82353425, 2.3628497, -1.9856076
928, 2359042844, -68.82694244384766, -77.80622863769531, -92.68818664550781, 0.887655, 2.6340222, -1.0394955
930, 2359076178, -84.67342376708984, -79.026123046875, -75.4950942993164, 0.8088804, 2.6503987, 0.97138214
932, 2359109512, -98.31681060791016, -79.15245819091797, -59.67696762084961, -0.06164486, 1.7695613, 1.5427542
939, 2359226181, -120.1923828125, -77.1376724243164, -31.513790130615234, 0.7985116, -1.076931, 0.15180779
941, 2359259515, -124.20941925048828, -76.5058364868164, -26.972440719604492, 1.4962292, -1.5012455, 1.6067781
943, 2359292849, -123.49136352539062, -76.48783111572266, -28.374740600585938, 0.69990057, -0.5086405, 0.896842
945, 2359326183, -122.07882690429688, -76.64720916748047, -31.094804763793945, -0.55674005, 0.34209496, -0.46056843
946, 2359342850, -122.04972076416016, -76.69319152832031, -31.695154190063477, -1.1064669, 0.3630988, -0.523036
948, 2359376184, -123.13978576660156, -76.63301086425781, -31.097227096557617, -1.4055102, 0.588578, -0.60192776
950, 2359409518, -125.09493255615234, -76.34730529785156, -28.737564086914062, -0.8390793, 0.8058466, -0.082613945
952, 2359442852, -126.05604553222656, -76.01862335205078, -26.628870010375977, -0.15669024, 0.7296949, 0.38885403
954, 2359476186, -125.736572265625, -75.81641387939453, -25.482851028442383, 0.09984603, -0.049388763, 0.22550774
955, 2359492853, -125.5093994140625, -75.73033905029297, -25.15631103515625, 0.0836636, -0.67249674, 0.12889576
959, 2359559521, -125.10641479492188, -75.87808990478516, -24.82496452331543, -0.5202126, -1.1130952, -0.20240784
961, 2359592855, -124.80152130126953, -75.9914321899414, -25.21891975402832, -0.75530136, -1.0821732, -0.6103859
963, 2359626189, -124.69300079345703, -75.83346557617188, -26.014366149902344, -0.33156595, -1.0569605, 0.16439152
964, 2359642856, -124.57616424560547, -75.7100601196289, -26.683818817138672, -0.07385069, -0.5056654, 0.39843845
966, 2359676190, -124.03209686279297, -75.70339965820312, -28.396589279174805, -0.026158085, 0.62406224, 0.4301653
968, 2359709524, -123.0727310180664, -76.03448486328125, -29.936573028564453, -0.47207516, 0.93967843, 0.06463432
970, 2359742858, -121.47615814208984, -76.27759552001953, -31.075328826904297, -1.2063088, 0.75414187, -0.014616966
972, 2359776192, -120.17390441894531, -76.5210952758789, -32.2922477722168, -0.19127087, 0.7802936, -0.40567207
973, 2359792859, -120.57057189941406, -76.55692291259766, -32.15863800048828, 0.3994035, 0.5516785, -0.6145115
975, 2359826193, -120.39320373535156, -76.21708679199219, -31.780244827270508, -0.45271415, -1.2289099, 0.90345764
977, 2359859527, -117.06556701660156, -76.69099426269531, -34.528961181640625, -0.4249756, -0.06746537, -0.105825424
979, 2359892861, -116.83683776855469, -76.97187042236328, -34.71875762939453, -0.23255269, -0.112947464, -0.4933691
981, 2359926195, -116.80870819091797, -77.07744598388672, -34.90764236450195, -0.42784205, -0.22664873, 0.16146374
982, 2359942862, -116.3858642578125, -77.21707153320312, -35.569244384765625, 0.03775712, -0.0050041196, 0.16323757
984, 2359976196, -114.83506774902344, -77.36148071289062, -37.16382598876953, 0.75319684, 0.19304366, -0.11887264
986, 2360009530, -113.49871826171875, -77.30680084228516, -37.84982681274414, 0.5818116, 0.52260727, -0.11480999
988, 2360042864, -113.81234741210938, -77.48088073730469, -37.2950439453125, 0.39844888, -0.08466123, -0.40421677
990, 2360076198, -115.08705139160156, -77.51121520996094, -36.00117492675781, 0.74675155, -0.5123088, 0.32251263
991, 2360092865, -114.71952056884766, -77.47407531738281, -36.194522857666016, 0.6964987, -0.25299388, 0.47767448
995, 2360159533, -113.75249481201172, -77.60374450683594, -36.905147552490234, 0.27925375, -0.41799024, -0.11289787
997, 2360192867, -114.22817993164062, -77.59674835205078, -36.762908935546875, -0.031154409, -0.28975415, 0.5138893
999, 2360226201, -113.18201446533203, -77.65872955322266, -38.304439544677734, 0.10213467, 0.51491004, -0.26469326
1000, 2360242868, -112.99860382080078, -77.69757080078125, -38.738075256347656, 0.2030775, 0.49033758, -0.5668602
1002, 2360276202, -113.9573974609375, -77.58621978759766, -38.00275421142578, 0.081582814, 0.15061007, -0.23458385
1004, 2360309536, -114.58232879638672, -77.38204193115234, -37.40245819091797, -0.37828955, -0.019112928, 0.3652115
1006, 2360342870, -114.2662353515625, -77.37464141845703, -37.8776741027832, -0.21278417, 0.0024484727, -0.028603554
1008, 2360376204, -114.5649185180664, -77.35655212402344, -37.88538360595703, -0.17103347, -0.12810992, -0.14154434
1009, 2360392871, -114.80266571044922, -77.30936431884766, -37.815452575683594, -0.18999027, -0.1384151, -0.01922512
1011, 2360426205, -114.99202728271484, -77.20993041992188, -37.86075973510742, 0.00941118, 0.07273335, -0.09824467
1015, 2360492873, -115.84980773925781, -76.98139190673828, -37.16377639770508, -0.036469225, -0.072240055, -0.15182209
1017, 2360526207, -116.53163146972656, -76.79627227783203, -36.62685012817383, -0.16981675, -0.18570094, 0.28633213
1018, 2360542874, -116.80208587646484, -76.7238540649414, -36.4844856262207, -0.037661124, -0.13490315, 0.32387924
1020, 2360576208, -117.35726928710938, -76.62049102783203, -36.27921676635742, 0.31659022, 0.13980567, 0.025821686
1022, 2360609542, -117.84573364257812, -76.54762268066406, -36.20170593261719, 0.34106547, 0.07924116, -0.104483604
1024, 2360642876, -117.98616790771484, -76.46871185302734, -36.474639892578125, 0.008216714, -0.02166824, 0.13270283
1026, 2360676210, -118.13114166259766, -76.39994812011719, -36.75188064575195, -0.2189332, 0.06773549, 0.13621902
1027, 2360692877, -118.36814880371094, -76.38211822509766, -36.714073181152344, -0.215281, 0.12334853, -0.08897114
1029, 2360726211, -119.05725860595703, -76.2973861694336, -36.31230163574219, -0.13371667, 0.0735395, -0.18579865
1031, 2360759545, -119.3560562133789, -76.15632629394531, -36.19728469848633, -0.0131161455, -0.0049417596, 0.088178635
1035, 2360826213, -118.96424865722656, -76.08936309814453, -36.59602737426758, -0.20882118, -0.050023764, 0.0111169815
1036, 2360842880, -118.95711517333984, -76.07939147949219, -36.499393463134766, -0.28665686, -0.035437085, -0.07499981
1038, 2360876214, -119.2805404663086, -76.01734924316406, -36.0949592590332, -0.43814272, 0.028284447, -0.1668539
1040, 2360909548, -119.7596206665039, -75.90589904785156, -35.734283447265625, -0.22303377, -0.022955116, -0.047153473
1042, 2360942882, -120.02262878417969, -75.76819610595703, -35.630271911621094, 0.07908056, -0.0397976, 0.13536644
1044, 2360976216, -120.03768157958984, -75.69023132324219, -35.63104248046875, 0.15457204, -0.1015758, 0.104724884
1045, 2360992883, -120.11200714111328, -75.67059326171875, -35.51956558227539, 0.14722316, -0.12913662, 0.016600609
1047, 2361026217, -120.44661712646484, -75.64038848876953, -35.128231048583984, 0.08867565, -0.14449374, -0.017910004
1049, 2361059551, -120.67239379882812, -75.60595703125, -34.93827819824219, -0.004879316, -0.05723541, 0.008304596
1051, 2361092885, -120.64088439941406, -75.58394622802734, -35.08151626586914, -0.19082323, -0.027265228, 6.67572E-5
1054, 2361142886, -120.84153747558594, -75.54768371582031, -35.08401870727539, -0.19494794, -0.066958115, -0.047423363
1056, 2361176220, -121.23297882080078, -75.46809387207031, -34.73595428466797, -0.035913125, 0.07303442, -0.017029762
1058, 2361209554, -121.56062316894531, -75.39913177490234, -34.36530303955078, 0.054286882, 0.111510165, 0.03998947
1060, 2361242888, -121.76163482666016, -75.37582397460938, -34.13667297363281, 0.01912881, -0.003151868, 0.04847145
1062, 2361276222, -121.80257415771484, -75.36909484863281, -34.0888557434082, -0.13029887, -0.13610844, -0.01872158
1063, 2361292889, -121.76348876953125, -75.35730743408203, -34.13471984863281, -0.24894156, -0.17071539, -0.01636982
1065, 2361326223, -121.65087890625, -75.33865356445312, -34.309425354003906, -0.40234807, -0.19669452, -0.00344944
1067, 2361359557, -121.58881378173828, -75.34114837646484, -34.487884521484375, -0.4045288, -0.17350395, -0.028569221
1069, 2361392891, -121.64016723632812, -75.34063720703125, -34.561988830566406, -0.31843, -0.11375077, -0.08690548
1071, 2361426225, -121.8447265625, -75.32398986816406, -34.4126091003418, -0.23709723, -0.019624103, -0.078287125
1072, 2361442892, -122.00987243652344, -75.30032348632812, -34.23652648925781, -0.16954006, 0.04294209, -0.01761818
1074, 2361476226, -122.26410675048828, -75.25685119628906, -33.895111083984375, -0.07449666, 0.09239674, 0.12869167
1076, 2361509560, -122.29936218261719, -75.25151062011719, -33.796756744384766, -0.05219328, 0.076615326, 0.07821369
1078, 2361542894, -122.1701889038086, -75.26892852783203, -33.9268684387207, -0.095432766, -0.015144679, -0.07211971
1080, 2361576228, -122.23648071289062, -75.26289367675781, -33.85445022583008, -0.102993414, -0.18180141, -0.03208542
1081, 2361592895, -122.3228530883789, -75.24471282958984, -33.743465423583984, -0.120811194, -0.16527095, 0.03403473
1083, 2361626229, -122.49710845947266, -75.21839904785156, -33.5767936706543, -0.050700814, -0.10798995, 3.0612946E-4
1085, 2361659563, -122.4740219116211, -75.24340057373047, -33.6710319519043, -0.161742, -0.044180688, 0.13643456
1087, 2361692897, -121.95915985107422, -75.32598876953125, -34.15906524658203, -0.49468648, 0.050243143, 0.007891655
1090, 2361742898, -121.57626342773438, -75.45975494384766, -34.53129196166992, -0.6715287, 0.0547885, -0.14495277
1092, 2361776232, -121.9947738647461, -75.44043731689453, -34.16373062133789, -0.20847927, 0.0047637317, -0.16684914
1094, 2361809566, -122.60061645507812, -75.36133575439453, -33.571353912353516, 0.42176107, -0.09564902, -0.014230728
1096, 2361842900, -122.92988586425781, -75.3024673461914, -33.140933990478516, 0.71226203, -0.22101285, 0.090423584
1098, 2361876234, -122.8545150756836, -75.3114242553711, -33.128108978271484, 0.49194458, -0.23597994, 0.15634537
1099, 2361892901, -122.6964111328125, -75.35028839111328, -33.32284927368164, 0.23412496, -0.14206529, 0.07858181
1101, 2361926235, -122.4345474243164, -75.43767547607422, -33.86847686767578, -0.0391986, -0.022892645, -0.119758606
1103, 2361959569, -122.53096008300781, -75.4530029296875, -34.13182067871094, -0.03001072, 0.0077669634, -0.10083103
1105, 2361992903, -122.79972839355469, -75.4151382446289, -34.00102615356445, -0.005805316, 0.124470115, -0.0017757416
1107, 2362026237, -122.85099029541016, -75.38228607177734, -33.83641815185547, -0.06300759, 0.07243083, 0.0506773
1110, 2362076238, -122.61819458007812, -75.41583251953125, -33.9456787109375, -0.3174983, -0.1372269, 0.0059785843
1112, 2362109572, -122.62944793701172, -75.40193176269531, -33.96945571899414, -0.22005194, -0.070421666, 0.018064499
1114, 2362142906, -122.71054077148438, -75.3833236694336, -33.89856719970703, 0.014650464, 0.03872116, 0.03973961
1116, 2362176240, -122.61821746826172, -75.40773010253906, -33.834720611572266, 0.037086833, 0.048255328, 0.030540466
