PacketCounter_tibia,SampleTimeFine_tibia,Euler_X_tibia,Euler_Y_tibia,Euler_Z_tibia,FreeAcc_X_tibia,FreeAcc_Y_tibia,FreeAcc_Z_tibia
1,1208006806,-165.3299866,-79.01475525,0.490093708,-0.082196176,-0.115235515,-0.05026436
2,1208023473,-165.2764893,-79.0421524,0.420228928,-0.0566195,-0.16416931,-0.070547104
3,1208040140,-165.1854095,-79.07133484,0.298288971,-0.03763565,-0.08923721,0.0415287
4,1208056807,-165.0800934,-79.10644531,0.174911126,-0.048476413,0.004582351,0.024840355
5,1208073474,-164.970108,-79.14385986,0.076545507,-0.0864944,0.041848443,-0.018874168
6,1208090141,-164.8330841,-79.18489838,-0.029133886,-0.11957499,0.012155696,-0.006399155
7,1208106808,-164.699707,-79.23444366,-0.117238611,-0.11416934,9.70E-04,-0.002808571
8,1208123475,-164.555481,-79.28813934,-0.209839329,-0.081012875,-0.01562836,-0.028306007
9,1208140142,-164.4031982,-79.34656525,-0.313756377,-0.036050934,-0.030220013,-0.01725483
10,1208156809,-164.245636,-79.4050827,-0.432768673,0.027595371,-0.039572354,0.021632195
11,1208173476,-164.0903168,-79.46350861,-0.5641675,0.051719405,-0.001066324,0.017630577
12,1208190143,-163.9504089,-79.52037811,-0.6927858,0.038475595,0.032985818,-0.037849426
13,1208206810,-163.8264771,-79.57485199,-0.813163579,0.053027947,0.036334097,-0.058786392
14,1208223477,-163.703598,-79.6239624,-0.934534907,0.05284632,0.033309855,-5.15E-05
15,1208240144,-163.5874786,-79.66931915,-1.047408223,0.049584296,0.013714029,0.009512901
16,1208256811,-163.4884796,-79.71084595,-1.138388515,0.08617278,0.017954629,-0.031921387
17,1208273478,-163.4085388,-79.74504852,-1.202656865,0.201499,0.097824804,-0.055603027
18,1208290145,-163.3772583,-79.76750946,-1.201968789,0.24020043,0.121127985,-0.10539913
19,1208306812,-163.3865662,-79.77513123,-1.155127048,0.29479954,0.09402995,-0.0815382
20,1208323479,-163.4475555,-79.77037811,-1.071074247,0.22907846,0.04143215,-0.038228035
21,1208340146,-163.5564728,-79.75328064,-0.956537187,0.16294837,0.03578554,-0.05567074
22,1208356813,-163.695755,-79.7278595,-0.828534424,0.110740945,-0.034674123,-0.058221817
23,1208373480,-163.8422852,-79.69796753,-0.718312323,0.07938991,-0.054186974,-0.050359726
24,1208390147,-163.9966888,-79.6673584,-0.626929998,0.020320548,-0.0513611,-0.04406166
25,1208406814,-164.1570892,-79.63739777,-0.535048485,-0.03826834,-0.010656092,-0.048804283
26,1208423481,-164.2918549,-79.60903168,-0.4553262,-0.06219417,-0.03278488,0.028999329
27,1208440148,-164.3854065,-79.58683014,-0.400458425,-0.09110544,-0.054580078,0.05117035
28,1208456815,-164.4497833,-79.56957245,-0.372514367,-0.11639652,-0.10421571,0.0595026
29,1208473482,-164.4730225,-79.56031036,-0.381493181,-0.15345193,-0.06549578,0.006599426
30,1208490149,-164.4571533,-79.55857849,-0.408444524,-0.1668782,-0.003569502,-0.026565552
31,1208506816,-164.4106598,-79.55895233,-0.448070288,-0.09833138,-0.016923396,-0.014883041
32,1208523483,-164.3441315,-79.56163025,-0.518644631,-0.029171675,-0.09057292,0.035107613
33,1208540150,-164.2856293,-79.56900787,-0.610691607,0.01090387,-0.09933413,-0.029485703
34,1208556817,-164.2311401,-79.5753479,-0.717652738,0.060759705,-0.09003163,-0.09900665
35,1208573484,-164.1549377,-79.57200623,-0.854009151,0.09251856,-0.04541722,-0.061709404
36,1208590151,-164.0913391,-79.56264496,-0.978527248,0.123746775,0.077289216,-0.024151802
37,1208606818,-164.0598907,-79.54543304,-1.047722101,0.25110283,0.16390786,-0.017279625
38,1208623485,-164.0751953,-79.51275635,-1.042824388,0.30668828,0.18697116,-0.020292282
39,1208640152,-164.1470184,-79.46339417,-0.982839882,0.33412337,0.12744954,-0.047733307
40,1208656819,-164.2959595,-79.40344238,-0.865471244,0.23762423,0.059732273,-0.08305359
41,1208673486,-164.4918365,-79.33892059,-0.717959166,0.077329636,0.032923795,-0.09660816
42,1208690153,-164.6940002,-79.27165222,-0.548034668,-0.065078124,0.0789607,-0.03821373
43,1208706820,-164.8664398,-79.20761108,-0.366332352,-0.16869809,0.037892375,0.055994034
44,1208723487,-165.0202484,-79.15161896,-0.172276318,-0.24755217,-0.00159158,0.058015823
45,1208740154,-165.1660919,-79.11031342,0.016680509,-0.23639065,-0.08912138,0.019618988
46,1208756821,-165.2480164,-79.08088684,0.120648019,-0.23345883,-0.21887696,0.04643631
47,1208773488,-165.2752686,-79.06594849,0.145980239,-0.22838959,-0.18652156,0.05979824
48,1208790155,-165.2585907,-79.06589508,0.116397962,-0.23683338,-0.1093308,0.04457283
49,1208806822,-165.2023468,-79.07919312,0.064109758,-0.18911557,-0.032969445,-0.013941765
50,1208823489,-165.0902863,-79.10154724,-0.011433544,-0.14440805,9.75E-04,0.025647163
51,1208840156,-164.9436951,-79.1341095,-0.095838964,-0.10018994,-0.01384266,0.04497528
52,1208856823,-164.8091278,-79.17167664,-0.164580792,-0.050789315,-0.028279418,-0.006617546
53,1208873490,-164.6771393,-79.21340179,-0.255873144,-0.009762068,-0.1131964,-0.053020477
54,1208890157,-164.5302734,-79.2530899,-0.394184351,0.06752644,-0.06142723,-0.027555466
55,1208906824,-164.401413,-79.28606415,-0.551602662,0.060402818,-0.044707898,-0.004891396
56,1208923491,-164.2427368,-79.31188965,-0.77988416,0.049953554,-0.15055023,0.093027115
57,1208940158,-164.0192413,-79.32550049,-1.068002105,0.06044504,-0.14588232,0.13485909
58,1208956825,-163.7821198,-79.33781433,-1.345227957,-0.02259718,8.62E-04,0.021607399
59,1208973492,-163.5818787,-79.35870361,-1.525717378,-0.005986934,0.13124827,-0.14473152
60,1208990159,-163.4078064,-79.38053131,-1.627488613,0.00420942,0.15481491,-0.15577602
61,1209006826,-163.2266693,-79.40008545,-1.712343335,-0.019567393,0.015815776,-0.03623104
62,1209023493,-163.0636444,-79.42186737,-1.800983429,-0.028861243,-0.055701494,-0.001966476
63,1209040160,-162.9595642,-79.44776917,-1.876722574,-0.003249522,-0.060805134,-0.07216835
64,1209056827,-162.8506927,-79.47051239,-1.967948079,0.04362628,-0.016091648,-0.11654854
65,1209073494,-162.7352905,-79.4886322,-2.06131196,0.099279255,0.04601243,-0.037649155
66,1209090161,-162.6667023,-79.501297,-2.095671654,0.14171493,0.116319045,-0.01510334
67,1209106828,-162.6594391,-79.50827026,-2.049127579,0.18640418,0.10191319,-0.081088066
68,1209123495,-162.6694489,-79.50643921,-1.984033823,0.15351096,0.051098023,-0.08438969
69,1209140162,-162.7103119,-79.49517059,-1.903230071,0.1123781,0.007833403,-0.034939766
70,1209156829,-162.7697449,-79.47783661,-1.827664495,0.11268021,-0.011147932,0.005108833
71,1209173496,-162.8510284,-79.45600128,-1.756490469,0.11053855,-0.009878267,0.01011467
72,1209190163,-162.9392395,-79.43398285,-1.696080565,0.07303414,0.013050195,-0.024188995
73,1209206830,-163.0047913,-79.4108963,-1.656447411,0.032759693,-0.004073132,-0.001631737
74,1209223497,-163.0615997,-79.38763428,-1.605676055,-0.005602709,0.033412896,0.029442787
75,1209240164,-163.1221771,-79.36614227,-1.519787788,-0.022373982,0.035993855,0.003186226
76,1209256831,-163.1274719,-79.34885406,-1.45610249,-0.09371408,-0.04500372,-0.030873299
77,1209273498,-163.1228485,-79.33325958,-1.379506946,-0.07953207,0.02985971,-0.024409294
78,1209290165,-163.1133881,-79.32161713,-1.293698907,-0.06780266,-0.085992865,-0.033857346
79,1209306832,-163.0836945,-79.31655121,-1.252024889,-0.09963208,-0.15161331,-0.015024185
80,1209323499,-163.0460358,-79.31472778,-1.245906591,-0.10627255,-0.064042605,0.008419037
81,1209340166,-163.0214539,-79.31784058,-1.241360784,-0.082715064,-0.031542484,-0.01252842
82,1209356833,-163.0251312,-79.32341766,-1.219239473,-0.0441685,0.008362235,-0.08620262
83,1209373500,-163.0531616,-79.33162689,-1.177963138,-0.01172528,0.034646966,-0.06064415
84,1209390167,-163.0990448,-79.34037781,-1.115377426,-0.028619004,0.024793398,-0.013776779
85,1209406834,-163.1615753,-79.35164642,-1.044789076,-0.013210195,-0.019128574,0.01864338
86,1209423501,-163.2233429,-79.36546326,-0.989095271,0.00532762,-0.05180086,0.010955811
87,1209440168,-163.302475,-79.37979126,-0.922326863,0.00836623,-0.019833254,-0.043621063
88,1209456835,-163.3799896,-79.39099121,-0.850633562,-0.03411458,0.019916905,-0.022454262
89,1209473502,-163.4594574,-79.40420532,-0.7643525,-0.061974764,0.028212197,-0.036076546
90,1209490169,-163.5478973,-79.41996765,-0.658175528,-0.0815191,-0.017300406,-0.03667736
91,1209506836,-163.6047363,-79.43929291,-0.582101524,-0.06584487,-0.07590807,0.016168594
92,1209523503,-163.6343842,-79.46240234,-0.546682477,-0.063543424,-0.115372695,0.08823967
93,1209540170,-163.6504517,-79.48760223,-0.533873498,-0.012912273,-0.05856805,0.020251274
94,1209556837,-163.6633453,-79.5154953,-0.527994633,-0.022097679,0.012827241,-0.04950428
95,1209573504,-163.6637726,-79.54399109,-0.534647107,-0.059531286,-0.002062075,-0.041894913
96,1209590171,-163.6527252,-79.57241821,-0.537449121,-0.035421453,0.030481858,-0.036810875
97,1209606838,-163.670166,-79.60132599,-0.512898564,0.001426048,-0.017554037,-0.006088257
98,1209623505,-163.709671,-79.62936401,-0.491825759,0.011971046,-0.09394998,-0.020525932
99,1209640172,-163.7506561,-79.6556778,-0.494888306,0.087392144,-0.07043223,-0.030659676
100,1209656839,-163.7887726,-79.6784668,-0.511506498,0.11533104,0.013304106,-0.031294823
101,1209673506,-163.8475342,-79.69428253,-0.501295447,0.125767,0.077586435,0.006973267
102,1209690173,-163.941803,-79.70510864,-0.449693084,0.10449457,0.08691128,-0.036128998
103,1209706840,-164.0468597,-79.71311951,-0.378336489,0.09398701,0.05489674,-0.06359005
104,1209723507,-164.1494446,-79.71547699,-0.303578526,0.035538476,0.009019139,-0.008914948
105,1209740174,-164.2470856,-79.71517944,-0.234912544,0.026597356,-0.041581847,0.03494358
106,1209756841,-164.3556976,-79.71585083,-0.156632304,-0.007621973,-0.018075883,-0.01560688
107,1209773508,-164.4510651,-79.71691132,-0.086255915,-0.030940054,0.009245725,-0.035173416
108,1209790175,-164.5202484,-79.71691132,-0.024898665,-0.04066207,0.045890953,-0.012251854
109,1209806842,-164.5655518,-79.72119141,0.030856421,-0.071310386,0.00298373,0.03473568
110,1209823509,-164.6081696,-79.72840881,0.08477667,-0.054522794,-0.072169095,-0.009813309
111,1209840176,-164.6300659,-79.73680115,0.110222764,-0.031825047,-0.098036416,-0.034101486
112,1209856843,-164.6404724,-79.74588776,0.11959976,-0.019994888,-0.060280047,-0.011060715
113,1209873510,-164.6313629,-79.75552368,0.117627442,0.020983137,0.007585024,0.018418312
114,1209890177,-164.6320648,-79.7663269,0.127052903,0.031580348,0.02674014,-0.006766319
115,1209906844,-164.6613159,-79.77561188,0.159082159,0.03701441,0.004490654,-0.052368164
116,1209923511,-164.6978302,-79.78205872,0.188227683,0.042176194,0.016421217,-0.020915031
117,1209940178,-164.7337494,-79.78826141,0.197687715,0.014341869,0.016668255,0.02240181
118,1209956845,-164.7759247,-79.79489136,0.196410865,0.03013746,-0.002501836,-0.018117905
119,1209973512,-164.8421478,-79.7973175,0.207688108,0.04032502,-0.008209184,-0.022415161
120,1209990179,-164.9189453,-79.79706573,0.221993431,0.021412931,-7.65E-04,-0.045576096
121,1210006846,-164.9883881,-79.79708862,0.24056311,0.006702546,0.00354201,-0.027600288
122,1210023513,-165.0480499,-79.79457855,0.276052177,0.01626739,0.021084983,-0.009093285
123,1210040180,-165.1092529,-79.78966522,0.323627532,0.027456373,-0.01252019,0.002075195
124,1210056847,-165.1734619,-79.78327179,0.363811702,0.03837278,-0.03773793,-0.011792183
125,1210073514,-165.2433929,-79.77763367,0.402605116,0.043989807,-0.028635418,-0.0541687
126,1210090181,-165.3107147,-79.76802826,0.434634209,0.021236546,-0.03363356,-0.05089283
127,1210106848,-165.3827209,-79.75746918,0.469228923,-0.01912414,-0.003293743,-0.003404617
128,1210123515,-165.45961,-79.75032043,0.52771461,-0.036210615,0.016449157,0.00962162
129,1210140182,-165.5279388,-79.7456665,0.596584797,-0.05024736,-0.006476064,-0.023917198
130,1210156849,-165.5865784,-79.7401886,0.668061137,-0.035578094,0.011250748,-0.027101517
131,1210173516,-165.6395874,-79.7374115,0.73526907,-0.019267067,-0.024006354,-0.012009621
132,1210190183,-165.6991272,-79.73695374,0.801549971,-0.020727035,-0.0312318,-0.014505386
133,1210206850,-165.7526245,-79.73875427,0.854938388,-0.042285018,0.025443764,-0.01732254
134,1210223517,-165.8014679,-79.73999786,0.91889441,-0.022789605,0.058799107,0.00346756
135,1210240184,-165.8450623,-79.74318695,0.999131203,0.010233967,-0.03700721,0.002575874
136,1210256851,-165.8612518,-79.74794769,1.043990493,0.025989542,-0.07000867,0.007312775
137,1210273518,-165.8596344,-79.7531662,1.062420964,0.00227796,-0.06610552,-0.008403778
138,1210290185,-165.8347473,-79.75984955,1.053736925,-0.005065097,-0.04637061,-0.002092362
139,1210306852,-165.7955627,-79.76488495,1.030372977,-0.010864071,-0.016252242,0.002496719
140,1210323519,-165.7593994,-79.7710495,1.011014104,0.002689909,-0.001075544,-0.020954132
141,1210340186,-165.7250671,-79.77724457,0.987647474,-0.013491682,0.001306992,-0.026721
142,1210356853,-165.6970215,-79.78423309,0.968497038,-0.009792836,0.009832391,-0.048205376
143,1210373520,-165.6640472,-79.78951263,0.947303712,-0.011730813,0.024783954,-0.028813362
144,1210390187,-165.6401672,-79.79671478,0.932006538,-0.015865333,-0.02245724,0.00265789
145,1210406854,-165.6158295,-79.80500793,0.907061696,-0.013310127,-0.0441114,-0.003128052
146,1210423521,-165.5865936,-79.81182861,0.865892649,0.006547819,-0.022113645,-0.024617195
147,1210440188,-165.5493011,-79.81797028,0.81439966,0.01353825,0.011744823,-0.005879402
148,1210456855,-165.5209656,-79.82390594,0.774316251,0.004532228,0.010887261,0.006977081
149,1210473522,-165.5031128,-79.82954407,0.750533521,0.035248984,0.024133196,-0.004555702
150,1210490189,-165.4951019,-79.8314209,0.739906847,0.06500204,0.012374348,-0.037807465
151,1210506856,-165.4971313,-79.83254242,0.738186717,0.038417086,0.023920637,-0.056043625
152,1210523523,-165.4980927,-79.83207703,0.737772644,0.02651048,0.007766796,-0.026846886
153,1210540190,-165.5078583,-79.83037567,0.749298096,-0.02544797,0.019023076,-8.59E-04
154,1210556857,-165.5225372,-79.82935333,0.765598357,-0.031357616,0.008315576,0.00633049
155,1210573524,-165.5329132,-79.83047485,0.771963,-0.01450071,-0.029960347,0.001639366
156,1210590191,-165.5375519,-79.83274078,0.765587986,-0.008595044,-0.047321156,-0.016083717
157,1210606858,-165.5471497,-79.83525085,0.757945895,-0.001285668,-0.027604297,-0.0395813
158,1210623525,-165.5512543,-79.83975983,0.744198501,-0.025861315,0.011126083,-0.019424438
159,1210640192,-165.5520782,-79.84551239,0.739241958,-0.013519873,0.029339764,0.005188942
160,1210656859,-165.5475616,-79.85284424,0.739373803,-0.03185576,0.001694116,-0.002479553
161,1210673526,-165.5415192,-79.86128998,0.74086982,0.004307947,-0.027113685,-0.001434326
162,1210690193,-165.5332489,-79.87049103,0.729667485,0.022164432,-0.03941489,-0.02514267
163,1210706860,-165.5299072,-79.878479,0.709274828,0.024831368,-0.019224294,-0.03595352
164,1210723527,-165.5208282,-79.88705444,0.678747714,0.009500446,-4.56E-04,-0.026791573
165,1210740194,-165.4989624,-79.89581299,0.639627934,-0.008881629,-0.001261116,0.004911423
166,1210756861,-165.4868164,-79.90222931,0.618549705,0.003358324,0.03749251,-0.020634651
167,1210773528,-165.4871979,-79.90725708,0.620950401,0.038115554,0.019609965,-0.021966934
168,1210790195,-165.4857941,-79.91088867,0.625978947,0.0382896,-0.002108789,-0.027135849
169,1210806862,-165.4806519,-79.91145325,0.628869414,0.06267042,0.00143825,-0.014310837
170,1210823529,-165.4872894,-79.91022491,0.639319897,0.046915133,0.009607257,-0.014456749
171,1210840196,-165.4983978,-79.90691376,0.652259231,0.03356886,-0.017635116,-0.026640892
172,1210856863,-165.5062714,-79.90305328,0.655424118,0.031186895,-0.026180407,-0.016076088
173,1210873530,-165.5210876,-79.89981842,0.66164279,0.002971025,-0.026160572,-0.014316559
174,1210890197,-165.5242157,-79.89742279,0.660459757,-0.024219383,-1.21E-04,-0.005168915
175,1210906864,-165.5296478,-79.8977356,0.668425322,-0.03368387,-0.003990209,0.018655777
176,1210923531,-165.5117645,-79.90059662,0.66181916,-0.007969787,0.011942856,-0.03196335
177,1210940198,-165.4855194,-79.90087128,0.653065264,-0.004844434,-0.007061724,-0.011200905
178,1210956865,-165.4645386,-79.90252686,0.641743541,0.014132137,-0.022071848,-0.003937721
179,1210973532,-165.4520721,-79.90527344,0.629630685,-4.39E-04,-0.005163764,-0.016911507
180,1210990199,-165.4412842,-79.90911865,0.617008448,-0.014464012,1.02E-04,-0.034366608
181,1211006866,-165.4169769,-79.9095993,0.592405617,0.005013514,0.009165429,-0.0347929
182,1211023533,-165.4039154,-79.91043854,0.578219712,0.015972724,0.007470027,0.013569832
183,1211040200,-165.3966522,-79.91191864,0.564203858,-0.012688028,-0.017979158,-0.002716065
184,1211056867,-165.3889465,-79.91601563,0.548579693,0.007806853,0.010521146,-0.014074326
185,1211073534,-165.3810425,-79.91747284,0.544449151,-0.005930889,0.015551026,-0.034348488
186,1211090201,-165.3755035,-79.91799927,0.545944929,-0.013880573,-0.008181077,-0.02098751
187,1211106868,-165.363678,-79.91950226,0.537854552,0.008466196,-0.013235599,-0.01129055
188,1211123535,-165.3541107,-79.92206573,0.526892424,0.015644636,-0.011526004,-0.011575699
189,1211140202,-165.3549194,-79.92243195,0.517791271,0.031841703,0.009170233,-0.030607224
190,1211156869,-165.3786316,-79.92282104,0.528268814,0.009682749,0.030042544,-0.04609871
191,1211173536,-165.4055786,-79.92186737,0.541695237,0.01126682,0.028503545,-0.039933205
192,1211190203,-165.4273682,-79.92177582,0.546979249,-0.015278808,-0.011549138,-0.033751488
193,1211206870,-165.4401703,-79.92208099,0.542792737,4.38E-04,-0.045374583,-0.022511482
194,1211223537,-165.4398956,-79.92150116,0.526264131,0.048889283,0.001921485,0.017648697
195,1211240204,-165.4613342,-79.92073059,0.532712162,0.028059376,0.005386886,-0.042103767
196,1211256871,-165.4918518,-79.9198761,0.554942727,0.012188064,0.001014861,-0.06462002
197,1211273538,-165.4978333,-79.91824341,0.563261449,-0.00490013,0.012576571,0.014610291
198,1211290205,-165.5020447,-79.91754913,0.576085508,-0.04125869,-0.012446933,0.019434929
199,1211306872,-165.5035248,-79.91700745,0.590147555,-0.01226753,-0.012535444,0.001653671
200,1211323539,-165.5060883,-79.91897583,0.605548799,-0.003245324,-0.002613481,-0.04140091
201,1211340206,-165.4928436,-79.92005157,0.606885791,0.012025479,-0.0027553,-0.01692295
202,1211356873,-165.486557,-79.92178345,0.618998706,0.004013678,0.006852851,-0.003410339
203,1211373540,-165.4897156,-79.92384338,0.640919745,-4.19E-04,-0.005121129,-0.012058258
204,1211390207,-165.4858246,-79.92612457,0.656912684,-0.012859588,-0.002787654,-0.008347511
205,1211406874,-165.4784546,-79.92760468,0.669595361,0.010152629,-0.00829451,-0.019843102
206,1211423541,-165.4799957,-79.92687988,0.68323952,0.035156205,-0.020370133,-0.003540039
207,1211440208,-165.480835,-79.92384338,0.690850496,0.03844034,-0.00376787,-0.021363258
208,1211456875,-165.4851837,-79.9197998,0.706213653,0.051884916,0.03880157,-0.03952217
209,1211473542,-165.5037384,-79.91492462,0.741013765,0.030344399,0.021421313,-0.024474144
210,1211490209,-165.5314484,-79.90784454,0.780663967,0.03295278,-0.005592462,-0.021979332
211,1211506876,-165.5587311,-79.90032196,0.805698991,0.039525732,-0.035749722,-0.021212578
212,1211523543,-165.5908051,-79.89339447,0.81906122,-0.006822775,-0.047557186,0.006272316
213,1211540210,-165.6352386,-79.88646698,0.838016212,-0.008910197,0.027199961,-0.011949539
214,1211556877,-165.6902008,-79.88032532,0.873335719,-0.019504774,0.035209883,-0.037675858
215,1211573544,-165.736908,-79.87639618,0.90660274,-0.046145044,0.006366264,-0.037875175
216,1211590211,-165.773468,-79.87403107,0.932915568,-0.03572893,-0.028150339,-0.009123802
217,1211606878,-165.8039093,-79.87428284,0.94621259,-0.027076576,-0.078424215,0.035229683
218,1211623545,-165.8303375,-79.87535095,0.94954294,7.41E-04,-0.03879492,0.010207176
219,1211640212,-165.8490448,-79.87962341,0.942978799,-0.015355745,-0.013186705,-0.0413723
220,1211656879,-165.8683319,-79.8832016,0.950409114,-0.009329291,0.016855503,-0.043504715
221,1211673546,-165.8692017,-79.88594055,0.950362265,0.006547072,0.007392691,0.002118111
222,1211690213,-165.8555298,-79.88963318,0.936370611,0.008187698,-0.028171126,0.038352013
223,1211706880,-165.8369751,-79.89393616,0.914472401,0.057273105,-0.043862294,-0.00616169
224,1211723547,-165.8171234,-79.89545441,0.896672368,0.07806951,0.001163162,-0.05882263
225,1211740214,-165.7967072,-79.89358521,0.886028469,0.0640191,0.03629744,-0.051826477
226,1211756881,-165.8002167,-79.88887787,0.898529649,0.04077829,0.02307682,-0.018907547
227,1211773548,-165.8182068,-79.88323975,0.915061176,0.007525157,-0.016830023,-0.02410984
228,1211790215,-165.8370819,-79.87557983,0.915872335,2.96E-04,-0.032671392,-0.014915466
229,1211806882,-165.8490753,-79.86812592,0.901416123,0.006128551,-0.008375868,-0.01490593
230,1211823549,-165.8478851,-79.86191559,0.869860291,0.01490807,-0.021927403,-0.007529259
231,1211840216,-165.8648071,-79.85626984,0.86391902,0.016402261,0.026566694,-0.024995804
232,1211856883,-165.8785706,-79.84931183,0.869137704,0.012750562,0.00674808,-0.034114838
233,1211873550,-165.892868,-79.8420105,0.885410607,0.010583052,-0.001135334,0.00421238
234,1211890217,-165.8997192,-79.83631897,0.890647411,-0.032471195,-0.02744376,0.026069641
235,1211906884,-165.9145203,-79.83188629,0.897001088,-0.014340857,-0.024344472,-0.020329475
236,1211923551,-165.9235687,-79.82772827,0.892353952,-0.031760547,-0.03215396,-0.022833824
237,1211940218,-165.9347382,-79.82566071,0.885600924,-0.009579822,0.001312412,-0.020154953
238,1211956885,-165.9447479,-79.82434845,0.882182777,-0.014044548,0.03655085,-0.021219254
239,1211973552,-165.9563446,-79.8230896,0.895685196,-0.014995868,0.04634396,-0.015723228
240,1211990219,-165.9620972,-79.82320404,0.925297916,0.018763263,0.054488212,-0.026621819
241,1212006886,-165.9756317,-79.82273865,0.966462255,0.008588793,0.004048155,-0.020799637
242,1212023553,-165.9904938,-79.82273865,1.003138423,0.015408048,-0.03276778,-0.006363869
243,1212040220,-166.0057678,-79.8248291,1.036970377,-0.016703807,-0.044141404,-0.033753395
244,1212056887,-166.0013123,-79.82873535,1.050812602,-0.035883907,-0.054731395,-0.024546623
245,1212073554,-165.9842834,-79.83399963,1.060037851,-0.045082904,-0.035339355,0.007805824
246,1212090221,-165.9446716,-79.84030151,1.057579041,-0.028637059,-0.034509674,0.024402618
247,1212106888,-165.8916931,-79.84959412,1.043304205,-0.008149981,-0.007644031,-0.001782417
248,1212123555,-165.8338013,-79.8609848,1.021707058,3.95E-04,-0.0333074,-0.05095482
249,1212140222,-165.7750397,-79.86812592,0.984407961,0.03641474,-0.04184185,-0.036382675
250,1212156889,-165.7205963,-79.87530518,0.929425776,0.039770637,-0.019107563,-0.017256737
251,1212173556,-165.6746368,-79.87918091,0.868207097,0.051929854,0.021115381,-0.008669853
252,1212190223,-165.6478882,-79.87766266,0.821032822,0.08807807,0.04364392,-0.019236565
253,1212206890,-165.6515503,-79.87332916,0.800257981,0.08403835,0.060220927,-0.07392883
254,1212223557,-165.6743927,-79.86270905,0.795747221,0.07521597,0.06454937,-0.05423069
255,1212240224,-165.714859,-79.8483429,0.811740935,0.046767473,0.03468798,-0.011313438
256,1212256891,-165.7633972,-79.83274078,0.837863505,0.05403605,0.04446388,0.006010056
257,1212273558,-165.8414001,-79.81674957,0.890798569,0.033200096,0.012698889,-0.014844894
258,1212290225,-165.9199982,-79.79776001,0.941059947,-0.008451018,-0.006580724,-0.039121628
259,1212306892,-165.9900818,-79.78017426,0.991362929,3.96E-04,0.021746973,-0.018063545
260,1212323559,-166.0570831,-79.76326752,1.050095797,-0.050337885,0.018616337,-0.002504349
261,1212340226,-166.1087036,-79.74929047,1.10151577,-0.058298297,-0.02193925,-0.013766289
262,1212356893,-166.1511383,-79.73947144,1.150071025,-0.05361617,-0.011895583,-0.014044762
263,1212373560,-166.191803,-79.73136139,1.194505334,-0.0481046,-0.006915659,-2.29E-04
264,1212390227,-166.2236328,-79.72620392,1.235542059,-0.040223874,-0.004916391,-0.002112389
265,1212406894,-166.2518463,-79.72238159,1.272259951,-0.013870271,-0.015803372,-0.017119408
266,1212423561,-166.2822876,-79.71916199,1.308759689,-0.004774306,-0.01381528,-0.023083687
267,1212440228,-166.3170624,-79.71720886,1.3471663,-0.001443335,-0.024262443,-0.011171341
268,1212456895,-166.3499908,-79.71483612,1.382992148,0.007972505,-0.017831417,-0.010756493
269,1212473562,-166.3766327,-79.71273804,1.410009027,-0.00293455,-0.019838786,-0.021680832
270,1212490229,-166.4078369,-79.7108078,1.43860352,-0.016180389,0.004296534,-0.022726059
271,1212506896,-166.4405365,-79.71182251,1.470507741,-0.01336122,-0.017077954,0.002142906
272,1212523563,-166.4653168,-79.71385956,1.494939685,-0.025689747,-0.02102022,-7.81E-04
273,1212540230,-166.4900055,-79.71645355,1.515671253,-0.015378376,-0.02790604,-0.025709152
274,1212556897,-166.506073,-79.72000885,1.526622534,-0.033059627,-0.037356,-0.011611939
275,1212573564,-166.5034485,-79.72538757,1.521247506,-0.019198772,-0.021535026,-0.002655029
276,1212590231,-166.5097351,-79.73065186,1.525379181,-0.019842809,-0.009796405,-0.001243591
277,1212606898,-166.5140228,-79.73620605,1.528645635,-0.004949122,-0.0254997,-0.020853043
278,1212623565,-166.5109863,-79.74276733,1.522239089,-5.36E-04,-0.003082747,-0.003885269
279,1212640232,-166.5034485,-79.74868774,1.512903214,7.15E-04,0.002579451,-0.019205093
280,1212656899,-166.4975281,-79.75331879,1.508846283,0.011275963,-8.94E-05,-0.011004448
281,1212673566,-166.4938965,-79.75967407,1.508976221,0.028871777,-0.024681864,-0.017261505
282,1212690233,-166.4890289,-79.76417542,1.503782749,0.02844057,-0.036105894,-0.01569748
283,1212706900,-166.4790497,-79.76802826,1.484058857,-0.011932833,-0.023086151,-0.012371063
284,1212723567,-166.4674835,-79.77272034,1.460357785,-0.015792014,-0.024669908,-0.01731968
285,1212740234,-166.4545593,-79.77853394,1.441561699,-0.030461023,0.015430273,-0.018336296
286,1212756901,-166.4327087,-79.78483582,1.424545169,0.007655277,0.012812098,-0.001992226
287,1212773568,-166.4117889,-79.7897644,1.408512712,0.010982687,-0.016077567,-0.017256737
288,1212790235,-166.3940582,-79.79390717,1.390736938,0.064420275,-0.027630169,-0.014774323
289,1212806902,-166.3773651,-79.79658508,1.368447304,0.037528887,-0.007311891,-0.03330326
290,1212823569,-166.3744659,-79.79785919,1.359097123,0.010927213,0.015349976,-0.03631401
291,1212840236,-166.3648987,-79.79760742,1.352628231,0.007031571,0.03210607,-0.005598068
292,1212856903,-166.3592529,-79.79980469,1.352625132,-0.02133649,0.004897784,0.015213966
293,1212873570,-166.3533325,-79.80237579,1.351911306,-0.016399775,-0.014226767,-0.009678841
294,1212890237,-166.3506317,-79.80506897,1.348050356,0.00734261,0.005404823,-0.03174591
295,1212906904,-166.3378601,-79.80599213,1.338721633,0.02672923,0.009666544,-0.023357391
296,1212923571,-166.3316956,-79.80804443,1.333709598,0.020457666,-0.012181456,-0.020858765
297,1212940238,-166.3309479,-79.80950928,1.328360081,0.003368641,-0.018068843,-0.03788376
298,1212956905,-166.332489,-79.81084442,1.322194695,-0.01104214,-0.024417896,-0.028583527
299,1212973572,-166.3179016,-79.81223297,1.30039525,4.39E-04,0.004613028,-0.001049042
300,1212990239,-166.2990417,-79.81458282,1.2746346,-0.005839199,0.013032314,0.018803596
301,1213006906,-166.2783966,-79.8197403,1.249243975,-0.011921189,-0.004806479,-0.002922058
302,1213023573,-166.2524567,-79.82508087,1.220293045,0.002626131,0.002474903,-0.024964333
303,1213040240,-166.2261963,-79.8296051,1.194390178,0.006517428,-0.001732561,-0.024518013
304,1213056907,-166.2072601,-79.8327179,1.178527474,0.018501397,0.003849005,-0.01403141
305,1213073574,-166.1931915,-79.8365097,1.168759584,0.020320456,0.007545965,-0.007408142
306,1213090241,-166.1815033,-79.8373642,1.158942223,0.020033844,-0.001094264,-0.009962082
307,1213106908,-166.1748047,-79.83740234,1.152130485,0.021470739,-0.003953162,-0.004421234
308,1213123575,-166.1739197,-79.83732605,1.150343418,0.018523993,0.010473873,-0.0300951
309,1213140242,-166.168045,-79.83774567,1.145965576,0.012463592,0.029295955,-0.029065132
310,1213156909,-166.1698914,-79.8390274,1.152658224,-0.026185626,0.02985429,-0.022315979
311,1213173576,-166.1732788,-79.84191132,1.159741044,-0.020763481,0.003118062,-0.024770737
312,1213190243,-166.1709442,-79.84487915,1.158962727,-0.02293891,-0.045693256,0.006637573
313,1213206910,-166.1684265,-79.85002899,1.153642535,-0.005493774,-0.054522187,-0.004085541
314,1213223577,-166.1608276,-79.85623169,1.140741825,-0.010284984,-0.020330347,-0.029595375
315,1213240244,-166.1523285,-79.86416626,1.132640004,-0.035171404,0.003718194,-0.032424927
316,1213256911,-166.1436157,-79.87567902,1.1329211,-0.038816217,0.006235397,-0.024055481
317,1213273578,-166.1141052,-79.88827515,1.118853331,-0.030035056,-0.006527025,0.002396584
318,1213290245,-166.0823059,-79.9017868,1.100448132,-0.03361282,-0.007026968,-9.31E-04
319,1213306912,-166.0505981,-79.91734314,1.077869058,-0.011316747,-0.02353016,-0.01846695
320,1213323579,-166.0119019,-79.93352509,1.048889756,-0.004044935,-0.005619954,-0.01154232
321,1213340246,-165.9756012,-79.94787598,1.028949261,0.015868226,0.02650439,-0.023693085
322,1213356913,-165.9412994,-79.96082306,1.017558336,0.025581485,0.012080093,-0.021630287
323,1213373580,-165.9141235,-79.97267914,1.011781573,0.029894935,0.006146886,-0.012979507
324,1213390247,-165.8818207,-79.98356628,0.998895347,0.028867334,0.007971366,-0.015084267
325,1213406914,-165.8636932,-79.99228668,0.994440138,0.02191404,-0.001791568,-0.042380333
326,1213423581,-165.8520813,-79.99608612,0.988509893,0.05959322,0.003409355,-0.030264854
327,1213440248,-165.8505249,-79.99740601,0.9813568,0.06546671,-0.032293934,-0.05471611
328,1213456915,-165.8509521,-79.99608612,0.964870512,0.056456175,-0.013163907,-0.021834373
329,1213473582,-165.842514,-79.99375916,0.937251568,0.047650665,0.005075476,0.005055428
330,1213490249,-165.8453369,-79.99337006,0.92363143,-0.015548308,-0.026223434,-0.024454117
331,1213506916,-165.8301849,-79.99295807,0.898075759,-0.022606876,-0.031279854,-0.024184227
332,1213523583,-165.7952423,-79.99219513,0.860284328,-0.032142602,-0.001173722,-0.005167007
333,1213540250,-165.75177,-79.99372101,0.820419669,-0.016616967,0.006571337,0.012863159
334,1213556917,-165.7107544,-79.9960022,0.778637171,0.004325032,0.018837057,-0.006233215
335,1213573584,-165.675293,-79.99620056,0.738348663,0.021076672,0.014135351,-0.04082012
336,1213590251,-165.6476593,-79.99588776,0.699245453,-0.011256692,-0.022581123,-0.026943207
337,1213606918,-165.6215973,-79.99628448,0.655609071,-0.02360011,-0.017320186,-0.015586853
338,1213623585,-165.58815,-79.99794769,0.614053547,-0.028811678,-5.63E-04,-0.019350052
339,1213640252,-165.5435028,-80.00228119,0.576809227,-0.010534948,0.030060817,-0.025419235
340,1213656919,-165.5014801,-80.00510406,0.556223929,0.04599161,0.029761309,0.007777214
341,1213673586,-165.4812164,-80.00611115,0.554266989,0.026822211,0.027532717,-0.0323143
342,1213690253,-165.4754791,-80.00569916,0.558078468,0.023604441,0.019412994,-0.03013897
343,1213706920,-165.4508209,-80.00491333,0.542702734,0.0478354,-0.028676769,0.00894928
344,1213723587,-165.4268799,-80.00019073,0.523019969,0.023210535,0.025736175,-0.00958252
345,1213740254,-165.4182281,-79.9969635,0.517701387,0.028898919,-0.001753292,-0.013895035
346,1213756921,-165.4159393,-79.99443054,0.518921256,0.0315406,0.018524697,-0.012168884
347,1213773588,-165.417038,-79.99053955,0.523512065,0.023830784,0.019400477,-0.0208292
348,1213790255,-165.4257965,-79.98407745,0.538620532,-0.005613025,0.015032643,-0.015812874
349,1213806922,-165.4520111,-79.97714996,0.570911407,-0.045752104,0.007767466,-0.014279366
350,1213823589,-165.4725647,-79.97357941,0.593881607,-0.023084858,-0.01640166,-0.024137497
351,1213840256,-165.4782715,-79.9713974,0.599041343,-0.007215208,-0.031572714,-0.03167534
352,1213856923,-165.488205,-79.96816254,0.598695517,-0.003111901,-0.05504297,-0.010183334
353,1213873590,-165.4986267,-79.96656036,0.59153074,-0.020592283,-0.028581329,-0.02717495
354,1213890257,-165.4950867,-79.96518707,0.57131511,-0.002917675,-0.009667662,-0.013196945
355,1213906924,-165.4751282,-79.96606445,0.540535271,-0.045991037,-0.049038295,0.03627014
356,1213923591,-165.4467163,-79.97074127,0.50228256,-0.03466978,-0.060630683,0.002668381
357,1213940258,-165.4072876,-79.97301483,0.452368289,0.020685676,-0.04860485,-0.035678864
358,1213956925,-165.3464508,-79.97522736,0.381049186,0.059396856,-0.011938777,-0.031905174
359,1213973592,-165.3038788,-79.97679901,0.325626761,0.03162172,0.028694816,-0.042562485
360,1213990259,-165.2684174,-79.98126984,0.286500454,-0.07091735,-0.025714215,-0.05184269
361,1214006926,-165.2127228,-79.98977661,0.240472078,-0.10394533,-0.05035255,0.004404068
362,1214023593,-165.127121,-80.00380707,0.168901771,-0.12722877,-0.032051086,0.060433388
363,1214040260,-165.0075531,-80.02279663,0.069841444,-0.08685393,-0.025345363,0.028486252
364,1214056927,-164.8721313,-80.04386902,-0.063809961,-0.003034202,-0.041187793,-0.041246414
365,1214073594,-164.7661133,-80.06304932,-0.204757527,0.032405794,-0.026749695,-0.044751167
366,1214090261,-164.6712799,-80.07659149,-0.35144946,0.1394782,0.031517617,-0.048106194
367,1214106928,-164.6056824,-80.08493805,-0.466819048,0.15962388,0.12311882,-0.04459095
368,1214123595,-164.577713,-80.08664703,-0.527806401,0.13874741,0.1430436,-0.0335474
369,1214140262,-164.601532,-80.08190918,-0.502611935,0.17539757,0.15983278,-0.053768158
370,1214156929,-164.6533661,-80.06748199,-0.419146687,0.128826,0.11514113,-0.054722786
371,1214173596,-164.7349091,-80.04807281,-0.309473693,0.08731016,0.026970414,-0.022079468
372,1214190263,-164.8314209,-80.02628326,-0.204213277,0.10732392,-0.025603354,0.002840996
373,1214206930,-164.9575195,-80.00326538,-0.102343924,0.015993057,-0.036656126,-0.019472122
374,1214223597,-165.0746155,-79.98099518,-0.033424508,-0.056487717,-0.051638532,-0.00849247
375,1214240264,-165.1681366,-79.966362,0.001778819,-0.12345442,-0.07332689,0.040308
376,1214256931,-165.2423248,-79.96035004,0.020118561,-0.14531139,-0.04334017,0.032844543
377,1214273598,-165.298233,-79.96056366,0.038607258,-0.15222196,-0.003698581,0.005060196
378,1214290265,-165.3274994,-79.96691132,0.059993207,-0.11845108,0.030672235,0.005469322
379,1214306932,-165.3242798,-79.98129272,0.074737161,-0.071198516,0.005262165,-0.007356644
380,1214323599,-165.3293152,-79.99765778,0.105761647,-0.04527978,0.006579663,-0.02012539
381,1214340266,-165.3180542,-80.01612854,0.1261511,-0.032623224,0.006538704,-0.029763222
382,1214356933,-165.3134308,-80.0353775,0.151046649,0.0146795,0.014974977,-0.011833191
383,1214373600,-165.3158722,-80.05224609,0.180440322,0.07237615,-0.002082805,-0.005106926
384,1214390267,-165.3304901,-80.06601715,0.204914227,0.069284566,-0.04189493,-0.033207893
385,1214406934,-165.3607025,-80.07758331,0.224265397,0.09457013,-0.04882389,-0.04365349
386,1214423601,-165.3843384,-80.08634949,0.234608948,0.008770753,9.00E-04,-0.023742676
387,1214440268,-165.3995514,-80.09249878,0.255742073,0.03715354,0.034887522,-0.004673958
388,1214456935,-165.4137573,-80.0956955,0.292577416,0.058158282,0.008837647,-0.02032566
389,1214473602,-165.4233246,-80.09783936,0.320609897,0.04358828,-0.05028701,-0.013161659
390,1214490269,-165.4347382,-80.09791565,0.339068919,0.03365775,-0.00977763,-0.019542694
391,1214506936,-165.4329681,-80.10016632,0.343117774,0.014347534,-0.003996132,0.002623558
392,1214523603,-165.4288788,-80.10157013,0.34153229,0.008726994,-0.03570938,-0.013425827
393,1214540270,-165.4342499,-80.10153961,0.345490605,0.021409517,0.014588243,-0.03157425
394,1214556937,-165.4411621,-80.09964752,0.352446079,0.035092294,0.004629904,-0.028233528
395,1214573604,-165.4499359,-80.09442902,0.355624408,0.07025117,0.013350876,-0.0176754
396,1214590271,-165.477417,-80.08759308,0.366442919,0.043502968,0.017687809,-0.025216103
397,1214606938,-165.5193024,-80.07933044,0.380848289,0.008383105,-0.004391303,-0.018113136
398,1214623605,-165.5608521,-80.07144165,0.387706131,-0.003930238,-0.007692478,-0.003840447
399,1214640272,-165.6040802,-80.06350708,0.396926612,-0.016972946,-0.00658838,0.003263474
400,1214656939,-165.6342926,-80.05713654,0.400521576,9.93E-04,-0.006661245,-0.013995171
401,1214673606,-165.6577911,-80.05167389,0.407497734,-0.019981883,3.24E-04,-0.01631546
402,1214690273,-165.6758881,-80.04815674,0.417168975,-0.047926318,0.05093754,-0.015095711
403,1214706940,-165.6621094,-80.04522705,0.410591662,-0.016248351,-0.011083169,-0.011713028
404,1214723607,-165.6543579,-80.0437088,0.398389041,-0.005555121,-0.056256816,-0.010725975
405,1214740274,-165.6489716,-80.04043579,0.378683388,0.008322582,-0.012104177,-0.032769203
406,1214756941,-165.6466675,-80.03843689,0.359401315,0.011390332,0.006480982,0.009315491
407,1214773608,-165.6239929,-80.04025269,0.335498482,0.011360101,0.004762111,-3.39E-04
408,1214790275,-165.6135406,-80.03689575,0.348364443,0.052102733,0.07976149,-0.051612854
409,1214806942,-165.6307983,-80.03013611,0.399107486,0.006626279,0.06319823,-0.021743774
410,1214823609,-165.6286163,-80.02768707,0.425590545,-0.00105385,-0.066248454,-0.009932518
411,1214840276,-165.6175537,-80.02858734,0.425831378,-0.04451451,-0.051499117,0.008778572
412,1214856943,-165.5978546,-80.03149414,0.393115103,-0.070159666,-0.05516378,0.02604103
413,1214873610,-165.5739594,-80.03742981,0.34799695,-0.05235499,-0.04597008,-0.010527611
414,1214890277,-165.5380402,-80.04807281,0.302018046,-0.042198177,0.013389879,-0.033637047
415,1214906944,-165.4844055,-80.05944824,0.252660006,-0.031547695,0.033636913,-0.034080505
416,1214923611,-165.4320679,-80.07314301,0.216742232,-0.047957387,0.007615478,-0.02168274
417,1214940278,-165.3670959,-80.09194183,0.182039574,-0.053125188,-0.03428074,0.023200989
418,1214956945,-165.2838898,-80.11209106,0.130578861,-0.032323744,-0.023852073,0.008422852
419,1214973612,-165.2006683,-80.12957001,0.081282094,0.012037779,-0.00731787,-0.004626274
420,1214990279,-165.1224365,-80.14802551,0.040377412,0.036077373,0.044933256,-0.04751396
421,1215006946,-165.0391846,-80.16269684,0.003587932,0.05237641,0.03617859,-0.05237961
422,1215023613,-164.9658356,-80.17418671,-0.027581064,0.072132654,-0.024062455,-0.021974564
423,1215040280,-164.906311,-80.18228149,-0.067309536,0.07723456,-0.032621436,-0.04228306
424,1215056947,-164.8642731,-80.18802643,-0.106826872,0.09489238,1.36E-04,-0.031181335
425,1215073614,-164.8295898,-80.19063568,-0.150347471,0.07657722,0.021186234,-0.04500389
426,1215090281,-164.8194885,-80.18855286,-0.172963217,0.08170993,0.028489297,-0.06063652
427,1215106948,-164.821106,-80.18193817,-0.187368661,0.054724578,0.029666819,-0.009444237
428,1215123615,-164.8442383,-80.17519379,-0.184686035,0.050142847,0.007945607,-0.01190567
429,1215140282,-164.9032135,-80.1648941,-0.164701656,0.051150206,-0.011427044,-0.05251026
430,1215156949,-164.9477539,-80.15525818,-0.171030208,0.06382647,-0.046106588,-0.04571247
431,1215173616,-164.975235,-80.14561462,-0.187322408,-0.008793356,0.04041628,4.13E-04
432,1215190283,-165.0205536,-80.14096832,-0.178483546,-0.10324898,0.03882677,0.057429314
433,1215206950,-165.0650787,-80.14202881,-0.149559304,-0.05930936,0.026024899,-5.19E-04
434,1215223617,-165.0940247,-80.14775085,-0.117596611,-0.13232858,0.024304353,-0.055638313
435,1215240284,-165.086731,-80.15425873,-0.108805694,-0.08796255,-0.00994655,7.06E-04
436,1215256951,-165.0647736,-80.16710663,-0.127774149,-0.0836673,-0.076789945,0.062113762
437,1215273618,-165.0440063,-80.18782806,-0.162149414,-0.090762965,-0.078279436,-0.027915955
438,1215290285,-164.9952545,-80.21083832,-0.228457525,-0.05446618,-0.045193147,-0.06421852
439,1215306952,-164.9217834,-80.23455048,-0.311723381,-0.02185036,0.011203587,9.54E-06
440,1215323619,-164.8648376,-80.26023865,-0.354640275,0.028337546,0.08148327,0.008548737
441,1215340286,-164.8191528,-80.28356171,-0.367634773,0.0838229,0.057122704,-0.042160988
442,1215356953,-164.7862396,-80.30495453,-0.361549944,0.10906573,0.02075776,-0.033244133
443,1215373620,-164.7605896,-80.31724548,-0.360200047,0.13556312,-0.020087669,-0.024364471
444,1215390287,-164.7450867,-80.32358551,-0.372527629,0.12469119,-0.03190994,0.007599831
445,1215406954,-164.7388611,-80.32500458,-0.388986111,0.09877576,0.011431291,-0.023571014
446,1215423621,-164.7532501,-80.3219223,-0.387107551,0.06842197,0.054464128,-0.057113647
447,1215440288,-164.7855072,-80.3156662,-0.360214412,0.032335214,0.055766426,-0.029907227
448,1215456955,-164.8298187,-80.30939484,-0.314247012,0.025286984,0.026652634,-0.031492233
449,1215473622,-164.8893738,-80.30302429,-0.253961354,0.005909927,0.003875994,-0.03722191
450,1215490289,-164.9280701,-80.29734802,-0.221118525,0.006669703,-0.066882506,-0.024095535
451,1215506956,-164.9499969,-80.29252625,-0.216447383,-0.01452135,-0.06913384,0.002282143
452,1215523623,-164.9512177,-80.29062653,-0.228668466,0.001834161,-0.00595405,0.017850876
453,1215540290,-164.958786,-80.29167175,-0.218672633,-0.008949271,0.050970566,-0.031249046
454,1215556957,-164.9640503,-80.28964996,-0.191879943,0.010937949,0.04918883,-0.047193527
455,1215573624,-164.9673157,-80.28684235,-0.150237307,0.025056815,0.048175927,-0.020456314
456,1215590291,-164.9784088,-80.28533936,-0.097878315,0.018847827,0.013245322,-0.015752792
457,1215606958,-164.98909,-80.28507996,-0.055694424,-0.014846925,-0.016772188,-0.010492325
458,1215623625,-165.0114136,-80.28420258,-0.017994944,-0.026251737,-0.047130723,-0.01224041
459,1215640292,-165.0529175,-80.2834549,0.026588378,-0.003271245,-0.020545535,-0.013928413
460,1215656959,-165.08078,-80.28543854,0.05836352,-0.02281088,0.00434878,-0.014348984
461,1215673626,-165.0903931,-80.288414,0.071611241,0.002338874,0.012268682,-0.013464928
462,1215690293,-165.096405,-80.29161072,0.084554769,-0.002702034,-0.019358737,-0.001409531
463,1215706960,-165.0895844,-80.2954483,0.079142742,-0.001921387,-0.049686708,-0.010970116
464,1215723627,-165.0804443,-80.30111694,0.063889191,-0.03457946,-0.024831172,-0.006052971
465,1215740294,-165.0771027,-80.3081131,0.06117107,0.006029541,0.017773136,-0.051688194
466,1215756961,-165.0676727,-80.31481171,0.052524976,0.00611579,-0.003186624,-0.034893036
467,1215773628,-165.0546722,-80.31905365,0.035270467,0.019688578,-0.004123255,-0.003735542
468,1215790295,-165.049942,-80.32524872,0.026407413,0.017805113,0.018903943,-0.01985836
469,1215806962,-165.0613251,-80.32915497,0.035845842,0.06059826,0.033090927,-0.029147148
470,1215823629,-165.0779877,-80.33087921,0.05685116,0.07014977,0.035352543,-0.058631897
471,1215840296,-165.1087341,-80.32823944,0.091773689,0.051095873,0.036368575,-0.03415203
472,1215856963,-165.1442261,-80.32208252,0.12977007,0.05221091,0.03123532,-0.017683983
473,1215873630,-165.2011871,-80.31259918,0.180179283,0.084403,0.019489827,-0.004501343
474,1215890297,-165.2796936,-80.29888916,0.233470753,0.10095157,-0.008060045,-0.04293251
475,1215906964,-165.3728638,-80.28177643,0.285356939,0.08994951,0.024705892,-2.63E-04
476,1215923631,-165.4731445,-80.26752472,0.340945125,0.01914693,0.026806133,0.005470276
477,1215940298,-165.5805359,-80.25385284,0.419116318,-0.053584997,3.92E-04,-0.04694271
478,1215956965,-165.6584625,-80.24205017,0.492560655,-0.09138815,-0.06467554,-0.06397724
479,1215973632,-165.6829376,-80.23271942,0.531762064,-0.087487236,-0.08524505,0.006631851
480,1215990299,-165.6509399,-80.22770691,0.525718093,-0.062112253,-0.079565026,0.07205868
481,1216006966,-165.6184082,-80.23028564,0.501130641,-0.07909852,-0.07053828,0.005960465
482,1216023633,-165.5811157,-80.24071503,0.461602867,-0.10953818,-0.010556852,-0.06324482
483,1216040300,-165.5242004,-80.25640106,0.404900312,-0.11201192,-0.00136097,-0.015936852
484,1216056967,-165.4400635,-80.2766037,0.33559373,-0.05989171,0.010364296,0.013889313
485,1216073634,-165.3647003,-80.29789734,0.291779548,0.053359136,0.038820177,0.00261116
486,1216090301,-165.3033142,-80.31643677,0.272308946,0.12767692,0.034554377,-0.036364555
487,1216106968,-165.2553101,-80.32691956,0.268139929,0.13187787,0.037779894,-0.04142666
488,1216123635,-165.2357941,-80.33059692,0.283606261,0.12585476,0.07314635,-0.037906647
489,1216140302,-165.2582092,-80.33094025,0.338795036,0.08165285,0.07746171,-0.039616585
490,1216156969,-165.29776,-80.32706451,0.402547717,0.08494539,0.012531812,-0.04114628
491,1216173636,-165.3402557,-80.31958008,0.456472278,0.052305188,-0.012764154,-0.032654762
492,1216190303,-165.3972473,-80.31048584,0.510396063,0.053755894,-5.35E-04,-0.057106018
493,1216206970,-165.4628448,-80.29897308,0.573144794,0.043120313,0.03913589,-0.03505993
494,1216223637,-165.5190735,-80.28881836,0.627518594,0.026947176,-0.026141461,-0.008836746
495,1216240304,-165.5622101,-80.27843475,0.659454286,8.01E-04,-0.045924928,-0.004899025
496,1216256971,-165.5967407,-80.26855469,0.67184484,0.016947996,-0.0637602,-0.01349926
497,1216273638,-165.6253967,-80.2571106,0.66901201,0.01610174,-0.037160818,0.001547813
498,1216290305,-165.6487885,-80.24960327,0.661091805,-0.005250829,0.003227415,-0.028455734
499,1216306972,-165.6817474,-80.24125671,0.672542751,-0.016775122,0.043505512,-0.065410614
500,1216323639,-165.7115173,-80.23464966,0.696600795,-0.019687565,0.032229785,-0.033068657
501,1216340306,-165.745285,-80.22672272,0.735764205,-0.05609086,0.027354801,-0.007275581
502,1216356973,-165.784668,-80.22173309,0.78234911,-0.014699546,0.002462051,-0.006018639
503,1216373640,-165.819931,-80.21733093,0.822607398,0.013036149,-0.011400055,-7.03E-04
504,1216390307,-165.8515778,-80.21437836,0.853378356,0.005436876,-0.040595595,-0.013349533
505,1216406974,-165.8812256,-80.21186066,0.876205325,0.004115153,-0.031721685,-0.0202322
506,1216423641,-165.8929749,-80.20975494,0.881170809,-3.46E-05,-0.004198859,-0.009482384
507,1216440308,-165.8833466,-80.20674133,0.872336805,0.017803624,0.001110357,0.006192207
508,1216456975,-165.8870544,-80.20397186,0.882027507,0.024489965,0.012375913,-0.009536743
509,1216473642,-165.9046478,-80.20137787,0.899335086,-0.017457955,-0.022729926,-0.05895233
510,1216490309,-165.9168854,-80.19792938,0.911544919,-0.014695383,0.03231014,-0.022667885
511,1216506976,-165.94104,-80.19599152,0.943615198,-0.014693574,0.027453817,0.006527901
512,1216523643,-165.9610138,-80.19472504,0.970743299,-0.015903443,-0.030581713,0.010183334
513,1216540310,-165.980423,-80.19504547,0.985866427,-0.002996736,-0.044015456,-0.019058228
514,1216556977,-165.9954376,-80.195755,0.991179764,0.020919053,1.24E-04,-0.035681725
515,1216573644,-166.0121002,-80.19538116,0.994760931,0.017420147,0.012396531,-0.05011463
516,1216590311,-166.0125732,-80.19439697,0.986415923,0.006901144,0.042305972,-0.006414414
517,1216606978,-166.0258789,-80.19289398,1.004384279,-0.013334545,0.061550103,-0.008230209
518,1216623645,-166.052063,-80.19364166,1.042152286,-0.015306523,0.017569795,-0.02068901
519,1216640312,-166.0678864,-80.1951828,1.071500063,-0.021953924,-0.017100586,-0.025476456
520,1216656979,-166.0776978,-80.19496918,1.08962369,0.006714238,-0.027265284,-0.005010605
521,1216673646,-166.0883942,-80.1965332,1.099358678,0.005136363,-0.03294307,-0.013327599
522,1216690313,-166.103775,-80.19773102,1.109814405,0.009626452,-2.48E-04,-0.002747536
523,1216706980,-166.1172791,-80.19865417,1.119836569,0.01849905,0.009283946,-0.01931572
524,1216723647,-166.134613,-80.19821167,1.134996772,0.012475341,0.019842809,-0.021186829
525,1216740314,-166.1549988,-80.19680786,1.153009653,0.01670218,0.045651346,-0.014931679
526,1216756981,-166.1774139,-80.19470978,1.16983521,0.010432453,-0.010443866,-0.021960258
527,1216773648,-166.197403,-80.19312286,1.175069928,0.006925325,-0.01803677,-0.019853592
528,1216790315,-166.2076874,-80.19137573,1.165419698,0.015128523,-0.04267069,-0.019247055
529,1216806982,-166.2154846,-80.1907196,1.148819208,-0.015639257,-0.018094435,-0.015332222
530,1216823649,-166.2287445,-80.19083405,1.142796278,0.001109169,0.005902139,-0.031798363
531,1216840316,-166.2368164,-80.19213867,1.141995311,-0.02270951,0.011058471,-0.017848969
532,1216856983,-166.2379608,-80.19480896,1.144121766,-0.02618068,0.003536031,-0.019021988
533,1216873650,-166.2287445,-80.19941711,1.142743111,-0.038531058,-0.012418939,-0.015724182
534,1216890317,-166.2080536,-80.20491791,1.129965305,-0.019368738,-0.026753439,-0.005393028
535,1216906984,-166.1714172,-80.21080017,1.10129261,0.004177499,-0.04626651,-0.00494194
536,1216923651,-166.1338196,-80.21608734,1.068160415,-0.009712441,-0.031190395,-0.009280205
537,1216940318,-166.0950928,-80.22290039,1.039432764,0.013407202,0.020697467,-0.017692566
538,1216956985,-166.0568237,-80.22881317,1.016475677,0.021925252,-0.001026874,-0.016645432
539,1216973652,-166.0252991,-80.23259735,1.000281692,0.043506145,0.017784758,-0.023561478
540,1216990319,-165.9951935,-80.23543549,0.980523825,0.016471026,0.008800655,-0.01703167
541,1217006986,-165.9832764,-80.23738861,0.96844697,0.03756636,-0.007910905,-0.028315544
542,1217023653,-165.9892883,-80.23567963,0.965765893,0.051813096,0.024177117,-0.01763153
543,1217040320,-166.0028839,-80.23284149,0.967914999,0.018943233,0.026738463,-0.026661873
544,1217056987,-166.0198975,-80.22763062,0.977808714,0.034877498,0.023039995,-0.01000309
545,1217073654,-166.0162048,-80.22346497,0.970315814,0.010770824,0.013152955,0.015133858
546,1217090321,-166.0171356,-80.21859741,0.970835507,-0.006752012,0.007507744,5.07E-04
547,1217106988,-166.019928,-80.21457672,0.966408491,-0.011991337,0.017446248,-0.03209591
548,1217123655,-166.023468,-80.21055603,0.963933527,-0.015008825,0.026893247,-0.034256935
549,1217140322,-166.0265198,-80.20596313,0.970939875,-1.18E-04,0.01742641,-0.003881455
550,1217156989,-166.0207672,-80.20230865,0.97212708,-0.006492276,-0.019571353,-0.013981819
551,1217173656,-166.0062256,-80.1987381,0.968599796,0.021445585,-0.019430205,-0.025179863
552,1217190323,-165.9821777,-80.19259644,0.961844444,0.043444864,-0.02107269,-0.022888184
553,1217206990,-165.9533234,-80.18672943,0.956013918,0.01668828,0.0026303,-0.005127907
554,1217223657,-165.9093323,-80.18383789,0.940642476,-8.02E-04,-0.011901506,-0.007670403
555,1217240324,-165.8679199,-80.18157959,0.923110664,-0.020897882,-0.042038262,-0.017744064
556,1217256991,-165.8105774,-80.18091583,0.879417419,-0.021147888,-0.0703977,-0.022774696
557,1217273658,-165.7495575,-80.17953491,0.821791053,-0.002570497,-0.013757614,-0.016186714
558,1217290325,-165.688736,-80.17783356,0.760437727,-0.002248191,0.027807917,-0.03988743
559,1217306992,-165.6475372,-80.17687225,0.72589612,0.016458258,0.055068396,-0.022097588
560,1217323659,-165.6196747,-80.17519379,0.711788774,0.019825578,0.014845004,-0.020655632
561,1217340326,-165.5976715,-80.17329407,0.698767602,0.04598232,0.009914308,-0.01817131
562,1217356993,-165.5966492,-80.16901398,0.693283498,0.020799074,-0.03570938,-0.003353119
563,1217373660,-165.5980225,-80.1634903,0.675982356,-0.015106794,-0.010744771,-0.03186512
564,1217390327,-165.5992889,-80.16155243,0.655119658,-0.019992696,0.02431575,-0.008563995
565,1217406994,-165.6085205,-80.158638,0.648709238,-0.043426536,0.0345427,0.002464294
566,1217423661,-165.6175537,-80.15765381,0.654248118,-0.022877682,0.028626813,0.001442909
567,1217440328,-165.6266479,-80.15825653,0.666381478,0.006505289,-0.004114706,-0.01290226
568,1217456995,-165.6256104,-80.16087341,0.665261626,-0.017833589,-0.038630415,-0.029183388
569,1217473662,-165.6197205,-80.16474915,0.65513736,-0.06259064,-0.018190267,-0.033798218
570,1217490329,-165.5988312,-80.17248535,0.639192939,-0.08155271,0.054867905,0.001176834
571,1217506996,-165.5897064,-80.18408966,0.66004312,-0.08464841,0.09607978,0.005274773
572,1217523663,-165.5794983,-80.19893646,0.699715555,-0.049580384,0.009586248,-0.018403053
573,1217540330,-165.5603943,-80.21775055,0.723864138,0.002235227,-0.06343622,-0.009581566
574,1217556997,-165.5319366,-80.23555756,0.7169891,0.04215805,-0.08255747,0.006145477
575,1217573664,-165.5014343,-80.25095367,0.694315851,0.07270047,-0.014522811,-0.017137527
576,1217590331,-165.4837494,-80.25898743,0.693861127,0.043058723,0.07442216,-0.030883789
577,1217606998,-165.4941254,-80.2717514,0.733613789,0.06389024,0.09413075,-0.031899452
578,1217623665,-165.4998779,-80.2783432,0.784891248,0.07098263,0.04057833,-0.056263924
579,1217640332,-165.5157013,-80.28153229,0.838980734,0.08135796,-0.036795933,-0.020593643
580,1217656999,-165.5365143,-80.28070831,0.866958678,0.09049996,-0.061250318,0.003143311
581,1217673666,-165.5716248,-80.27633667,0.88874644,0.09655502,-0.03892506,-0.04151535
582,1217690333,-165.6041107,-80.26659393,0.900455236,0.07279186,0.002394606,-0.039829254
583,1217707000,-165.6443939,-80.25376129,0.91621846,0.032772817,0.011162014,-0.036406517
584,1217723667,-165.6687622,-80.24178314,0.907877386,0.009734918,-0.044404704,-0.007890701
585,1217740334,-165.6874542,-80.23092651,0.879292548,-0.017509481,-0.07378917,-0.00524807
586,1217757001,-165.6896362,-80.22782898,0.829207957,-0.06883741,-0.038400978,0.006494522
587,1217773668,-165.6732941,-80.22575378,0.76643008,-0.044603653,-0.007192927,-0.010205269
588,1217790335,-165.6483459,-80.22559357,0.704864681,-0.02816301,0.013418824,6.87E-05
589,1217807002,-165.6242523,-80.22503662,0.653353393,-0.012889189,-7.97E-04,-0.030823708
590,1217823669,-165.5955963,-80.22518921,0.604651868,-0.007915753,0.002449032,-0.025698662
591,1217840336,-165.5626678,-80.22716522,0.548673987,0.010399451,0.021021338,0.002055168
592,1217857003,-165.5415955,-80.22509766,0.506977439,0.015941327,0.01928302,-0.009509087
593,1217873670,-165.5277405,-80.22332001,0.467768222,0.026344718,0.001039615,-0.007332802
594,1217890337,-165.506073,-80.22006989,0.416961014,0.01868129,0.018594882,-0.02909565
595,1217907004,-165.4940491,-80.21559906,0.378503114,0.03080225,0.010649443,-0.028225899
596,1217923671,-165.484024,-80.20889282,0.347053111,0.07859694,-0.009295122,-0.0185709
597,1217940338,-165.4898376,-80.20106506,0.330886424,-0.003540019,0.02204268,-0.006586075
598,1217957005,-165.4976501,-80.19314575,0.323710024,8.04E-04,0.003646949,-0.01840496
599,1217973672,-165.5020447,-80.18466187,0.320437163,0.017733442,0.014402057,-0.028471947
600,1217990339,-165.5178986,-80.17527771,0.325873435,-0.005766907,0.00604977,-0.024965286
601,1218007006,-165.5518799,-80.16387177,0.342732191,0.024168357,-0.003436009,-0.02413559
602,1218023673,-165.5955353,-80.15497589,0.361713201,0.01405103,-0.008101283,-0.03309536
603,1218040340,-165.652771,-80.14306641,0.39170596,0.001030304,0.04885278,-0.013341904
604,1218057007,-165.6793671,-80.13278961,0.398863792,-0.046371,-0.060080897,0.011463165
605,1218073674,-165.6792145,-80.12311554,0.371998787,-0.028568322,-0.104394406,0.03907013
606,1218090341,-165.6462402,-80.11590576,0.309520364,-0.027420277,-0.040273737,0.006705284
607,1218107008,-165.6100616,-80.1087265,0.264316827,-0.020695252,0.015965251,-0.039274216
608,1218123675,-165.5719299,-80.10108185,0.238203764,-0.011251719,0.052502356,-0.012999535
609,1218140342,-165.5311737,-80.09503937,0.226502791,0.010945129,0.03246425,0.012385368
610,1218157009,-165.483017,-80.08781433,0.209317401,0.015198252,-0.039537262,0.010023117
611,1218173676,-165.4128113,-80.07659149,0.160724133,0.04665979,-0.10019706,0.01905632
612,1218190343,-165.3161316,-80.05870819,0.071371831,0.03923026,-0.118547976,0.07080364
613,1218207010,-165.2033539,-80.03939056,-0.044102725,0.042913154,-0.07065105,0.002308846
614,1218223677,-165.1325989,-80.02798462,-0.098734118,-0.017287722,0.08894804,-0.16080952
615,1218240344,-165.0894318,-80.02044678,-0.085413717,-0.050561927,0.12741278,-0.14913559
616,1218257011,-165.0382843,-80.01418304,-0.045326315,-0.074463814,0.067690454,0.009881973
617,1218273678,-164.9993286,-80.0165863,0.010223854,-0.086875685,-0.025566027,0.037896156
618,1218290345,-164.9717407,-80.02366638,0.056413174,-0.05066407,-0.14767194,-0.038404465
619,1218307012,-164.9112396,-80.03469086,0.041328579,-0.044186555,-0.16017056,-0.045873642
620,1218323679,-164.8255005,-80.04908752,0.002816192,-0.017131556,0.015238331,0.019479752
621,1218340346,-164.7260895,-80.06086731,-0.014893798,-0.03323241,0.11202095,0.042546272
622,1218357013,-164.6614227,-80.07637024,0.029694907,-0.017036507,0.12730443,-0.02304554
623,1218373680,-164.5986176,-80.09749603,0.094872043,-0.037709344,0.06258776,-0.049790382
624,1218390347,-164.5357361,-80.11598969,0.147531375,-0.039675582,-0.04684731,-0.012103081
625,1218407014,-164.4606781,-80.14232635,0.158878475,-0.05064317,-0.0835007,0.018464088
626,1218423681,-164.3829346,-80.17909241,0.143434763,-0.13826647,0.01046633,-0.003036499
627,1218440348,-164.3067932,-80.22328186,0.14888753,-0.17419416,0.043211926,0.008687973
628,1218457015,-164.1860046,-80.27631378,0.146608651,-0.13148119,0.03110954,0.050061226
629,1218473682,-164.0639038,-80.33651733,0.160386294,-0.12971336,-0.031363226,0.02029705
630,1218490349,-163.9173737,-80.40753174,0.151940554,-0.059298582,-0.070524596,-0.022187233
631,1218507016,-163.7474823,-80.48335266,0.10010267,-0.08188931,-0.12347973,-0.051340103
632,1218523683,-163.5573425,-80.56372833,-0.00115086,-0.026407853,-0.10158016,-0.019441605
633,1218540350,-163.3575439,-80.64367676,-0.136026561,0.028457027,-0.001507371,0.004263878
634,1218557017,-163.1951599,-80.7232666,-0.237340108,0.10377798,0.08405881,-0.05697632
635,1218573684,-163.0735016,-80.79252625,-0.30259642,0.23028111,0.12018822,-0.08427429
636,1218590351,-162.9786377,-80.84931946,-0.353493422,0.279699,0.09085981,-0.004810333
637,1218607018,-162.9520264,-80.89562988,-0.36819005,0.28779534,0.06373735,-0.008877754
638,1218623685,-163.0042419,-80.92890167,-0.335085869,0.24489364,0.0867313,-0.07280636
639,1218640352,-163.0957489,-80.9462738,-0.266178071,0.2420573,0.11917711,-0.08440399
640,1218657019,-163.1968536,-80.95645905,-0.192320809,0.20037222,0.019093147,-0.051052094
641,1218673686,-163.3208771,-80.95975494,-0.122907549,0.1112069,-0.015937703,-0.027245522
642,1218690353,-163.4406128,-80.96086884,-0.085605554,0.08694711,-0.062303398,0.018576622
643,1218707020,-163.5670319,-80.9577179,-0.065335445,0.037720457,-0.011704759,-0.020080566
644,1218723687,-163.7086945,-80.95888519,-0.018385304,-0.09221473,-0.003017034,-0.097088814
645,1218740354,-163.8397064,-80.96234131,0.043850746,-0.14399227,0.022041172,-0.034457207
646,1218757021,-163.9550323,-80.96993256,0.114554644,-0.109667666,0.03554912,0.027915
647,1218773688,-164.0597992,-80.98005676,0.187578917,-0.08033932,-0.03949211,0.017819405
648,1218790355,-164.1492157,-80.99391937,0.23925899,-0.02227864,-0.09532777,-0.016295433
649,1218807022,-164.2411346,-81.00981903,0.277824521,0.003451403,-0.074278995,-0.035736084
650,1218823689,-164.294281,-81.02629089,0.2815364,0.043776296,0.007945271,-0.003920555
651,1218840356,-164.3139191,-81.04099274,0.277976006,0.033944737,0.020283801,0.032847404
652,1218857023,-164.3511963,-81.05473328,0.307265937,0.078767054,0.011118205,0.00388813
653,1218873690,-164.4038239,-81.06712341,0.354836822,0.06855262,0.04116153,-0.062314034
654,1218890357,-164.4648895,-81.07813263,0.414648592,0.013532738,0.0660487,-0.04383278
655,1218907024,-164.5507813,-81.0923233,0.511158586,0.001755757,0.07136288,-0.018449783
656,1218923691,-164.6502991,-81.10430908,0.626019895,0.009817394,0.052195694,-0.030321121
657,1218940358,-164.7705994,-81.11463165,0.749323726,0.02420954,0.003975178,-0.031040192
658,1218957025,-164.9094543,-81.1262207,0.87263447,0.03575056,-0.024854474,-0.02034378
659,1218973692,-165.0417786,-81.1349411,0.981332541,0.064606555,0.034811918,-0.02560234
660,1218990359,-165.1889496,-81.14330292,1.115313411,0.058164112,0.08262989,-0.022039413
661,1219007026,-165.3467407,-81.1526947,1.265970826,0.008169888,0.020595992,-0.029335976
662,1219023693,-165.4668579,-81.16600037,1.393741965,0.010629194,-0.028239297,-0.002290726
663,1219040360,-165.5570526,-81.17895508,1.50903976,0.073566765,-0.053634394,-0.006962776
664,1219057027,-165.6416473,-81.18869019,1.626119256,0.074059196,-0.047857758,-0.04414749
665,1219073694,-165.7287292,-81.19987488,1.738110065,0.027452106,-0.012308188,-0.050369263
666,1219090361,-165.7849884,-81.21226501,1.81630981,0.002932434,-0.022298826,-0.02362442
667,1219107028,-165.8126068,-81.2256012,1.857472539,0.008512128,-0.03838265,0.02163601
668,1219123695,-165.8212433,-81.2443161,1.855951786,-0.008667399,-0.04229826,0.027308464
669,1219140362,-165.8409424,-81.27028656,1.839685678,-0.042738535,0.052932225,-0.039643288
670,1219157029,-165.8119354,-81.29714966,1.792466879,0.027799033,0.044518583,-0.100850105
671,1219173696,-165.8038635,-81.32248688,1.7870754,-0.025845466,0.003235127,-0.003255844
672,1219190363,-165.8884735,-81.34998322,1.915358186,0.11534272,0.1423444,0.14366245
673,1219207030,-166.3626556,-81.3675766,2.48191905,0.3739435,0.367935,0.2042408
674,1219223697,-166.975647,-81.35218811,3.226813316,0.5095211,0.36432958,-0.026395798
675,1219240364,-167.5123901,-81.30708313,3.916414738,0.58284545,0.26820466,-0.18473148
676,1219257031,-168.0849304,-81.23007202,4.624615192,0.43523693,0.26961115,-0.25479794
677,1219273698,-168.7118225,-81.12345886,5.383855343,0.24531391,0.08476041,-0.11993408
678,1219290365,-169.2234192,-81.00125885,6.014242649,0.058681224,-0.10817524,-0.007376671
679,1219307032,-169.6494751,-80.88197327,6.50302887,-0.13483153,-0.2896844,-0.01913929
680,1219323699,-169.9778748,-80.7701416,6.854747295,-0.16556627,-0.41226545,-0.09768009
681,1219340366,-170.1619415,-80.66855621,7.058338165,-0.19818819,-0.3784162,-0.08538437
682,1219357033,-170.2406464,-80.5764389,7.188995361,-0.20758878,-0.15219562,-0.055784225
683,1219373700,-170.2796936,-80.49022675,7.337934494,-0.09465626,0.089176364,0.004395485
684,1219390367,-170.3525238,-80.39160156,7.548171997,-0.021984454,0.15172395,-0.006592751
685,1219407034,-170.461731,-80.29402161,7.764600277,0.047092028,-0.008120505,-0.03131485
686,1219423701,-170.6225891,-80.19967651,7.962166786,0.15676525,-0.05177013,-0.025355339
687,1219440368,-170.8439178,-80.09786224,8.14971447,0.34550962,0.050601266,0.0038023
688,1219457035,-171.177948,-79.97991943,8.369140625,0.51509434,0.12967394,-0.044272423
689,1219473702,-171.5926971,-79.83740234,8.633984566,0.7740803,0.23793468,-0.16723251
690,1219490369,-172.0414734,-79.65061951,8.944058418,0.7925535,0.22400837,-0.21215057
691,1219507036,-172.5688019,-79.41867065,9.360731125,0.6006827,0.42832664,-0.2056694
692,1219523703,-173.1749268,-79.17062378,9.893690109,0.010313558,0.3360373,-0.12024021
693,1219540370,-173.8014526,-78.90216827,10.50945091,0.08178111,0.28012532,-0.22780609
694,1219557037,-174.5690613,-78.56941986,11.30540752,0.7012355,0.60816914,-0.15303135
695,1219573704,-175.5095367,-78.2052002,12.18208981,0.6697796,0.22068043,0.11152363
696,1219590371,-176.6489868,-77.82707977,13.10038471,0.44864187,0.2392458,-0.19840717
697,1219607038,-177.7749786,-77.40493011,14.05569935,0.44934663,0.39794627,-0.5335245
698,1219623705,-178.8908844,-76.96013641,15.02779579,-0.05123449,0.1830879,-0.21153831
699,1219640372,179.9108124,-76.48943329,16.02272606,0.07727407,0.13840543,-0.12566757
700,1219657039,178.6982727,-75.99032593,17.02670479,0.3452735,0.30484238,-0.19526958
701,1219673706,177.5713959,-75.48082733,17.94354057,0.13302246,-0.087599814,-0.111741066
702,1219690373,176.4271545,-74.97406006,18.77561188,-0.31458127,-0.20133282,-0.073937416
703,1219707040,175.2234802,-74.45581818,19.57484436,-0.3874693,0.03806012,-0.19967079
704,1219723707,174.0554352,-73.91702271,20.36854935,-0.2431798,0.26569232,-0.1931696
705,1219740374,172.9763489,-73.35752106,21.18551636,0.077568024,0.3602451,0.024410248
706,1219757041,171.9285126,-72.76306152,22.01577568,0.411293,0.17306937,-0.121040344
707,1219773708,170.9297028,-72.16239929,22.79957771,0.3268546,0.061126407,-0.41338444
708,1219790375,170.0231018,-71.5641098,23.50224495,0.013810419,-0.24370667,-0.4374733
709,1219807042,169.1254272,-70.98989868,24.16476631,-0.6189931,-0.7254789,-0.076132774
710,1219823709,168.2897949,-70.40981293,24.76486015,-0.4141741,-0.1691568,-0.07452774
711,1219840376,167.6312408,-69.78694916,25.2718029,0.018225415,0.51824534,-0.049102783
712,1219857043,167.1999664,-69.1268692,25.71973991,0.6051753,0.62916714,-0.22480679
713,1219873710,166.868042,-68.4561615,26.16194534,0.5791699,0.07333549,-0.18196201
714,1219890377,166.5718536,-67.80358124,26.55649185,0.6381141,-0.21437876,-0.3522911
715,1219907044,166.2670441,-67.17821503,26.88393784,-0.17468403,-0.64135724,-0.17710686
716,1219923711,165.9975433,-66.56071472,27.14843559,-0.21436188,-0.41859752,-0.36276627
717,1219940378,165.8770752,-65.90488434,27.30498886,0.00885118,0.007405404,-0.22074032
718,1219957045,165.9148712,-65.23582458,27.35616112,0.45190793,0.23189932,-0.14579391
719,1219973712,166.0578156,-64.56406403,27.34027481,0.39593804,-0.07048329,-0.10854626
720,1219990379,166.1870422,-63.90956116,27.31210709,0.2838497,-0.45424363,-0.30821228
721,1220007046,166.2364044,-63.27711868,27.27445984,-0.29705623,-0.59157825,-0.22525787
722,1220023713,166.2032776,-62.68401337,27.25963783,-0.8762426,-0.524528,-0.23864174
723,1220040380,166.2506256,-62.08507538,27.21882057,-0.808349,0.43673447,-0.26781845
724,1220057047,166.4011078,-61.46413422,27.1965847,-0.1517764,1.046624,0.005374908
725,1220073714,166.5894165,-60.83348846,27.24233437,0.17970623,0.8803365,-0.073996544
726,1220090381,166.7149811,-60.2148056,27.37599373,-0.004178973,0.35738045,0.07529259
727,1220107048,166.7026367,-59.62627411,27.57234573,-0.4240367,-0.18504934,0.32153702
728,1220123715,166.6112671,-59.06117249,27.80219078,-0.69696736,-0.3178685,-0.036429405
729,1220140382,166.4979706,-58.47254562,28.02195168,-0.558587,-0.033294335,-0.33903503
730,1220157049,166.3672333,-57.90288162,28.23222733,-0.32491383,-0.05224435,0.010554314
731,1220173716,166.0843048,-57.35951996,28.45374107,-0.31345615,-0.27783245,0.107471466
732,1220190383,165.7131348,-56.84824753,28.7154789,-0.4427322,-0.15126833,-0.27525043
733,1220207050,165.533432,-56.28060913,28.9509697,-0.026908316,0.117272206,-0.5964823
734,1220223717,165.5088806,-55.72156143,29.14852905,-0.0864842,-0.8082821,0.3496523
735,1220240384,165.3608093,-55.19116592,29.34119606,-0.3866284,-1.0719179,0.6681862
736,1220257051,165.128418,-54.68535614,29.52795029,-0.26306713,-0.15564194,0.21609402
737,1220273718,164.9922638,-54.19541168,29.68836784,-0.080226034,0.65630645,-0.14316463
738,1220290385,165.0237579,-53.73400497,29.85226822,0.08398994,0.23425402,0.1499958
739,1220307052,165.1641693,-53.30060959,29.98890495,-0.43339816,-0.86471325,0.47698307
740,1220323719,165.1704102,-52.8836174,30.09941483,-0.5321003,-1.0374905,0.40833282
741,1220340386,165.0527191,-52.46738434,30.18418694,-0.013251427,-0.70116675,0.16863728
742,1220357053,164.8434143,-52.09150314,30.22674561,0.38360947,-0.15012182,0.07855415
743,1220373720,164.6858826,-51.81436157,30.2300148,0.05043376,0.003101936,0.34507942
744,1220390387,164.6515808,-51.5871048,30.19366837,-0.49577117,0.028214976,0.2488308
745,1220407054,164.7209473,-51.32410049,30.18546104,-0.64649785,0.35119125,-0.2542057
746,1220423721,164.8536835,-51.02201843,30.2267971,-0.3057978,0.41916236,0.061395645
747,1220440388,164.9526672,-50.73391342,30.335783,-0.07722938,0.12373948,0.12625313
748,1220457055,165.0357208,-50.50094223,30.4336834,0.03773619,-0.3406252,0.1829691
749,1220473722,165.0858307,-50.32458115,30.468153,-0.015528416,-0.5087296,0.3987112
750,1220490389,165.0736084,-50.17523956,30.49508095,-0.44555748,-0.80191857,0.14807892
751,1220507056,165.0427704,-50.00883484,30.49700356,-0.22397017,-0.45719758,-0.020210266
752,1220523723,165.0138855,-49.88252258,30.45013809,0.005856452,-0.32616574,0.44054985
753,1220540390,164.9330902,-49.78363037,30.39084435,-0.23062108,-0.00665189,0.040763855
754,1220557057,164.9861298,-49.71208191,30.32128334,-0.24017504,0.42797273,-0.021835327
755,1220573724,165.1833496,-49.65472412,30.25531006,-0.24239142,0.29500788,0.17406464
756,1220590391,165.3835297,-49.59241104,30.24889946,-0.5255428,-0.15681738,0.096731186
757,1220607058,165.5506439,-49.49342346,30.27500534,-0.61981833,-0.3391945,-0.041568756
758,1220623725,165.6554413,-49.42563248,30.29490852,-0.1625931,-0.054648638,0.345253
759,1220640392,165.6978302,-49.4401741,30.30853081,-0.118273064,-0.4867151,0.54804516
760,1220657059,165.6725616,-49.46876144,30.29754066,-0.43817854,-0.8461298,0.107224464
761,1220673726,165.6008911,-49.52939606,30.25313187,-0.3347819,-0.46129832,0.40589905
762,1220690393,165.5138855,-49.6627655,30.19049835,-0.32412446,-0.2465432,0.6973753
763,1220707060,165.4744568,-49.8263588,30.14778519,-0.39710855,-0.21171978,0.08905983
764,1220723727,165.5392914,-49.99971008,30.07908821,-0.39775172,-0.56794953,0.080174446
765,1220740394,165.5834656,-50.2192955,29.96079254,-0.27691036,-0.31689543,0.49536133
766,1220757061,165.6043854,-50.46998978,29.83282852,-0.34925085,-0.08304537,0.1300211
767,1220773728,165.6630859,-50.74651337,29.71435165,-0.41154784,0.41282958,0.050066948
768,1220790395,165.785141,-51.07012939,29.6452446,-0.5358303,0.43632796,0.37825775
769,1220807062,165.9360657,-51.41424179,29.65086174,-0.67806,0.13353957,0.17146778
770,1220823729,166.018631,-51.74487686,29.71419525,-0.51845217,0.08762615,0.106897354
771,1220840396,165.9435272,-52.1186409,29.84655762,-0.59520066,-0.15264615,0.5177622
772,1220857063,165.7315521,-52.52870178,30.04110527,-0.56210274,-0.1591461,0.17949772
773,1220873730,165.5574188,-52.98452377,30.20527649,-0.44150195,-0.40583232,0.24292088
774,1220890397,165.4438934,-53.50124741,30.30831909,-0.19996147,-0.5729463,0.536355
775,1220907064,165.316452,-54.06398773,30.37089157,-0.17908537,-0.9214877,0.86023426
776,1220923731,165.1321106,-54.68362808,30.42050171,-0.5861865,-0.98801243,0.4244957
777,1220940398,165.0423737,-55.30718231,30.41249084,-0.5286125,-0.48240176,-0.16552067
778,1220957065,165.1349945,-55.97391891,30.30062866,-0.23349743,-0.36092845,0.18647861
779,1220973732,165.2912445,-56.70413208,30.1377449,-0.39324737,-0.46937022,0.5207987
780,1220990399,165.4990082,-57.47409439,29.92700768,-0.39582223,-0.48564503,0.064463615
781,1221007066,165.7287598,-58.29201126,29.70757294,-0.40669125,-0.27202246,-0.007125855
782,1221023733,165.8661652,-59.13543701,29.51980209,-0.79687023,-0.28783938,0.4038105
783,1221040400,166.0047302,-60.01493454,29.35704803,-0.5317908,-0.17614992,-0.062981606
784,1221057067,166.2131195,-60.93522644,29.14957428,-0.7046456,-0.33456835,0.38153934
785,1221073734,166.4919586,-61.9623909,28.86508369,-0.5307441,-0.3907482,0.38142872
786,1221090401,166.8946991,-63.06259155,28.49879646,-0.1972923,-0.46460363,0.29878807
787,1221107068,167.2402649,-64.20439911,28.0162487,-0.44692156,-1.0325147,0.33810616
788,1221123735,167.5054016,-65.39213562,27.41617775,-0.77162516,-1.1044513,-0.60944843
789,1221140402,167.9381104,-66.53897858,26.68648148,-0.71269196,-0.04372964,-1.0184298
790,1221157069,168.7804871,-67.63802338,25.78899384,-0.16023488,0.7548895,-0.33479595
791,1221173736,170.0168915,-68.75417328,24.86820412,0.009407506,0.7342684,0.027941704
792,1221190403,171.4354553,-69.9122467,23.97063446,0.18946666,0.25243682,-0.21169949
793,1221207070,172.6956787,-71.04885864,22.97638512,-0.14798641,-0.4950422,-0.5499182
794,1221223737,173.9618378,-72.15807343,21.84841537,-0.10127443,-0.47863668,-1.3004541
795,1221240404,175.2854004,-73.13458252,20.57135201,0.44979554,0.27265206,-1.0267363
796,1221257071,176.6062317,-74.03346252,19.20995712,0.9446672,0.47899336,-0.436965
797,1221273738,177.9210663,-74.88271332,17.817173,1.5387999,0.6717383,-0.47640324
798,1221290405,179.1796875,-75.66506195,16.41409874,1.5371411,0.37040448,-0.7279854
799,1221307072,-179.6453857,-76.35791016,14.90463543,1.1004888,0.027631454,-0.9714575
800,1221323739,-178.5693054,-76.91569519,13.36511612,1.043697,0.4011961,-1.0970058
801,1221340406,-177.4562225,-77.34148407,11.87685871,1.0164886,1.1627088,-0.43057346
802,1221357073,-176.46521,-77.68460846,10.73587227,1.12913,1.4262893,-0.09999275
803,1221373740,-175.5934906,-77.97756195,9.905267715,1.0775266,1.2206639,-0.12688923
804,1221390407,-174.7655334,-78.1986618,9.250984192,1.0875398,0.8583102,-0.25694656
805,1221407074,-174.1336212,-78.33596802,8.798371315,0.7049638,0.29236284,-0.32318783
806,1221423741,-173.7750092,-78.41892242,8.54061985,0.3435236,0.095143266,-0.18703175
807,1221440408,-173.5184021,-78.47742462,8.320025444,0.16866222,0.33648556,-0.045516014
808,1221457075,-173.3203888,-78.52848053,8.164168358,-0.043934938,0.12831259,-0.054903984
809,1221473742,-173.1565094,-78.54663086,8.105051041,0.1782411,0.15127128,-0.11829567
810,1221490409,-173.0726471,-78.54798889,8.132793427,0.16338554,0.18195228,0.002162933
811,1221507076,-172.9857941,-78.53830719,8.174683571,0.2351212,0.22258522,0.063928604
812,1221523743,-172.9377594,-78.50662231,8.30926609,0.44780463,0.4585504,0.003294945
813,1221540410,-172.9416809,-78.45646667,8.571642876,0.3913946,0.25829884,-0.12531376
814,1221557077,-172.9699554,-78.37758636,8.88243103,0.28667825,0.049564667,-0.2412653
815,1221573744,-173.0012512,-78.29314423,9.16379261,0.17389312,-0.26144412,-0.015035629
816,1221590411,-173.0679321,-78.21551514,9.353621483,0.013878485,-0.4258205,-0.006341934
817,1221607078,-173.1449738,-78.13776398,9.436379433,0.04601915,-0.40779185,-0.16256428
818,1221623745,-173.1962891,-78.03331757,9.457535744,0.1456816,0.07876613,-0.04510975
819,1221640412,-173.2019806,-77.9368515,9.409568787,-0.080275476,-0.048591103,0.31795406
820,1221657079,-173.2727051,-77.85292053,9.42950058,-0.02546064,0.21773542,0.036179543
821,1221673746,-173.3799133,-77.77841187,9.552762032,-0.25367293,0.23595245,-0.13363361
822,1221690413,-173.4338684,-77.71351624,9.722568512,-0.20002976,0.196527,-0.13592339
823,1221707080,-173.4592743,-77.66477203,9.944678307,-0.24570589,-0.046506733,0.055728912
824,1221723747,-173.4861908,-77.64252472,10.09523106,-0.2603666,-0.49489322,0.07390022
825,1221740414,-173.4767151,-77.63166809,10.16842937,-0.112084016,-0.18033193,-0.1040287
826,1221757081,-173.5103149,-77.60865784,10.27605724,0.037632547,0.028078312,-0.03183651
827,1221773748,-173.5388184,-77.60551453,10.34963417,-0.075175166,-0.13889156,0.06954765
828,1221790415,-173.5981598,-77.60818481,10.44437408,-0.020334901,0.040000383,-0.032156944
829,1221807082,-173.6362305,-77.62155914,10.55241394,-0.24417455,0.012516446,0.044672966
830,1221823749,-173.5897675,-77.66069794,10.62003708,-0.4233259,-0.11004325,0.12507439
831,1221840416,-173.5465851,-77.71939087,10.6975565,-0.43058822,-0.107760176,0.11193085
832,1221857083,-173.5532074,-77.79301453,10.74105263,-0.36872882,-0.062673256,-0.0277071
833,1221873750,-173.5704803,-77.86997223,10.77815342,-0.14357394,0.04155916,-0.09790325
834,1221890417,-173.5839233,-77.95649719,10.79186249,-0.1834617,-0.12901346,0.19630527
835,1221907084,-173.6858063,-78.05384827,10.84055519,-0.10187973,0.011356303,0.15542984
836,1221923751,-173.9464111,-78.14729309,11.05745697,-0.042958546,0.22166032,-0.1460638
837,1221940418,-174.1967316,-78.25866699,11.25914288,-0.27981648,-0.2266617,-0.1768198
838,1221957085,-174.3319855,-78.40091705,11.3043766,-0.32991943,-0.506117,-0.10169697
839,1221973752,-174.4794312,-78.57205963,11.31185532,-0.2255108,-0.38679895,0.08457756
840,1221990419,-174.7057953,-78.7407608,11.34592724,-0.15291505,-0.017838122,0.23773289
841,1222007086,-175.1106262,-78.90350342,11.45941639,-0.012425756,0.21730757,0.076462746
842,1222023753,-175.7483215,-79.01131439,11.70181656,0.5349198,0.48537683,-0.35359383
843,1222040420,-176.4397278,-79.11326599,11.94905281,0.25570905,-0.3169668,-0.32365513
844,1222057087,-177.0732117,-79.20681763,12.07798481,0.24117914,-0.68485194,-0.20694065
845,1222073754,-177.8733978,-79.24384308,12.24002552,0.53964686,-0.10980275,-0.031921387
846,1222090421,-178.9015503,-79.17623901,12.52734184,1.0323106,0.29214215,-0.058348656
847,1222107088,179.8476715,-78.99840546,12.9622879,0.6372467,-0.048655696,-0.11017513
848,1222123755,178.3620148,-78.74175262,13.73588753,0.35757637,0.612879,-0.22350025
849,1222140422,176.793335,-78.47502899,14.88574028,0.5622605,1.347158,0.029899597
850,1222157089,175.1674652,-78.20703888,16.36816978,0.36153615,1.3321708,-0.11408615
851,1222173756,173.7612305,-77.9214859,17.84776306,0.4265882,1.2985406,-0.60102177
852,1222190423,172.7225342,-77.6371994,19.13493156,0.24001595,0.5060049,-0.39500904
853,1222207090,171.6632233,-77.31212616,20.34698105,0.21756214,-0.5274474,0.061332703
854,1222223757,170.5037842,-76.94635773,21.46077919,0.41999477,-0.6120672,0.31005478
855,1222240424,169.3751221,-76.53109741,22.42979431,0.8255203,0.57544917,-0.16718674
856,1222257091,168.414856,-76.05026245,23.43113327,1.1815524,1.499868,-0.6401415
857,1222273758,167.6956787,-75.54943085,24.4155426,0.6327426,0.82056844,-0.585413
858,1222290425,167.0727997,-75.01489258,25.37192345,0.4427088,0.21501267,-0.30777073
859,1222307092,166.3452759,-74.38905334,26.28975105,0.3385673,-0.4925309,-0.38392162
860,1222323759,165.6202393,-73.6675415,27.09615898,0.4678578,-0.8877474,-0.31186104
861,1222340426,164.9645081,-72.90350342,27.65033913,1.114489,0.032521985,-0.55847836
862,1222357093,164.4407501,-72.14057922,28.10070038,1.0967834,-0.024957765,-0.24755573
863,1222373760,163.9992676,-71.38023376,28.46315384,0.75978225,-0.12220149,-0.8161402
864,1222390427,163.6332703,-70.60836792,28.79732132,-0.11321908,-0.41831714,-0.75226116
865,1222407094,163.3527679,-69.80406189,29.05681038,-0.67275786,-0.784284,-0.14291859
866,1222423761,163.1540833,-68.91562653,29.2086792,0.12287766,0.14828333,-0.40407467
867,1222440428,163.09935,-67.98995972,29.31418228,0.6526524,1.1103563,-0.5763798
868,1222457095,163.1717529,-67.06900787,29.45177269,0.46351853,0.97387636,-0.19302273
869,1222473762,163.2712402,-66.1775589,29.6070118,0.68886346,0.4789583,-0.35874557
870,1222490429,163.3096008,-65.33324432,29.7781353,-0.71136475,-0.6140469,-0.027161598
871,1222507096,163.2774506,-64.51914215,29.93375587,-0.91506064,-1.042528,-0.5906429
872,1222523763,163.0692596,-63.65278625,30.06009674,-0.26662856,0.62416035,-0.68780327
873,1222540430,162.9425049,-62.84626007,30.22000504,0.6417657,1.0832607,0.62075615
874,1222557097,163.003006,-62.13794708,30.34623337,0.16862272,-0.018153233,0.4923048
875,1222573764,163.1526337,-61.48365021,30.42879105,-0.4089701,-1.0200782,-0.33154297
876,1222590431,163.2401276,-60.78016663,30.43433571,-0.9883149,-0.47626218,-0.2637787
877,1222607098,163.3697052,-60.0437851,30.47404289,-0.5605887,-0.3805631,0.30131245
878,1222623765,163.4541779,-59.31357574,30.57055473,-0.31427872,0.37065762,0.20826912
879,1222640432,163.6455231,-58.72531128,30.65791893,-0.3798818,0.37132415,0.97076225
880,1222657099,163.9406433,-58.23626328,30.70441818,-0.7460589,-0.3632024,0.7455387
881,1222673766,164.2107239,-57.72723007,30.70852661,-0.61486304,-0.8393363,-0.48790073
882,1222690433,164.325882,-57.15429306,30.72504616,-0.6621153,-0.42121655,-0.3876171
883,1222707100,164.3092651,-56.66762924,30.80126762,-0.7525932,-0.9789779,1.079032
884,1222723767,164.237915,-56.23135757,30.90463257,-0.26867163,-0.13855594,0.5474329
885,1222740434,164.3347168,-55.86279678,30.90159988,-0.2787121,-0.51524377,0.62360954
886,1222757101,164.4220428,-55.51651764,30.8380661,-0.22441179,-0.39773655,0.2668562
887,1222773768,164.4392395,-55.18091583,30.81400299,-0.20869142,-0.410379,0.2977209
888,1222790435,164.4806061,-54.90991211,30.77734756,-0.25012192,-0.58122766,0.3354292
889,1222807102,164.512619,-54.65657806,30.74054718,-0.49333686,-0.20347433,-0.25626087
890,1222823769,164.5898132,-54.41606903,30.73516464,-0.705497,-0.018710492,-0.06565571
891,1222840436,164.7548676,-54.19731903,30.74386597,-0.47852603,0.1179707,0.29967594
892,1222857103,164.927002,-53.99831772,30.75084305,-0.45035738,-0.34904996,0.4692974
893,1222873770,164.981781,-53.8306694,30.75214767,-0.15811226,-0.35221076,0.21235752
894,1222890437,164.9538727,-53.71141434,30.74725151,-0.044949364,-0.41480407,0.45145226
895,1222907104,164.9025879,-53.66865158,30.71537209,-0.35083452,-0.5242549,0.492527
896,1222923771,164.8158722,-53.64520645,30.68795776,-0.7135439,-0.2043471,-0.022802353
897,1222940438,164.7697296,-53.62749863,30.65598297,-0.65873086,-0.063117266,0.03999996
898,1222957105,164.7397308,-53.63169098,30.63785934,-0.36350945,-0.16714925,0.18443203
899,1222973772,164.6352844,-53.69512939,30.65745735,-0.51341295,-0.4182605,0.47312927
900,1222990439,164.5542755,-53.79777527,30.66384697,-0.40200767,-0.39829925,0.39493465
901,1223007106,164.5875244,-53.90950012,30.59194946,-0.03578642,-0.9482142,0.19722843
902,1223023773,164.473938,-54.05859756,30.5108757,-0.41267246,-0.74871284,0.5258074
903,1223040440,164.2968903,-54.26597214,30.45235825,-0.43517599,-0.101220205,0.44145584
904,1223057107,164.2837372,-54.49975204,30.32343102,-0.43737084,-0.19060618,0.22596455
905,1223073774,164.3887024,-54.76654053,30.12845039,-0.44303468,-0.13226053,0.19285583
906,1223090441,164.4593964,-55.03512955,29.97878647,-0.2409387,-0.14890333,0.21855354
907,1223107108,164.4483032,-55.32308578,29.9052124,-0.22646995,-0.42890954,0.3977251
908,1223123775,164.4189148,-55.67017365,29.84425163,-0.25658962,-0.47914496,0.4222622
909,1223140442,164.3776855,-56.08156204,29.76156998,-0.30909085,-0.38000405,0.37713528
910,1223157109,164.2762756,-56.52455902,29.70846176,-0.753186,-0.071509644,0.30064774
911,1223173776,164.1635132,-56.97229767,29.73666,-0.69323426,0.6128318,0.005190849
912,1223190443,164.1643372,-57.44885254,29.8261528,-0.6491968,0.3931805,0.2770357
913,1223207110,164.181427,-57.98899841,29.95141411,-0.8380866,0.006505498,0.6290283
914,1223223777,164.1734467,-58.58850098,30.13740158,-0.68277764,-0.010029823,0.30753708
915,1223240444,164.182373,-59.22960663,30.37286186,-0.60087097,-0.3939749,0.097667694
916,1223257111,164.2057953,-59.93245697,30.58600998,-0.6917335,-0.6966488,0.14664268
917,1223273778,164.2815552,-60.64957428,30.72698975,-0.41369334,-0.6434683,0.17963314
918,1223290445,164.3863983,-61.42885208,30.79629135,-0.4737441,-0.6093746,0.2777586
919,1223307112,164.6203461,-62.24893951,30.77571297,-0.34659675,-0.3813781,0.04719448
920,1223323779,165.0738678,-63.1114006,30.67842674,-0.2584594,-0.5170979,0.0942688
921,1223340446,165.6035309,-64.0103302,30.44522667,-0.37180173,-0.8112553,0.15001106
922,1223357113,166.1518402,-64.98374939,30.08237267,-0.4151568,-1.1049159,-0.19998741
923,1223373780,166.7878876,-65.98066711,29.54395294,-0.34730348,-0.94340026,-0.33145905
924,1223390447,167.6269073,-67.02006531,28.77449036,0.058795754,-0.55528736,-0.03992653
925,1223407114,168.6548767,-68.12685394,27.80907631,0.36153176,-0.34018257,0.109869
926,1223423781,169.68573,-69.21366882,26.64337349,-0.2990971,-0.76007736,-0.11849499
927,1223440448,170.9477997,-70.34020233,25.26433945,-0.5802042,-0.6834143,-0.6322279
928,1223457115,172.5097961,-71.37641144,23.70858574,0.0019044,0.8401841,-0.70753956
929,1223473782,174.2138367,-72.34768677,22.14974976,0.3317581,0.68903583,-0.36614132
930,1223490449,175.9737701,-73.32312012,20.55346489,0.14425834,0.07769601,-0.48927784
931,1223507116,177.8342438,-74.31402588,18.80549431,0.4852926,-0.05080975,-0.7761955
932,1223523783,179.7672729,-75.2720108,16.74548531,-0.18289359,-0.48814315,-0.49211788
933,1223540450,-178.280899,-76.14347076,14.47699547,0.5896141,0.42048916,-1.0511084
934,1223557117,-176.5124817,-76.82266998,12.36221313,1.1737608,1.1705608,-0.949584
935,1223573784,-174.8387451,-77.3891983,10.35668468,1.4415376,1.1087594,-0.33245468
936,1223590451,-173.2959442,-77.93167114,8.426792145,1.1781588,0.7544879,-0.267128
937,1223607118,-171.9887543,-78.41233826,6.698533535,1.1854632,0.9540843,-0.6818981
938,1223623785,-170.9363098,-78.76725006,5.31383419,1.458826,1.3831751,-0.874547
939,1223640452,-170.141922,-78.94850159,4.324864864,1.4529666,1.2407014,-0.39883518
940,1223657119,-169.784729,-79.00731659,3.866665363,1.2836198,1.1064055,0.06547642
941,1223673786,-169.6737213,-79.03710938,3.796737432,1.1128482,0.9190197,0.051607132
942,1223690453,-169.6351776,-79.02635193,3.953431845,0.97210187,0.83000773,-0.26391315
943,1223707120,-169.6725159,-78.94164276,4.31595993,0.6449042,0.39661673,-0.28569412
944,1223723787,-169.7704926,-78.82622528,4.748022079,-0.15789011,-0.22052677,0.07856941
945,1223740454,-169.8643799,-78.69499207,5.145804882,-0.30627635,-0.20228644,0.27982998
946,1223757121,-169.9891663,-78.55430603,5.611700535,-0.11320236,0.1325919,0.28132343
947,1223773788,-170.0862427,-78.43802643,6.017677784,-0.416907,-0.34030446,0.14086533
948,1223790455,-170.037796,-78.36776733,6.208648205,-0.37845123,-0.5895012,-0.2301712
949,1223807122,-169.9448853,-78.29805756,6.257913113,-0.1758303,-0.18630777,-0.22050095
950,1223823789,-169.8791809,-78.23235321,6.276691914,0.012654039,0.030580483,0.08539581
951,1223840456,-169.8918762,-78.20946503,6.340194225,-0.21563219,-0.29877865,0.15071774
952,1223857123,-169.9590912,-78.21096802,6.363581181,-0.19346915,-0.27245837,-0.098254204
953,1223873790,-169.9734192,-78.21555328,6.30428791,-0.096512415,0.03652822,-0.05666256
954,1223890457,-169.9867249,-78.21353912,6.277923584,-0.054650072,0.17291248,0.036185265
955,1223907124,-170.0669403,-78.22012329,6.350493908,-0.041403692,0.06713933,-0.004136086
956,1223923791,-170.0808105,-78.24092865,6.401063919,0.24308537,0.109497935,-0.02585888
957,1223940458,-170.055954,-78.25940704,6.394697189,0.014020702,-0.07907358,0.016856194
958,1223957125,-170.0234833,-78.30587006,6.301103592,-0.15673068,-0.537773,-0.061917305
959,1223973792,-169.9490051,-78.3443985,6.212088585,-0.3033767,-0.037015032,-0.13328266
960,1223990459,-169.8354492,-78.39863586,6.149607182,-0.29944825,0.014212239,0.018138885
961,1224007126,-169.6880035,-78.45875549,6.061961651,-0.15798247,0.112675115,0.10365677
962,1224023793,-169.6003418,-78.52901459,6.034477234,-0.107462004,-0.007769255,0.15220451
963,1224040460,-169.5091248,-78.62094116,5.960840225,-0.20238748,-0.3240636,0.10257435
964,1224057127,-169.417984,-78.71240234,5.803617001,-0.15988214,-0.32026282,-0.100577354
965,1224073794,-169.3319092,-78.80654907,5.559614182,-0.15903048,-0.11123306,-0.094368935
966,1224090461,-169.1980133,-78.89862061,5.288177967,-0.06506839,0.12996998,0.016896248
967,1224107128,-169.0725555,-79.00514221,5.076178551,-0.10305918,0.12358931,0.10220432
968,1224123795,-169.0123444,-79.11557007,4.969097137,-0.03909824,0.20159802,-0.041915894
969,1224140462,-169.0466156,-79.22899628,5.002234936,-0.11455251,0.26998696,-0.09505081
970,1224157129,-169.1178284,-79.33751678,5.12576437,-0.008096023,0.08897526,-0.038485527
971,1224173796,-169.2563477,-79.45243835,5.276660919,0.04994435,-0.23475587,0.10215855
972,1224190463,-169.4833679,-79.54576874,5.394552708,0.4374772,-0.30937114,-0.15438175
973,1224207130,-169.7186432,-79.61952209,5.338005543,0.41863328,-0.5299092,-0.23073483
974,1224223797,-169.9621429,-79.6879425,5.127518654,0.24040176,-0.27036864,-0.105101585
975,1224240464,-170.352005,-79.73191071,5.064331532,0.3023866,0.7662764,0.04445839
976,1224257131,-171.0870819,-79.71296692,5.520919323,0.6352601,1.3986931,-0.05673504
977,1224273798,-172.0152435,-79.66911316,6.377935886,0.48231918,0.5616311,-0.21050644
978,1224290465,-172.8847961,-79.61917114,7.146558285,0.13884236,-0.40003926,-0.15651035
979,1224307132,-173.7419128,-79.58342743,7.756602764,-0.08846268,-0.26971856,-0.011187553
980,1224323799,-174.9386292,-79.48532104,8.717255592,0.3293809,1.3807487,-0.09518337
981,1224340466,-176.6081848,-79.21217346,10.51780033,0.8079211,3.4354196,0.015433311
982,1224357133,-178.4597778,-78.79580688,13.06745434,0.9324194,2.9671812,0.060917854
983,1224373800,179.9001617,-78.3776474,15.65503597,0.637675,-0.21507707,-0.27253246
984,1224390467,178.3651581,-77.94059753,17.87386513,0.6343486,-2.41794,-0.6794796
985,1224407134,176.9697266,-77.47682953,19.34832191,0.5668019,-3.345271,-0.489192
986,1224423801,175.7118225,-76.97266388,19.95033455,0.35100424,-2.5882037,0.14144039
987,1224440468,174.4741821,-76.43318176,20.15598679,0.6793712,-0.076368175,0.11254406
988,1224457135,173.4643707,-75.84266663,20.41135979,1.3644558,1.5104531,-0.44495583
989,1224473802,172.8892822,-75.21807098,20.66028595,1.4014975,0.8239229,-0.8375149
990,1224490469,172.3540955,-74.58761597,20.9261055,0.48721394,-0.43536842,-0.6637497
991,1224507136,171.4034119,-73.885849,21.3769207,0.03159799,0.26283112,-0.47577286
992,1224523803,170.1540222,-73.07614899,22.12438011,0.42774993,2.2366657,-0.52486134
993,1224540470,169.1153564,-72.16300964,23.12227821,1.0286542,3.584348,-0.5859232
994,1224557137,168.526413,-71.1955719,24.33715248,0.90626985,1.9170185,-0.7217512
995,1224573804,168.3359222,-70.23970795,25.47504044,0.23032543,-1.3220894,-0.6267834
996,1224590471,168.1314545,-69.3117218,26.24264717,-0.5555489,-3.7162223,-0.17562962
997,1224607138,167.589035,-68.41607666,26.52648544,-0.14082201,-2.0298064,-0.38928413
998,1224623805,166.8973389,-67.51164246,26.61893654,0.33935398,0.95381117,-0.21331787
999,1224640472,166.49823,-66.60635376,26.82203865,1.4005599,2.722332,-0.5574837
1000,1224657139,166.5175323,-65.71212006,27.25600815,0.24649645,1.7434498,-0.33699226
1001,1224673806,166.7736664,-64.86755371,27.76813698,-0.792955,-0.8745273,0.029450417
1002,1224690473,167.0123138,-64.05007172,28.07068825,-1.3217207,-2.4631007,0.031167984
1003,1224707140,166.929657,-63.13630295,28.17688942,-0.3566076,-1.1680586,-0.5249214
1004,1224723807,166.6069183,-62.13772202,28.25831795,0.37773645,-0.31606153,0.1869278
1005,1224740474,166.4537964,-61.2816124,28.21412277,0.8207793,-0.85806274,0.47991848
1006,1224757141,166.3123474,-60.6337204,28.15548325,-0.80287695,-1.1376661,0.5134697
1007,1224773808,166.2767944,-60.07806396,28.09177017,-1.2279038,-0.02453795,-0.30933857
1008,1224790475,166.4551086,-59.39598846,28.02384949,-0.77596575,0.72295165,-0.42081165
1009,1224807142,166.7598419,-58.62014008,27.97013664,0.51495194,0.6068939,-0.40385628
1010,1224823809,166.9923096,-57.92023087,27.97458267,-0.1883663,-0.5389697,0.79934216
1011,1224840476,167.0783691,-57.40152359,27.93569183,-0.843081,-0.96410793,1.1903639
1012,1224857143,167.1289063,-56.93310165,27.83279037,-1.5407169,-0.43551674,0.47836876
1013,1224873810,167.2612915,-56.43149185,27.72311401,-1.1514615,0.069467075,-0.4413147
1014,1224890477,167.2954254,-55.88304901,27.74137688,-0.516311,1.0375044,-0.035668373
1015,1224907144,167.1625519,-55.44786072,27.92840195,-0.6613102,0.41730818,0.7468586
1016,1224923811,167.0418396,-55.09067535,28.2120266,-1.1719735,0.24111988,0.24693394
1017,1224940478,167.0372162,-54.75735855,28.46170807,-1.1155561,0.054518778,0.14395046
1018,1224957145,166.9763489,-54.4025116,28.68650436,-0.2987642,-0.08919022,0.4123764
1019,1224973812,166.6022644,-54.08052444,29.0488224,-0.3616994,-0.5985068,0.7734041
1020,1224990479,166.139267,-53.79011917,29.45903969,-0.0969296,0.04064635,0.11205101
1021,1225007146,165.9003601,-53.56648254,29.74791336,0.19945416,-0.20580138,0.05226803
1022,1225023813,165.7446899,-53.37356949,29.96733665,-0.48029593,-0.7335101,0.123129845
1023,1225040480,165.5979309,-53.16388321,30.19734192,-0.60854477,-0.39429244,-0.034124374
1024,1225057147,165.5176086,-52.9569664,30.42138672,0.10954111,0.035452683,0.009898186
1025,1225073814,165.4324951,-52.76873016,30.62482071,0.03021933,-0.45939773,0.090991974
1026,1225090481,165.3619232,-52.59924698,30.79010773,0.040396012,-0.45840955,-0.12722588
1027,1225107148,165.3263092,-52.47458267,30.90710831,0.08933871,-0.35524994,0.36667538
1028,1225123815,165.2820587,-52.39011765,30.99136925,-0.097964264,-0.62027705,0.5491581
1029,1225140482,165.1200562,-52.30050278,31.08016205,-0.21816158,-0.56686115,0.13224602
1030,1225157149,164.9515381,-52.20181656,31.13576698,-0.26678044,-0.37332812,0.002677918
1031,1225173816,164.7605591,-52.13286972,31.17408752,-0.11455034,0.2833285,0.2222166
1032,1225190483,164.7061462,-52.13017273,31.22724915,-0.3953893,0.28795704,0.34178543
1033,1225207150,164.7713318,-52.14018631,31.26893425,-0.5835625,-0.14398466,0.066137314
1034,1225223817,164.7960205,-52.14522934,31.29892921,-0.4482851,-0.029577645,0.25262642
1035,1225240484,164.7595367,-52.18450165,31.34634399,-0.22443943,-0.30373824,0.6759167
1036,1225257151,164.6898499,-52.26156235,31.40132713,-0.35001284,-0.6168248,0.4129696
1037,1225273818,164.6409607,-52.38406372,31.38876343,-0.23837294,-1.0562168,0.20804214
1038,1225290485,164.4354858,-52.57298279,31.33304214,-0.69349813,-0.7193975,0.45910263
1039,1225307152,164.1426392,-52.81771851,31.32910538,-0.7343878,0.65874237,0.23323631
1040,1225323819,164.081192,-53.07775879,31.37546158,-0.5129591,0.9199112,-0.090945244
1041,1225340486,164.1753387,-53.34050751,31.4753418,-0.3443376,0.05401552,0.07732487
1042,1225357153,164.1767883,-53.612854,31.64656448,-0.22867708,-0.5935099,0.30392456
1043,1225373820,164.0039215,-53.9037323,31.84353828,-0.08064828,-0.8256591,0.5705004
1044,1225390487,163.7698517,-54.24410629,31.98796463,0.06838885,-0.7267604,0.5630617
1045,1225407154,163.5591888,-54.64796829,32.07084274,-0.20116073,-0.5931424,0.36445522
1046,1225423821,163.4101257,-55.12017059,32.12747192,-0.5593434,-0.59035563,0.18550968
1047,1225440488,163.3652496,-55.61569214,32.17378235,-0.59043247,-0.24743599,0.18632698
1048,1225457155,163.4262848,-56.16769409,32.20989609,-0.4752237,-0.13762316,0.53509617
1049,1225473822,163.5830078,-56.77443314,32.27189255,-0.6081981,-0.169465,0.50115013
1050,1225490489,163.8437653,-57.4248848,32.33422852,-0.5836932,-0.59653294,0.3665867
1051,1225507156,164.133667,-58.13456726,32.3586731,-0.5814151,-0.708778,0.44341278
1052,1225523823,164.4054413,-58.88602066,32.31676102,-0.4609422,-0.82424897,0.22201252
1053,1225540490,164.6086578,-59.69017029,32.23632813,-0.6217693,-0.70968676,0.13761616
1054,1225557157,164.8041687,-60.56175995,32.12106705,-0.670749,-0.36514673,0.21453476
1055,1225573824,165.090744,-61.52018356,31.9869175,-0.7133636,-0.36531875,0.3001871
1056,1225590491,165.4751282,-62.5395546,31.8112278,-0.74086666,-0.39808863,0.06476879
1057,1225607158,165.9735718,-63.60341263,31.55303192,-0.61099637,-0.84824234,0.052495003
1058,1225623825,166.5195465,-64.70285034,31.18606377,-0.46393132,-0.977775,-0.009616852
1059,1225640492,167.1165619,-65.78469086,30.71183395,0.111989565,-0.28174216,-0.43980598
1060,1225657159,167.9203644,-66.84617615,30.07741165,0.34757474,-0.33276212,-0.5472088
1061,1225673826,168.9785919,-67.9319458,29.20812988,0.18462262,-0.7059952,-0.4535303
1062,1225690493,170.1413727,-69.03398895,28.19208336,0.1036938,-0.3527767,-0.68649864
1063,1225707160,171.40802,-70.10459137,26.99991798,0.15277964,0.16355197,-0.4981928
1064,1225723827,172.8125916,-71.16547394,25.66106987,0.11497561,0.15236945,-0.19518757
1065,1225740494,174.1609344,-72.19002533,24.29271698,-0.0955848,0.13872471,-0.58833027
1066,1225757161,175.2957153,-73.21099854,22.92481232,-0.30520868,-0.07551464,-0.744627
1067,1225773828,176.3060455,-74.20950317,21.54056549,-0.28647092,0.34628844,-0.5608225
1068,1225790495,177.2340546,-75.15281677,20.2159977,0.28105646,1.1142808,-0.7849207
1069,1225807162,178.1253357,-75.99108887,19.0701828,0.8197278,1.8275543,-0.6639042
1070,1225823829,178.9195099,-76.74147797,18.13154221,0.83094585,0.96562344,-0.49995327
1071,1225840496,179.5494385,-77.44568634,17.35354042,0.90145373,0.55829155,-0.61587524
1072,1225857163,-179.9012146,-78.08971405,16.71314621,0.5948333,0.6101081,-0.5605364
1073,1225873830,-179.342926,-78.68180847,16.16142464,0.42525318,0.66066164,-0.25927544
1074,1225890497,-178.8329163,-79.18467712,15.77754593,0.4255524,0.6426288,0.11018467
1075,1225907164,-178.3370819,-79.64511871,15.53685474,0.58090293,0.51926214,0.1702528
1076,1225923831,-177.8231049,-80.06879425,15.3113842,0.5534984,0.24375217,-0.057994843
1077,1225940498,-177.3261108,-80.45140839,15.09498978,0.6469382,-0.08273014,-0.22692108
1078,1225957165,-176.6328125,-80.7855072,14.65095615,0.7778298,-0.4188058,-0.119719505
1079,1225973832,-175.6838989,-81.08919525,13.81811142,0.6511874,-0.56390756,0.08649635
1080,1225990499,-174.4715271,-81.36293793,12.61838627,0.60370797,-0.27490273,0.07353592
1081,1226007166,-173.1965027,-81.60172272,11.37301826,0.678287,0.22593997,-0.19197941
1082,1226023833,-171.9859772,-81.78971863,10.28100491,0.7311036,0.49311212,-0.38098717
1083,1226040500,-170.9248657,-81.92644501,9.406592369,0.7325415,0.62905437,-0.35482693
1084,1226057167,-170.0895386,-81.99964905,8.76997757,0.81043375,0.6320471,-0.3399744
1085,1226073834,-169.5281677,-82.03068542,8.330211639,0.73413074,0.25149414,-0.18414593
1086,1226090501,-169.2325897,-82.02636719,7.998249054,0.6173133,0.102076635,-0.12048721
1087,1226107168,-169.1850128,-81.98258972,7.795351505,0.4225464,0.31620052,-0.16164112
1088,1226123835,-169.3509827,-81.91369629,7.794628143,0.29535985,0.36997205,-0.096343994
1089,1226140502,-169.6389771,-81.82910919,7.931692123,0.18581867,0.28016242,-0.03829956
1090,1226157169,-169.9460754,-81.74971771,8.04573822,0.1224314,0.114082076,0.060098648
1091,1226173836,-170.2072754,-81.68294525,8.00892067,0.09967599,-0.16401191,0.086304665
1092,1226190503,-170.4251556,-81.62534332,7.874573708,-0.17821307,-0.24659027,0.07017517
1093,1226207170,-170.4505768,-81.58783722,7.569114208,-0.3987792,-0.17224936,0.10419941
1094,1226223837,-170.3746796,-81.56350708,7.247848511,-0.32496026,0.026756288,0.014555931
1095,1226240504,-170.3333893,-81.53626251,7.108456135,-0.22289525,0.1863679,-0.009355545
1096,1226257171,-170.2325134,-81.51504517,7.066836357,-0.027790051,0.21344163,0.07788658
1097,1226273838,-170.1013184,-81.5114975,7.085112095,0.14234099,0.18908872,0.015254974
1098,1226290505,-170.0276642,-81.50104523,7.214758873,0.2124458,0.14085245,-0.17855835
1099,1226307172,-170.0457001,-81.47509766,7.448246479,0.23306651,-0.0800563,-0.15625858
1100,1226323839,-170.0359497,-81.44120026,7.58216238,0.19253214,-0.30013293,0.020329475
1101,1226340506,-170.0092773,-81.41205597,7.596802711,0.15215334,-0.2941444,0.11962795
1102,1226357173,-169.9904785,-81.3850708,7.575353622,0.14939412,-0.10644944,0.039800644
1103,1226373840,-169.966629,-81.35818481,7.581883907,0.041163772,-0.018584544,-0.10540104
1104,1226390507,-169.8470306,-81.35223389,7.520682812,-0.25542647,-0.34566858,-0.014182091
1105,1226407174,-169.5372772,-81.39141083,7.295714378,-0.58375895,-0.5665291,0.20214748
1106,1226423841,-169.043045,-81.46974945,6.926186562,-0.6824924,-0.3980841,0.20696068
1107,1226440508,-168.4025421,-81.57958221,6.488398075,-0.7200415,-0.019735467,0.0772686
1108,1226457175,-167.7007294,-81.71639252,6.022871017,-0.5283968,-0.012367363,-0.21541977
1109,1226473842,-166.9285736,-81.86989594,5.348685741,-0.13712363,-0.3577829,-0.34287262
1110,1226490509,-166.0930786,-82.00569153,4.245766163,0.2594405,-0.43701595,-0.22264099
1111,1226507176,-165.2506104,-82.13533783,2.902845383,0.5009302,-0.411902,-0.20914364
1112,1226523843,-164.6325226,-82.21076965,1.709746242,0.5002756,0.20339115,-0.22015476
1113,1226540510,-164.3464813,-82.23656464,0.935762167,0.6443287,0.7565311,-0.16775417
1114,1226557177,-164.4990997,-82.22660828,0.780919254,0.8358793,0.89389557,-0.22814274
1115,1226573844,-165.0707397,-82.1584549,1.200468421,0.9302764,0.6516582,-0.20755863
1116,1226590511,-165.8349304,-82.03186035,1.877582788,0.73388976,0.2884019,-0.04258156
1117,1226607178,-166.6859131,-81.86093903,2.563059568,0.47596356,-0.07792533,-0.007023811
1118,1226623845,-167.5869598,-81.66718292,3.274626255,0.4482777,-0.035151605,-0.14782333
1119,1226640512,-168.4712524,-81.44732666,4.020439148,0.68544286,0.006025909,-0.100839615
1120,1226657179,-169.153656,-81.21115112,4.58454895,0.54574347,-0.2726826,0.24420547
1121,1226673846,-169.7615662,-81.00623322,5.003209591,-0.28317365,-0.26628628,0.32075024
1122,1226690513,-170.3792725,-80.83374786,5.515625954,-0.60056293,0.6003191,-0.28573895
1123,1226707180,-171.0037537,-80.64232635,6.266796589,-0.27455705,0.5836502,-0.5759382
1124,1226723847,-171.6776733,-80.43016052,7.080276012,0.07875842,-0.20439439,-0.15657425
1125,1226740514,-172.5028687,-80.16490936,7.9220891,0.9319721,-0.12705895,0.2729473
1126,1226757181,-173.6934967,-79.83616638,9.010668755,1.2489476,0.37507272,0.39603043
1127,1226773848,-175.3339844,-79.49900818,10.40229511,0.19799002,0.7172738,0.16193676
1128,1226790515,-177.0870209,-79.16702271,11.92229748,-0.22557625,0.92869925,-0.6383114
1129,1226807182,-178.7633667,-78.78392029,13.53554535,0.12400937,0.7858262,-0.8483858
1130,1226823849,179.4847717,-78.25263214,15.31692123,1.0492824,0.86872476,-0.3525257
1131,1226840516,177.582077,-77.55292511,17.16401672,1.4966527,0.52404463,0.19462395
1132,1226857183,175.6791229,-76.77723694,18.80965042,1.3435389,0.5361424,-0.06693649
1133,1226873850,173.9136353,-75.95225525,20.31016922,1.2236208,0.9068098,-0.72449684
1134,1226890517,172.3582153,-75.05046082,21.82526779,0.8768112,0.9587854,-0.99561024
1135,1226907184,170.9398499,-74.01783752,23.3764019,0.6283904,0.87028724,-0.96013355
1136,1226923851,169.6598511,-72.86927032,24.88142967,0.8606361,0.87915957,-0.78667927
1137,1226940518,168.6150818,-71.73574829,26.15740585,0.33058298,0.2513999,-0.5834904
1138,1226957185,167.7258453,-70.73847961,27.3122406,-0.54212207,-1.4681865,-0.1513195
1139,1226973852,166.8330994,-69.81723022,28.29118729,-1.3346342,-2.092876,-0.008019447
1140,1226990519,166.0219879,-68.85948181,28.99431038,-0.42671323,-0.43809298,-0.5796461
1141,1227007186,165.3647766,-67.76688385,29.5195446,0.9106485,2.2599103,-1.1103792
1142,1227023853,164.928421,-66.68911743,30.21474648,0.502971,2.134098,-0.1772461
1143,1227040520,164.5215607,-65.72796631,31.20042992,-0.95187706,0.41025424,0.43954468
1144,1227057187,164.0906677,-64.83377075,32.33436203,-1.4662702,-0.7368057,-0.28167439
1145,1227073854,164.0016479,-63.83771515,33.14981842,-0.4655708,-0.28470445,-1.3697653
1146,1227090521,164.1038055,-62.69824982,33.64925385,0.36048388,-0.6229431,-0.66785145
1147,1227107188,164.0219727,-61.62065506,34.04145432,0.3363975,-1.4789957,0.6468315
1148,1227123855,163.7383118,-60.76049042,34.3831749,-0.05261488,-1.8625355,1.4100332
1149,1227140522,163.4172974,-60.11569214,34.65140152,-0.80884475,-1.3558446,1.256566
1150,1227157189,163.2054901,-59.4944458,34.7522049,-0.31013006,-0.064268105,-0.62211514
1151,1227173856,163.152359,-58.7277298,34.84593582,-1.0937381,0.1519939,-1.346055
1152,1227190523,163.3983154,-57.88948822,34.9978981,-0.7815685,-0.9461012,-0.18573761
1153,1227207190,163.8010864,-57.18569183,35.05412292,-0.27690664,-2.0917954,1.6142426
1154,1227223857,164.0058441,-56.67789459,34.90420532,0.22946991,-2.2344067,1.738204
1155,1227240524,163.9978027,-56.26003265,34.62556076,-0.42295775,-1.8386217,0.29829788
1156,1227257191,164.0124359,-55.81148148,34.23932648,-0.21827018,-0.5289825,-0.64654446
1157,1227273858,164.1813812,-55.42934036,33.79418564,0.055376712,0.123666406,0.69032955
1158,1227290525,164.4238281,-55.18535233,33.3885231,-1.0009124,-0.059181202,1.263236
1159,1227307192,164.7041016,-54.91775513,33.11857605,-1.3541421,0.7786901,-0.39513016
1160,1227323859,165.1265259,-54.56726837,32.97116089,-0.96583414,0.9673697,-0.2089901
1161,1227340526,165.4004822,-54.24070358,32.93649673,-0.52831227,0.33278453,0.6606407
1162,1227357193,165.4500732,-54.00236511,33.00579834,-0.64896715,-0.1103945,0.5494604
1163,1227373860,165.4687347,-53.86463547,33.07543945,-0.4916696,-0.1708834,0.46501923
1164,1227390527,165.4211578,-53.78424454,33.13395309,-0.6880884,-0.52305096,0.71807575
1165,1227407194,165.1969299,-53.6751442,33.23547363,-0.32415968,-0.37465474,-0.04536915
1166,1227423861,164.8681946,-53.5350914,33.37678909,0.4076554,0.07122647,-0.2530117
1167,1227440528,164.4770508,-53.45744705,33.53534317,0.33418506,-0.032057628,0.31787777
1168,1227457195,164.0618591,-53.42909241,33.71171188,-0.19029236,0.20017567,-0.17099571
1169,1227473862,163.963501,-53.43657303,33.80892944,-0.19612072,0.5643798,-0.4283104
1170,1227490529,164.2136841,-53.43668365,33.77225494,-0.36935368,0.32933483,0.4490652
1171,1227507196,164.3888855,-53.3886795,33.79575729,-0.38074744,0.14894666,-0.14185238
1172,1227523863,164.4427948,-53.28447342,33.95604324,0.030073809,0.4023584,-0.2514782
1173,1227540530,164.5070038,-53.21206665,34.12488174,0.23045075,-0.04437216,0.23503017
1174,1227557197,164.5249634,-53.18476868,34.24741745,0.11958249,-0.2178318,-0.062701225
1175,1227573864,164.4960022,-53.18540955,34.3524971,-0.21777572,-0.26650342,0.365489
1176,1227590531,164.3584595,-53.16370392,34.47428513,-0.28893805,-0.38757527,0.28484726
1177,1227607198,164.1613312,-53.08792496,34.61531067,0.05353691,-0.444263,-0.36716652
1178,1227623865,164.0099792,-53.0325737,34.68102264,0.41891032,-0.6907239,0.22317505
1179,1227640532,163.7454834,-53.06339264,34.71443558,0.23721243,-0.31743193,0.5339155
1180,1227657199,163.6278687,-53.12359619,34.74075317,-0.27427712,-0.24607036,-0.0986166
1181,1227673866,163.7306824,-53.13700485,34.70375061,-0.4235733,-0.11911433,-0.7342968
1182,1227690533,163.9918671,-53.13508224,34.64278793,-0.041060597,0.1222296,0.05771351
1183,1227707200,164.2863159,-53.18007278,34.58273315,0.2804438,-0.08532729,0.74470425
1184,1227723867,164.5435791,-53.26317215,34.52593231,-0.15686533,-0.663967,0.5489702
1185,1227740534,164.71521,-53.35512924,34.47210693,-0.5366218,-0.6354851,-0.14561367
1186,1227757201,164.8296967,-53.46204758,34.41265869,-0.4399373,-0.34790438,0.22385406
1187,1227773868,164.9253693,-53.63208008,34.32411957,0.02057904,-0.002526367,0.564311
1188,1227790535,165.0978088,-53.9162178,34.15841293,0.2026508,-0.15062438,0.67880154
1189,1227807202,165.3303223,-54.26990509,33.86821365,-0.28898904,-0.70070183,0.92473507
1190,1227823869,165.5654297,-54.64229965,33.52875137,-0.5666961,-0.9761048,0.028012276
1191,1227840536,165.8140411,-54.95202637,33.16287994,-0.7685217,-1.0041481,-0.2907076
1192,1227857203,166.1526794,-55.30900955,32.70717239,-0.39742354,-1.2486149,0.15776443
1193,1227873870,166.6023407,-55.75507736,32.12557602,0.07396289,-0.5892031,0.56585884
1194,1227890537,167.2683868,-56.3575058,31.41884232,0.78154343,-0.076328814,0.7415819
1195,1227907204,167.9388275,-57.0488472,30.7170372,-0.61898434,-0.6982628,1.1567564
1196,1227923871,168.4147644,-57.75849915,30.12729836,-1.4427398,-0.74690044,-0.3505659
1197,1227940538,168.8194885,-58.42168808,29.6772995,-1.9420635,0.21225868,-0.5270548
1198,1227957205,169.1733856,-59.11943436,29.35079193,-1.6626003,0.3363082,0.5037651
1199,1227973872,169.4798584,-59.92022705,29.11068916,-1.035907,0.4633376,0.67917347
1200,1227990539,169.8093719,-60.84426117,28.89701843,-0.24321741,0.46848702,0.839077
1201,1228007206,170.0240173,-61.86232758,28.5960598,-0.495179,-0.7682203,0.9830828
1202,1228023873,169.9693451,-62.93663025,28.27538872,-1.128637,-1.7158543,-0.34418774
1203,1228040540,169.9535217,-63.92754745,27.86455536,-1.1421689,-0.3787672,-1.2219067
1204,1228057207,170.1189117,-64.90206146,27.37692451,-0.5783691,0.50762033,0.023522377
1205,1228073874,170.6494446,-65.97103882,26.77275658,0.17509033,0.5865845,0.55846214
1206,1228090541,171.4844818,-67.17925262,26.1362133,-0.002213072,-0.22097753,0.5635729
1207,1228107208,172.3993683,-68.49028015,25.38789749,-0.5725729,-0.9714358,-0.0742178
1208,1228123875,173.451767,-69.78957367,24.45586586,-0.69439787,-0.79279053,-1.2896509
1209,1228140542,174.5832367,-70.93452454,23.42549515,-0.5126797,0.23853733,-1.2237282
1210,1228157209,175.6878967,-71.9992218,22.47697449,-0.17408703,0.97329366,-0.52777004
1211,1228173876,176.6793671,-73.03646851,21.70028687,0.42612493,1.4423836,-0.5659504
1212,1228190543,177.4852142,-74.0320282,21.15896797,0.8006004,1.1935744,-0.7439909
1213,1228207210,178.1461639,-74.99060822,20.65716362,0.9083093,0.13798562,-1.073803
1214,1228223877,178.7440643,-75.85834503,20.06784058,1.0406233,-0.63247997,-1.0308723
1215,1228240544,179.1989594,-76.60173798,19.35491753,1.1125506,-0.53634775,-0.4421177
1216,1228257211,179.4958496,-77.2817688,18.56938171,0.9120736,0.07026616,0.02410984
1217,1228273878,179.8353882,-77.9190979,17.80054283,0.72134215,0.6562404,0.005731583
1218,1228290545,-179.6972351,-78.51573181,17.08169556,0.6537055,1.1606762,-0.29996777
1219,1228307212,-179.1333466,-79.03658295,16.52595329,0.4530581,1.1902336,-0.4003811
1220,1228323879,-178.6952667,-79.47561646,16.34596252,0.46704218,0.8914724,-0.2849865
1221,1228340546,-178.4408569,-79.85019684,16.49581718,0.58674866,0.35871735,-0.084667206
1222,1228357213,-178.2122803,-80.22399139,16.56891251,0.20997818,-0.4331196,0.1740799
1223,1228373880,-177.7295227,-80.61158752,16.26695251,0.19460957,-0.8154395,-0.02681923
1224,1228390547,-176.9239502,-80.97905731,15.53519058,0.23301002,-0.40446743,-0.11014652
1225,1228407214,-175.8809662,-81.31393433,14.5280962,0.34052557,-0.12541899,0.008169174
1226,1228423881,-174.8331604,-81.616745,13.50162888,0.56875587,0.1596272,-0.13516808
1227,1228440548,-173.9052429,-81.87580872,12.64286518,0.8079035,0.412312,-0.3659315
1228,1228457215,-173.0619659,-82.06276703,11.95652103,1.0334791,0.4696837,-0.47534943
1229,1228473882,-172.2531738,-82.17727661,11.34243011,1.1058403,0.3079713,-0.28083706
1230,1228490549,-171.6114349,-82.22988892,10.83760071,1.0973525,0.2885279,-0.1595211
1231,1228507216,-171.2155609,-82.23888397,10.48004246,0.9580733,0.19192074,-0.19821358
1232,1228523883,-170.9500427,-82.20963287,10.13938141,0.6864984,0.10103138,-0.22019482
1233,1228540550,-170.7977753,-82.14055634,9.847338676,0.46953902,0.24967358,-0.10986042
1234,1228557217,-170.6791382,-82.04924774,9.606684685,0.31949997,0.14427622,0.06933594
1235,1228573884,-170.5876312,-81.95919037,9.376254082,0.012728867,-0.12308272,0.075408936
1236,1228590551,-170.4732971,-81.87960815,9.100082397,-0.10377398,-0.07169569,0.036803246
1237,1228607218,-170.2754059,-81.79270935,8.825517654,-0.060152784,0.1932787,0.12125969
1238,1228623885,-170.0447998,-81.70617676,8.653764725,-0.039092164,0.28991395,0.093616486
1239,1228640552,-169.8542328,-81.62251282,8.618392944,0.038161665,0.23889723,-0.045215607
1240,1228657219,-169.7206268,-81.54148865,8.671406746,0.028225817,0.07641595,-0.10270023
1241,1228673886,-169.6259155,-81.46026611,8.739850044,0.015628416,-0.1400892,-0.09861183
1242,1228690553,-169.515564,-81.38195038,8.729248047,-0.040776398,-0.28892496,0.036345482
1243,1228707220,-169.3704987,-81.31475067,8.607768059,0.003544315,-0.20547953,0.07968521
1244,1228723887,-169.2552795,-81.25832367,8.455726624,-0.039043102,-0.16912767,0.057081223
1245,1228740554,-169.1570892,-81.21041107,8.305820465,-0.05081412,-0.08540452,-0.0894146
1246,1228757221,-169.0551605,-81.16440582,8.183361053,-0.050535496,0.12482707,-0.105929375
1247,1228773888,-168.9590607,-81.11486816,8.143810272,0.018308043,0.25276387,-0.015566826
1248,1228790555,-168.918869,-81.06768036,8.217137337,0.08546244,0.20013887,-0.009314537
1249,1228807222,-168.9509125,-81.02130127,8.351504326,0.1897999,0.034484472,-0.035707474
1250,1228823889,-168.9996796,-80.95101929,8.495619774,0.4917736,0.18027343,-0.047068596
1251,1228840556,-169.0554657,-80.83230591,8.677555084,0.7795777,0.38021505,0.029881477
1252,1228857223,-169.2482147,-80.68295288,9.005988121,0.7807206,0.3007705,-0.040257454
1253,1228873890,-169.6117401,-80.51116943,9.492665291,0.62417513,0.15825063,-0.28181553
1254,1228890557,-170.0864258,-80.29141235,10.09692478,0.37555647,0.29109412,-0.35063553
1255,1228907224,-170.5365753,-80.0490036,10.68144035,0.111313924,0.15002732,-0.12367344
1256,1228923891,-170.9614868,-79.80796814,11.17901993,-0.06770657,-0.2043175,0.13857841
1257,1228940558,-171.4039001,-79.57181549,11.61403847,-0.14375685,-0.26826552,0.031214714
1258,1228957225,-171.8206177,-79.34458923,11.99081993,-0.3209111,-0.17132547,-0.09948254
1259,1228973892,-172.1938171,-79.13235474,12.33697414,-0.3876067,-0.16472016,-0.15841389
1260,1228990559,-172.5531769,-78.93989563,12.69175816,-0.3332815,-0.1862025,-0.21125793
1261,1229007226,-172.8836365,-78.76300812,13.03535271,-0.24104196,-0.21832964,-0.18231964
1262,1229023893,-173.2415619,-78.5835495,13.41957188,-0.007108871,0.024399847,-0.22794151
1263,1229040560,-173.6649933,-78.36937714,13.90729523,0.5183429,0.28489727,-0.30233097
1264,1229057227,-174.1217499,-78.11227417,14.40639782,0.7159327,-0.047095243,-0.31566143
1265,1229073894,-174.6185455,-77.83123779,14.84105492,0.66752976,-0.49438673,-0.23065281
1266,1229090561,-175.2003326,-77.55825043,15.21995163,0.041935604,-0.46814787,-0.08841801
1267,1229107228,-175.8987122,-77.27179718,15.63354969,-0.11529308,0.13314001,-0.24222565
1268,1229123895,-176.5707245,-76.95500183,16.05315399,0.35260147,0.53592926,-0.35766125
1269,1229140562,-177.2904968,-76.58888245,16.49265099,0.64020175,0.74086154,0.054343224
1270,1229157229,-178.1314392,-76.19715881,17.04276466,0.4651015,0.64226484,0.4147005
1271,1229173896,-179.2080078,-75.82008362,17.75841331,-0.45827582,0.35857603,0.4150896
1272,1229190563,179.7488098,-75.4785614,18.53864288,-0.7080436,0.14623213,-0.14050865
1273,1229207230,178.7493744,-75.12006378,19.37790489,-0.406478,0.21179925,-0.4669447
1274,1229223897,177.7592468,-74.7567749,20.23822403,-0.23565292,0.087268285,-0.24010468
1275,1229240564,176.6937866,-74.36746979,21.14644623,0.45917907,0.35565665,-0.09821129
1276,1229257231,175.4086761,-73.96731567,22.10956192,0.59870964,0.36397877,-0.14798832
1277,1229273898,174.0565796,-73.54924011,23.04148293,0.09250802,0.16026092,-0.320652
1278,1229290565,172.8423004,-73.08817291,23.98505402,0.194652,0.3366569,-0.4928398
1279,1229307232,171.698822,-72.49830627,24.9522171,0.9332121,0.41957897,-0.29587364
1280,1229323899,170.6347046,-71.84165955,25.78658295,1.0759289,-0.31995746,-0.17801952
1281,1229340566,169.6298065,-71.19710541,26.41870308,0.5172441,-0.9252464,-0.04113102
1282,1229357233,168.614563,-70.54496765,26.92057991,0.42811465,-0.2881768,-0.22343063
1283,1229373900,167.6483154,-69.83396912,27.38817406,0.32288536,0.86644536,-0.5704918
1284,1229390567,167.1341095,-69.02889252,27.83867645,0.8417234,1.3293976,-1.1758356
1285,1229407234,167.0495453,-68.12303162,28.24522781,0.7028017,0.8352882,-0.8159828
1286,1229423901,167.2210693,-67.21494293,28.58327866,0.53374356,-0.6497112,0.057723045
1287,1229440568,167.3333435,-66.35772705,28.76297188,0.20629916,-1.1628472,0.21499252
1288,1229457235,167.4373016,-65.5532608,28.79994774,-0.08573517,-1.1790998,-0.2305708
1289,1229473902,167.5308533,-64.78746033,28.74700928,-0.34228677,-0.39179862,-0.084038734
1290,1229490569,167.5801392,-64.10548401,28.7395134,-1.1328105,-0.36239618,0.1785307
1291,1229507236,167.560318,-63.4582901,28.88464546,-1.3044684,0.15673748,-0.3424425
1292,1229523903,167.7191467,-62.73938751,29.05130196,-0.49224338,1.0103325,-0.9350395
1293,1229540570,168.0713959,-61.97587967,29.20078278,0.18764089,0.8875721,-0.40049076
1294,1229557237,168.2901459,-61.26084137,29.41331863,-0.20683892,-0.29007217,0.6358576
1295,1229573904,168.1074066,-60.66385651,29.7326088,-0.9846968,-1.1354327,0.92231846
1296,1229590571,167.7795258,-60.10143661,30.10900688,-1.1297814,-0.6858904,-0.008544922
1297,1229607238,167.6008301,-59.46052551,30.37903214,0.08751207,0.6876297,-0.90778446
1298,1229623905,167.5881348,-58.83599472,30.54715729,-0.007623587,-0.16152845,0.72621727
1299,1229640572,167.4002686,-58.35647583,30.71148491,0.034051027,-1.1219903,1.2632504
1300,1229657239,167.0549774,-57.92599487,30.8818512,-0.11130235,-0.9105196,-0.13591576
1301,1229673906,166.8302917,-57.5153656,30.97812271,-0.32925475,-0.09545542,-0.38458347
1302,1229690573,166.8357391,-57.08258438,30.97838402,-0.4813495,-0.07092622,0.28366756
1303,1229707240,166.9611969,-56.65112686,30.97979546,-0.15366882,-0.34973502,0.18477535
1304,1229723907,167.1033936,-56.23051834,30.97570801,0.22114062,0.018193787,-0.095033646
1305,1229740574,167.2966309,-55.8905983,30.92170715,-0.112825565,-0.5777973,0.6975546
1306,1229757241,167.385849,-55.59377289,30.85417175,-0.3402923,-0.5524493,0.53508663
1307,1229773908,167.459549,-55.27761841,30.80184174,-0.08249122,0.06577908,-0.18364143
1308,1229790575,167.6511078,-54.97938156,30.71346474,-0.3630212,-0.4706955,0.18052006
1309,1229807242,167.7371063,-54.71549988,30.6329689,-0.78376853,-0.47544077,0.19476509
1310,1229823909,167.730545,-54.48692703,30.59301567,-0.40188506,0.4325712,0.36624146
1311,1229840576,167.8305969,-54.32000732,30.52719307,0.12868038,0.26738217,0.6511345
1312,1229857243,167.8766785,-54.18352127,30.4981308,-0.38787013,-0.55065435,0.17794228
1313,1229873910,167.8087616,-54.01348114,30.50366974,-0.496317,-0.3423085,-0.35264492
1314,1229890577,167.6780701,-53.88990784,30.51176643,-0.36913487,-0.19850308,0.43776703
1315,1229907244,167.5037689,-53.80786133,30.54463005,-0.44128928,0.42250207,0.38148785
1316,1229923911,167.4560242,-53.75675201,30.62397385,-0.49855855,0.9832632,0.21382332
1317,1229940578,167.6434631,-53.73375702,30.7518692,-0.650338,0.26745006,0.38390446
1318,1229957245,167.8122711,-53.69605255,30.93923759,-0.54360914,-0.81230474,0.11457634
1319,1229973912,167.7774506,-53.63003922,31.1630764,-0.39633948,-0.8744553,-0.22147465
1320,1229990579,167.6466675,-53.62925339,31.31910896,0.05412862,-0.91676825,0.43427563
1321,1230007246,167.5351105,-53.72989655,31.34594536,0.15523355,-0.8716577,0.69312763
1322,1230023913,167.5831909,-53.91217422,31.21951485,0.15783338,-0.55994684,0.48730755
1323,1230040580,167.6878815,-54.10830688,31.03238106,-0.24260032,-0.37424007,0.20224667
1324,1230057247,167.7222137,-54.24998856,30.92673492,-0.6139973,-0.22208148,-0.18690586
1325,1230073914,167.7939758,-54.3625679,30.92066956,-0.7343745,0.1941859,-0.1427784
1326,1230090581,168.0247192,-54.53367233,30.90296936,-0.41083,0.4748169,0.33969307
1327,1230107248,168.3846893,-54.77219391,30.86086082,-0.2892168,0.15696703,0.42218304
1328,1230123915,168.6791992,-55.0414772,30.85657501,-0.37971032,-0.22158231,0.27447033
1329,1230140582,168.8078003,-55.3286171,30.90071487,-0.35136265,-0.543739,0.41559124
1330,1230157249,168.766922,-55.6571579,30.96533966,-0.3893257,-0.79114836,0.5720949
1331,1230173916,168.5991821,-56.04369736,31.02048302,-0.57984626,-0.60809225,0.55178547
1332,1230190583,168.4438171,-56.47726059,31.01046944,-0.36599243,-0.37561095,0.33592892
1333,1230207250,168.3577881,-56.97770691,30.9246521,-0.26212734,-0.52628607,0.41378117
1334,1230223917,168.2847443,-57.52110291,30.76780701,-0.19659413,-0.76203907,0.3632908
1335,1230240584,168.2341003,-58.11191177,30.54421043,-0.5458972,-0.8349208,0.20885754
1336,1230257251,168.2627106,-58.7486763,30.26399422,-0.47309768,-0.38906085,0.081430435
1337,1230273918,168.4857178,-59.422966,29.91822052,-0.5587011,-0.41292718,0.32386875
1338,1230290585,168.8630524,-60.13390732,29.5149765,-0.51563215,-0.29578933,-0.049258232
1339,1230307252,169.392868,-60.89882278,29.03503227,-0.035189606,0.048267316,0.19314384
1340,1230323919,169.9879913,-61.74479294,28.49156761,-0.028470539,-0.616046,0.8584013
1341,1230340586,170.5393829,-62.70132828,27.8827076,-0.30034092,-1.46465,0.14773846
1342,1230357253,171.0068817,-63.67588043,27.14016151,-0.24651808,-0.74362093,-0.5296259
1343,1230373920,171.2289429,-64.63288879,26.38923645,-1.5826948,-0.7191716,0.36506367
1344,1230390587,171.4062653,-65.58683014,25.65157509,-0.9480423,0.43540752,-0.87450695
1345,1230407254,171.8373413,-66.44934845,25.01582336,-0.019616727,1.9054884,-0.7147255
1346,1230423921,172.7887115,-67.37889862,24.314888,0.5260069,0.8741876,0.36036777
1347,1230440588,174.0383911,-68.44799805,23.39853668,0.37709582,-0.39498532,0.54211235
1348,1230457255,175.3518372,-69.61755371,22.34443092,0.12648012,-0.93556297,0.053153038
1349,1230473922,176.7165833,-70.75827789,21.0821228,-0.30889162,-0.99344915,-0.6582308
1350,1230490589,178.0670929,-71.78012848,19.58457375,-0.7460497,-0.94706196,-1.0372066
1351,1230507256,179.3884583,-72.70376587,17.99482727,-0.53351986,0.18112713,-1.16922
1352,1230523923,-179.210083,-73.59671783,16.43848038,-0.3922688,1.0911372,-0.46694756
1353,1230540590,-177.6519318,-74.52232361,14.98583508,0.19196859,1.2579569,-0.08793354
1354,1230557257,-175.9606934,-75.45423889,13.65694332,0.22957364,1.0377104,-0.2975273
1355,1230573924,-174.2213898,-76.33088684,12.27126789,0.6741992,0.27448776,-0.6828594
1356,1230590591,-172.6949768,-77.055336,10.79632187,0.43456933,-0.49325877,-0.6405115
1357,1230607258,-171.3491821,-77.68744659,9.250290871,0.6472141,-0.5039886,-0.4362402
1358,1230623925,-170.0108795,-78.27302551,7.545046329,0.89215094,-0.19135325,0.06466484
1359,1230640592,-168.4251251,-78.86016083,5.619555473,0.9757896,0.2898838,-0.0643549
1360,1230657259,-166.6925354,-79.39854431,3.767010689,1.2356371,0.75168,-0.55039597
1361,1230673926,-164.9189148,-79.85212708,2.151657104,1.2232071,0.72802633,-0.68196106
1362,1230690593,-163.1851654,-80.21885681,0.685203791,0.94244057,0.4002108,-0.4447012
1363,1230707260,-161.5347137,-80.53766632,-0.676315606,0.1765937,0.26027018,0.013985634
1364,1230723927,-159.9074554,-80.85189056,-1.886999011,-0.18569115,0.57074213,0.1970377
