PacketCounter_femur,SampleTimeFine_femur,Euler_X_femur,Euler_Y_femur,Euler_Z_femur,FreeAcc_X_femur,FreeAcc_Y_femur,FreeAcc_Z_femur,PacketCounter_tibia,SampleTimeFine_tibia,Euler_X_tibia,Euler_Y_tibia,Euler_Z_tibia,FreeAcc_X_tibia,FreeAcc_Y_tibia,FreeAcc_Z_tibia
1,1763534509,-2.439327955245972,58.25265502929688,156.02606201171875,-0.07970704,0.048537795,-0.07056332,1,1763534509,-46.20659255981445,56.23883056640625,71.59282684326172,-0.18593657,0.78756535,-0.12399006
2,1763551176,-2.446054220199585,58.23381805419922,156.01718139648438,-0.12266862,0.08900767,-0.018362045,2,1763551176,-46.249061584472656,56.22563171386719,71.54666137695312,-0.12903799,0.7680033,-0.06105995
3,1763567843,-2.452620506286621,58.22789764404297,155.99986267089844,-0.08551229,0.108101144,-0.018234253,3,1763567843,-46.30874633789063,56.21785354614258,71.50777435302734,-0.17218964,0.70596164,-0.08122444
4,1763584510,-2.4682624340057373,58.22891998291016,155.9803924560547,-0.07844001,0.0520636,-0.08513832,4,1763584510,-46.34916687011719,56.20594024658203,71.48548889160156,-0.25286657,0.7462407,-0.10263443
5,1763601177,-2.4892802238464355,58.23265075683594,155.96234130859375,-0.13923402,-0.008261262,-0.094285965,5,1763601177,-46.37186813354492,56.1951904296875,71.46868896484375,-0.18892752,0.8158688,-0.07911968
6,1763617844,-2.5057694911956787,58.22744369506836,155.94354248046875,-0.23284137,0.00930518,-0.030835152,6,1763617844,-46.38201904296875,56.18297576904297,71.44026184082031,-0.12558891,0.8942588,-0.088394165
7,1763634511,-2.5186209678649902,58.22398376464844,155.9232177734375,-0.27883476,0.056091525,0.031933784,7,1763634511,-46.39971923828125,56.18707656860352,71.38783264160156,-0.18019156,0.81141615,-0.12689495
8,1763651178,-2.540911197662353,58.22411346435547,155.9050750732422,-0.20549576,0.05035825,0.03620529,8,1763651178,-46.41261672973633,56.18899154663086,71.33623504638672,-0.16170844,0.8360055,-0.016706467
9,1763667845,-2.569577932357788,58.2234001159668,155.8906707763672,-0.12823807,0.063734606,0.027049065,9,1763667845,-46.43009948730469,56.200286865234375,71.28175354003906,-0.2069179,0.760786,-0.060894966
10,1763684512,-2.573899984359741,58.21168899536133,155.8882293701172,-0.16411194,0.069325395,0.07026291,10,1763684512,-46.46030044555664,56.22042846679688,71.21503448486328,-0.16014172,0.7751858,-0.071294785
11,1763701179,-2.56305193901062,58.19513320922852,155.8902130126953,-0.15044786,0.12279215,0.029583931,11,1763701179,-46.46317672729492,56.24692153930664,71.15625762939453,-0.15671287,0.8289237,0.016526222
12,1763717846,-2.553548574447632,58.18971633911133,155.88299560546875,-0.12426753,0.060366154,0.033704758,12,1763717846,-46.47129440307617,56.26737594604492,71.09521484375,-0.18585387,0.8344434,0.0335598
13,1763734513,-2.5461318492889404,58.17744064331055,155.87843322753906,-0.15319023,0.000979769,-0.0046014786,13,1763734513,-46.493289947509766,56.2849235534668,71.04290008544922,-0.19726807,0.7760665,-0.06526852
14,1763751180,-2.5740442276000977,58.16878890991211,155.85113525390625,-0.09556562,0.01630812,-0.055667877,14,1763751180,-46.53850173950195,56.29034423828125,71.00605010986328,-0.20941286,0.80685025,-0.06519127
15,1763767847,-2.610535144805908,58.15861129760742,155.82937622070312,-0.15918206,0.08120444,-0.10698414,15,1763767847,-46.59011459350586,56.28922271728516,70.97901153564453,-0.17222998,0.91982776,-0.07750702
16,1763784514,-2.624319314956665,58.15396499633789,155.82740783691406,-0.15201011,0.13578089,-0.10331154,16,1763784514,-46.60847473144531,56.28306579589844,70.95535278320312,-0.053994138,0.9890486,-0.016519547
17,1763801181,-2.6352245807647705,58.15231323242188,155.8123779296875,-0.20146555,0.10767569,0.0042743683,17,1763801181,-46.609901428222656,56.28121566772461,70.91310119628906,-0.09597227,0.910841,-0.07523632
18,1763817848,-2.6539299488067627,58.14620590209961,155.78091430664062,-0.22101852,0.06425327,0.036049843,18,1763817848,-46.60853958129883,56.28507995605469,70.86644744873047,-0.17511737,0.82853055,-0.072496414
19,1763834515,-2.665226936340332,58.13984298706055,155.75416564941406,-0.13899407,0.01891171,0.062464714,19,1763834515,-46.619407653808594,56.28125762939453,70.82321166992188,-0.18290854,0.8170006,0.03199768
20,1763851182,-2.684239387512207,58.13052368164063,155.75059509277344,-0.04901491,0.044035796,0.025639534,20,1763851182,-46.64736175537109,56.26625061035156,70.7905044555664,-0.1659715,0.78707135,0.037695885
21,1763867849,-2.7083852291107178,58.1214485168457,155.74049377441406,-0.055185392,0.12857476,-0.019115448,21,1763867849,-46.65562438964844,56.24803924560547,70.76914978027344,-0.07630967,0.8583966,0.029988289
22,1763884516,-2.7215967178344727,58.11835861206055,155.724365234375,-0.06682666,0.12158814,-0.04798031,22,1763884516,-46.62826919555664,56.22977066040039,70.762451171875,-0.19530647,0.81930774,-0.039964676
23,1763901183,-2.718920946121216,58.11842727661133,155.70750427246094,-0.14184308,0.023746965,-0.02991867,23,1763901183,-46.58639526367188,56.210147857666016,70.75984191894531,-0.1885756,0.7998219,-0.09796238
24,1763917850,-2.709113836288452,58.11058044433594,155.6909942626953,-0.24753654,-0.016252521,0.071894646,24,1763917850,-46.56629180908203,56.19230270385742,70.74944305419922,-0.15439878,0.8599583,-0.046762466
25,1763934517,-2.6992759704589844,58.092994689941406,155.69503784179688,-0.2965472,0.0706149,0.10112858,25,1763934517,-46.566925048828125,56.18215560913086,70.72284698486328,-0.12698369,0.8990384,-0.008724213
26,1763951184,-2.6934542655944824,58.07717514038086,155.69082641601562,-0.232668,0.087193914,0.08349037,26,1763951184,-46.56455993652344,56.17705154418945,70.67958068847656,-0.11918739,0.8065045,-0.044075012
27,1763967851,-2.6809303760528564,58.05957412719727,155.67593383789062,-0.15151924,0.079173766,0.02498436,27,1763967851,-46.57594680786133,56.17958450317383,70.6384048461914,-0.21701264,0.80486053,-0.03707218
28,1763984518,-2.667655229568481,58.04019546508789,155.64791870117188,-0.11981607,0.011694142,-0.062459946,28,1763984518,-46.5816535949707,56.17800521850586,70.59500885009766,-0.17363375,0.81463903,-0.07324219
29,1764001185,-2.665669679641724,58.027565002441406,155.6358642578125,-0.10559266,-0.04731786,-0.089941025,29,1764001185,-46.57964324951172,56.17509841918945,70.55298614501953,-0.19779383,0.7710911,-0.10383797
30,1764017852,-2.6945011615753174,58.01820755004883,155.62399291992188,-0.12860526,0.046802998,-0.02598095,30,1764017852,-46.58282852172852,56.16134262084961,70.5337142944336,-0.20508716,0.811367,-0.046125412
31,1764034519,-2.694772720336914,58.00106430053711,155.6204833984375,-0.18987581,0.16569318,0.04182625,31,1764034519,-46.60065841674805,56.15869522094727,70.50415802001953,-0.13289627,0.8450716,-0.07185459
32,1764051186,-2.669517755508423,57.98845672607422,155.62091064453125,-0.23370206,0.11519902,-0.013940811,32,1764051186,-46.603065490722656,56.16179275512695,70.46526336669922,-0.18121095,0.89484733,-0.08014393
33,1764067853,-2.6307895183563232,57.97966766357422,155.66067504882812,-0.17261103,-0.0021441039,-0.02543354,33,1764067853,-46.58553314208984,56.16297149658203,70.4380111694336,-0.258425,0.8327932,-0.046941757
34,1764084520,-2.617044687271118,57.97138977050781,155.68832397460938,-0.085764855,-0.04579518,-0.022315979,34,1764084520,-46.55213928222656,56.16617965698242,70.41896057128906,-0.19422214,0.72957313,-0.06929016
35,1764101187,-2.6267783641815186,57.96015167236328,155.74024963378906,-0.11409086,0.026107486,0.050971985,35,1764101187,-46.535491943359375,56.17087936401367,70.40052795410156,-0.15844643,0.74408716,-0.031188965
36,1764117854,-2.6425940990448,57.93113708496094,155.7301025390625,-0.20686308,0.09623144,0.14230442,36,1764117854,-46.55302810668945,56.188438415527344,70.37491607666016,-0.24197054,0.7954708,-0.033050537
37,1764134521,-2.6265385150909424,57.91024398803711,155.75320434570312,-0.17784132,0.07968762,0.012253761,37,1764134521,-46.54094696044922,56.2034797668457,70.3680191040039,-0.22271502,0.89415914,0.013561249
38,1764151188,-2.603647232055664,57.89842224121094,155.78233337402344,-0.14336765,-0.069575004,-0.097914696,38,1764151188,-46.49323272705078,56.20936965942383,70.35292053222656,-0.11779742,0.90438575,-0.012846947
39,1764167855,-2.58937668800354,57.88425064086914,155.829345703125,-0.1885139,-0.07488801,-0.124240875,39,1764167855,-46.4448356628418,56.21692657470703,70.33647918701172,-0.22249524,0.8768954,-0.08909035
40,1764184522,-2.613855123519897,57.85820388793945,155.87600708007812,-0.19230816,-0.025788702,-0.014650345,40,1764184522,-46.41426467895508,56.21146774291992,70.33628845214844,-0.31396592,0.798519,-0.11038685
41,1764201189,-2.6412513256073,57.83545303344727,155.92137145996094,-0.15960419,0.14799681,-0.018371582,41,1764201189,-46.40021133422852,56.204689025878906,70.36231994628906,-0.309494,0.8164193,-0.12610531
42,1764217856,-2.6355860233306885,57.82419967651367,155.9413604736328,-0.13525036,0.03216603,-0.026129723,42,1764217856,-46.3424072265625,56.1901741027832,70.39468383789062,-0.10716038,0.979527,0.11551285
43,1764234523,-2.6227385997772217,57.81665802001953,155.90150451660156,-0.16027166,-0.022845203,-0.033011436,43,1764234523,-46.198974609375,56.16803359985352,70.41937255859375,-0.059486855,0.9897245,0.123122215
44,1764251190,-2.6195859909057617,57.80988693237305,155.9207000732422,-0.1667901,0.0012208278,-0.006114006,44,1764251190,-46.02873611450195,56.141902923583984,70.44464874267578,-0.20912951,0.8971926,0.009880066
45,1764267857,-2.6519434452056885,57.7880744934082,155.83221435546875,-0.12556447,0.06209771,-0.012108803,45,1764267857,-45.92354965209961,56.09954833984375,70.50447845458984,-0.39638776,0.7523851,-0.1089735
46,1764284524,-2.6489803791046143,57.773475646972656,155.86111450195312,-0.102719106,0.15973845,-0.048838615,46,1764284524,-45.89497375488281,56.05147552490234,70.59561920166016,-0.3457776,0.7073244,-0.18356514
47,1764301191,-2.654356002807617,57.76434326171875,155.82077026367188,-0.13714713,0.07646959,0.007329941,47,1764301191,-45.86635971069336,55.99614715576172,70.71171569824219,-0.14211625,0.88435805,-0.011199951
48,1764317858,-2.634169340133667,57.75,155.8229522705078,-0.23515278,0.107474975,0.13101482,48,1764317858,-45.82149505615234,55.956668853759766,70.80366516113281,-0.044193428,0.9181821,0.04188633
49,1764334525,-2.591481685638428,57.73052215576172,155.78614807128906,-0.24987382,0.039409135,0.097332954,49,1764334525,-45.71769332885742,55.927616119384766,70.86907958984375,-0.020916231,0.8927903,0.072470665
50,1764351192,-2.572843551635742,57.71134948730469,155.80929565429688,-0.20072041,-0.059859283,0.052371025,50,1764351192,-45.60763931274414,55.89788436889648,70.9217758178711,-0.11398513,0.7067967,-0.05844021
51,1764367859,-2.578523874282837,57.68329620361328,155.774169921875,-0.13305879,-0.047667883,0.0399065,51,1764367859,-45.56641387939453,55.87202453613281,70.95537567138672,-0.088005096,0.6556931,-0.11693096
52,1764384526,-2.607682943344116,57.64372253417969,155.5813751220703,-0.09499943,0.11607542,0.040110588,52,1764384526,-45.57395553588867,55.84683227539063,70.97699737548828,-0.035012074,0.708064,-0.036605835
53,1764401193,-2.599982261657715,57.61486053466797,155.58026123046875,-0.04250624,0.21319191,0.014555931,53,1764401193,-45.567848205566406,55.826297760009766,70.99174499511719,0.004375769,0.7293829,-0.052960396
54,1764417860,-2.5635790824890137,57.58176040649414,155.51162719726562,-0.098104164,0.2306784,0.021590233,54,1764417860,-45.5344352722168,55.82243347167969,70.98697662353516,0.05141977,0.79410577,-0.06746197
55,1764434527,-2.4655418395996094,57.55385208129883,155.5030975341797,-0.087900534,0.18531598,-0.08258724,55,1764434527,-45.44247055053711,55.826881408691406,70.9614028930664,0.114830896,0.8848411,-0.042699814
56,1764451194,-2.350015878677368,57.535423278808594,155.51913452148438,-0.022254389,0.069413066,-0.17645645,56,1764451194,-45.30734252929688,55.826080322265625,70.9167251586914,0.11356006,0.7960899,-0.11200428
57,1764467861,-2.2641773223876958,57.519134521484375,155.5276641845703,-0.053693175,0.042967014,-0.16462517,57,1764467861,-45.1905403137207,55.82165145874024,70.85997009277344,0.10347705,0.7166288,-0.18714428
58,1764484528,-2.2184903621673584,57.50522232055664,155.50315856933594,-0.11270465,0.11994778,-0.098649025,58,1764484528,-45.13271331787109,55.80390167236328,70.80350494384766,0.039077554,0.74111265,-0.1818409
59,1764501195,-2.198453426361084,57.49945068359375,155.4370880126953,-0.14671803,0.19449209,-0.021255493,59,1764501195,-45.13371276855469,55.78195571899414,70.73731994628906,0.0015067009,0.72006667,-0.13120365
60,1764517862,-2.192800521850586,57.49932098388672,155.3400115966797,-0.14407867,0.10285116,0.002688408,60,1764517862,-45.17777633666992,55.76361846923828,70.66415405273438,0.018811855,0.6877102,-0.14879608
61,1764534529,-2.1965219974517822,57.50216293334961,155.2730255126953,-0.10431418,0.05084104,-0.0009050369,61,1764534529,-45.25582885742188,55.746681213378906,70.57362365722656,0.0005243614,0.73083705,-0.073283195
62,1764551196,-2.2177062034606934,57.50106048583984,155.17539978027344,-0.114194624,0.108706534,0.021755219,62,1764551196,-45.3245849609375,55.74146270751953,70.46569061279297,0.023821732,0.7835993,-0.038499832
63,1764567863,-2.2310330867767334,57.50238037109375,155.08221435546875,-0.1605634,0.11915275,0.0094099045,63,1764567863,-45.386497497558594,55.745304107666016,70.33993530273438,-0.019482115,0.8067803,-0.07180214
64,1764584530,-2.210360050201416,57.5058479309082,155.02159118652344,-0.13205817,0.09692131,-0.06712818,64,1764584530,-45.44635391235352,55.75734329223633,70.19847869873047,-0.13862263,0.7290329,-0.13332081
65,1764601197,-2.1783556938171387,57.50542449951172,154.9972381591797,-0.12705734,-0.009333957,0.008770943,65,1764601197,-45.5201301574707,55.766788482666016,70.05946350097656,-0.28265342,0.7204468,-0.12638092
66,1764617864,-2.17026162147522,57.502708435058594,154.90011596679688,-0.10521013,0.0036514753,0.012516022,66,1764617864,-45.61173629760742,55.78070068359375,69.94155883789062,-0.27035126,0.7343163,-0.029531479
67,1764634531,-2.157955408096313,57.51028060913086,154.8387451171875,-0.07986945,-0.059501328,-0.02178955,67,1764634531,-45.663455963134766,55.79674911499024,69.82841491699219,-0.14083685,0.78231186,0.055226326
68,1764651198,-2.1616597175598145,57.5258903503418,154.78460693359375,-0.100701794,-0.061777975,-0.010504723,68,1764651198,-45.66870880126953,55.80741882324219,69.73503875732422,-0.27054423,0.8107233,0.02835083
69,1764667865,-2.1599056720733643,57.53311538696289,154.73388671875,-0.164249,-0.07384572,0.03000164,69,1764667865,-45.67347717285156,55.81658935546875,69.64875030517578,-0.28743583,0.8376246,-0.026290894
70,1764684532,-2.1383321285247803,57.53084945678711,154.6844940185547,-0.24004984,-0.08681992,-0.0020017624,70,1764684532,-45.70032501220703,55.819786071777344,69.56500244140625,-0.32945043,0.820369,-0.059892654
71,1764701199,-2.147332668304444,57.53067779541016,154.64947509765625,-0.2672736,-0.07414098,0.023975372,71,1764701199,-45.74771499633789,55.8199577331543,69.50120544433594,-0.32183295,0.8617971,-0.051815987
72,1764717866,-2.1696481704711914,57.53125,154.6212158203125,-0.23076215,0.007904033,0.056447983,72,1764717866,-45.803131103515625,55.82519912719727,69.43928527832031,-0.2656229,0.895405,0.003255844
73,1764734533,-2.1640405654907227,57.5296745300293,154.6087188720703,-0.17707478,0.005814969,0.020290375,73,1764734533,-45.82630920410156,55.83278274536133,69.3807144165039,-0.2692389,0.8982112,0.026031494
74,1764751200,-2.148230791091919,57.52774810791016,154.59939575195312,-0.15157509,-0.026517913,0.0009994507,74,1764751200,-45.79534912109375,55.84366989135742,69.33747863769531,-0.28748348,0.86158836,0.0005493164
75,1764767867,-2.126250505447388,57.51940155029297,154.6020050048828,-0.19755225,-0.04509748,-0.0075731277,75,1764767867,-45.73533630371094,55.84292984008789,69.3057632446289,-0.26360816,0.951272,0.01879692
76,1764784534,-2.090771436691284,57.507598876953125,154.61451721191406,-0.21706364,-0.015538062,0.007162094,76,1764784534,-45.69924545288086,55.85067367553711,69.27040100097656,-0.28513145,0.8457605,-0.07875824
77,1764801201,-2.065542697906494,57.49576187133789,154.62356567382812,-0.19382323,-0.026000367,0.03204727,77,1764801201,-45.69430923461914,55.854591369628906,69.25544738769531,-0.30526784,0.7768935,-0.060171127
78,1764817868,-2.0498616695404053,57.487003326416016,154.64474487304688,-0.14216395,-0.04795638,-0.034941673,78,1764817868,-45.68318557739258,55.84544372558594,69.2535400390625,-0.24162868,0.8345319,-0.02846241
79,1764834535,-2.045781135559082,57.47930145263672,154.6642303466797,-0.15329503,-0.019361362,-0.009140015,79,1764834535,-45.64891815185547,55.83956909179688,69.2580795288086,-0.14256494,0.9038093,0.03859806
80,1764851202,-2.0355944633483887,57.46770858764648,154.68055725097656,-0.19331715,0.049818803,0.039936066,80,1764851202,-45.6175651550293,55.83684539794922,69.25728607177734,-0.19135168,0.7801107,-0.09109783
81,1764867869,-2.013945341110229,57.4546012878418,154.70745849609375,-0.18489781,0.041806646,-0.00996685,81,1764867869,-45.59275817871094,55.8367919921875,69.25748443603516,-0.19517174,0.7313201,-0.103458405
82,1764884536,-1.9696991443634035,57.43967819213867,154.740966796875,-0.1442145,0.055687808,-0.054683685,82,1764884536,-45.55942535400391,55.83089065551758,69.25437927246094,-0.05125353,0.89775944,-0.030622482
83,1764901203,-1.9015097618103027,57.42182540893555,154.7688446044922,-0.15340771,0.07120179,0.0051469803,83,1764901203,-45.5137939453125,55.82908248901367,69.22628021240234,-0.016060747,0.85823655,-0.0142326355
84,1764917870,-1.8311476707458496,57.39744567871094,154.7982177734375,-0.10839392,0.09582442,0.0032567978,84,1764917870,-45.48357391357422,55.82755279541016,69.18899536132812,-0.13024747,0.708414,-0.07911301
85,1764934537,-1.794151782989502,57.37799453735352,154.82388305664062,-0.045356885,0.054750394,-0.0045986176,85,1764934537,-45.468055725097656,55.833309173583984,69.17227172851562,-0.20086148,0.7073586,-0.05754757
86,1764951204,-1.7704657316207886,57.3607063293457,154.86009216308594,-0.09279611,-0.015594052,0.019695282,86,1764951204,-45.46349334716797,55.83782196044922,69.1657485961914,-0.16794819,0.7125155,-0.0798378
87,1764967871,-1.707172989845276,57.345123291015625,154.90354919433594,-0.10141654,-0.0039362866,-0.029506683,87,1764967871,-45.42943954467773,55.836910247802734,69.16401672363281,-0.06881964,0.89353484,0.06747627
88,1764984538,-1.6388980150222778,57.33077621459961,154.94374084472656,-0.17099322,0.04594147,-0.0021944046,88,1764984538,-45.35065078735352,55.82143020629883,69.15550231933594,-0.01221163,0.90533745,0.03981018
89,1765001205,-1.6078879833221436,57.31079864501953,154.958251953125,-0.17357428,0.095009655,0.03354931,89,1765001205,-45.28575134277344,55.82011032104492,69.13317108154297,-0.08611954,0.72404987,-0.13694477
90,1765017872,-1.5977197885513306,57.28960037231445,154.95701599121094,-0.15160649,0.041774627,0.02225113,90,1765017872,-45.277862548828125,55.82182693481445,69.11478424072266,-0.14236848,0.699381,-0.11535072
91,1765034539,-1.5980030298233032,57.27916717529297,154.96347045898438,-0.09206013,-0.012387032,-0.094192505,91,1765034539,-45.30226135253906,55.81181335449219,69.10739135742188,-0.130473,0.71471936,-0.12426567
92,1765051206,-1.6125153303146362,57.27595138549805,154.9655303955078,-0.097444005,0.024456844,-0.075366974,92,1765051206,-45.330039978027344,55.80530548095703,69.08378601074219,0.00996376,0.77082264,-0.07898903
93,1765067873,-1.627009630203247,57.26847457885742,154.95399475097656,-0.12557821,0.060301952,-0.042497635,93,1765067873,-45.34234619140625,55.79140472412109,69.05062103271484,0.040155333,0.8844321,0.020170212
94,1765084540,-1.6509720087051392,57.266143798828125,154.92120361328125,-0.13267034,0.10684925,-0.031244278,94,1765084540,-45.3387336730957,55.77839279174805,69.00704956054688,-0.00406056,0.7263492,-0.10695267
95,1765101207,-1.6840986013412476,57.26685333251953,154.88514709472656,-0.13550746,0.081810325,0.011042595,95,1765101207,-45.35514831542969,55.772987365722656,68.95016479492188,-0.039243735,0.6986523,-0.12312508
96,1765117874,-1.7127742767333984,57.26556015014648,154.8459014892578,-0.16162081,0.072519675,0.023018837,96,1765117874,-45.39914321899414,55.77188491821289,68.88316345214844,-0.100537024,0.76503456,-0.09657097
97,1765134541,-1.7248059511184692,57.26522445678711,154.80691528320312,-0.12996686,0.040868394,-0.08982849,97,1765134541,-45.445682525634766,55.76832580566406,68.80835723876953,-0.04974806,0.80256975,-0.096655846
98,1765151208,-1.7506293058395386,57.26773071289063,154.7627410888672,-0.07793866,0.054151993,-0.04344845,98,1765151208,-45.48414993286133,55.76112365722656,68.7265396118164,-0.120577864,0.7720547,-0.054841995
99,1765167875,-1.8000000715255735,57.26974105834961,154.7098846435547,-0.057454746,0.057852305,-0.020430565,99,1765167875,-45.509803771972656,55.75948715209961,68.65904998779297,-0.10332959,0.71787447,-0.052952766
100,1765184542,-1.8273755311965945,57.27919769287109,154.67315673828125,-0.035066444,0.100275956,0.011569023,100,1765184542,-45.53300857543945,55.75571441650391,68.59999084472656,-0.10956895,0.6961805,-0.04278946
101,1765201209,-1.821407437324524,57.28850936889648,154.64776611328125,-0.08742467,0.12974732,0.012261391,101,1765201209,-45.57628631591797,55.758277893066406,68.54155731201172,-0.1686564,0.7361864,-0.05433464
102,1765217876,-1.8138351440429688,57.30018615722656,154.61477661132812,-0.13574675,0.025688177,-0.014208794,102,1765217876,-45.61214828491211,55.756004333496094,68.48686218261719,-0.11282387,0.7724049,-0.054164886
103,1765234543,-1.8156813383102417,57.30887222290039,154.58026123046875,-0.1959423,0.007101286,-0.036872864,103,1765234543,-45.6438102722168,55.75333404541016,68.42904663085938,-0.09950908,0.825573,-0.07919693
104,1765251210,-1.8302206993103027,57.31900787353516,154.53916931152344,-0.21935359,-0.06568749,-0.0341053,104,1765251210,-45.66334533691406,55.75796890258789,68.36312103271484,-0.12416446,0.8311875,-0.070697784
105,1765267877,-1.8545693159103396,57.33055877685547,154.49790954589844,-0.16499251,-0.02026145,-0.018458366,105,1765267877,-45.689788818359375,55.75686264038086,68.2877197265625,-0.17602126,0.77243596,-0.052298546
106,1765284544,-1.8849802017211916,57.34303283691406,154.45599365234375,-0.13882732,0.02733731,-0.008393288,106,1765284544,-45.71555709838867,55.759525299072266,68.22288513183594,-0.2029662,0.78132063,-0.05442524
107,1765301211,-1.901553750038147,57.35428237915039,154.42201232910156,-0.13494873,-0.0069261077,-0.005214691,107,1765301211,-45.7412109375,55.75880432128906,68.15766906738281,-0.14318408,0.8083583,0.00032234192
108,1765317878,-1.906352996826172,57.3612060546875,154.3931427001953,-0.14348622,0.008899503,-0.027168274,108,1765317878,-45.74672317504883,55.75655746459961,68.09123229980469,-0.14081897,0.90233254,0.0026283264
109,1765334545,-1.899517059326172,57.36881637573242,154.3655242919922,-0.16477008,0.050372947,-0.017102242,109,1765334545,-45.727325439453125,55.746829986572266,68.03360748291016,-0.18513489,0.8941656,-0.011871338
110,1765351212,-1.8842977285385127,57.37334442138672,154.3416290283203,-0.13562126,0.058322296,0.023179054,110,1765351212,-45.70213317871094,55.73711013793945,67.98554229736328,-0.25441238,0.78922224,-0.037625313
111,1765367879,-1.851900577545166,57.37056350708008,154.34104919433594,-0.13456506,0.059812568,0.016284943,111,1765367879,-45.66926574707031,55.72076034545898,67.958251953125,-0.2642512,0.8762499,0.012412071
112,1765384546,-1.7895803451538086,57.37354278564453,154.3590087890625,-0.14321041,0.032710284,-0.04282856,112,1765384546,-45.59912109375,55.70891571044922,67.94147491455078,-0.21637005,0.9089782,-0.0047245026
113,1765401213,-1.7303346395492554,57.37178039550781,154.38343811035156,-0.21351723,-0.059495404,-0.020715714,113,1765401213,-45.49899673461914,55.69629287719727,67.9371337890625,-0.26107833,0.87671506,-0.022924423
114,1765417880,-1.6838548183441162,57.3707160949707,154.40977478027344,-0.2540396,-0.08594677,0.01932621,114,1765417880,-45.40576934814453,55.684303283691406,67.9480972290039,-0.371636,0.7870211,-0.10922432
115,1765434547,-1.645654320716858,57.36909484863281,154.44561767578125,-0.25783634,-0.12880246,0.10020542,115,1765434547,-45.35391998291016,55.67201232910156,67.96031951904297,-0.26846778,0.74817294,-0.030773163
116,1765451214,-1.6283706426620483,57.36359786987305,154.47576904296875,-0.22598325,-0.10866322,0.15424919,116,1765451214,-45.32371139526367,55.66041564941406,67.97960662841797,-0.24527474,0.79957336,0.096678734
117,1765467881,-1.637004852294922,57.35171127319336,154.51634216308594,-0.18989684,-0.14256227,0.15561867,117,1765467881,-45.28934860229492,55.65214920043945,67.9918441772461,-0.26491058,0.7318163,0.08329773
118,1765484548,-1.681254744529724,57.33176040649414,154.5580291748047,-0.14456755,-0.06506429,0.12625313,118,1765484548,-45.28033065795898,55.64450073242188,68.0090103149414,-0.24042037,0.6931483,-0.0050497055
119,1765501215,-1.6978029012680054,57.308380126953125,154.60726928710938,-0.1422757,0.1313598,0.04637432,119,1765501215,-45.272010803222656,55.64398956298828,68.02978515625,-0.16539031,0.7998666,-0.030155182
120,1765517882,-1.6621190309524536,57.286582946777344,154.66738891601562,-0.083357275,0.12383556,-0.058836937,120,1765517882,-45.22079849243164,55.63986206054688,68.04662322998047,-0.046369664,0.91609174,0.02171421
121,1765534549,-1.6241384744644165,57.2680549621582,154.70706176757812,-0.04547339,0.05375481,-0.1231575,121,1765534549,-45.12839889526367,55.637298583984375,68.06243133544922,-0.060609896,0.8129707,-0.054388046
122,1765551216,-1.6034648418426514,57.2508659362793,154.75758361816406,-0.06414224,0.014279852,-0.10630894,122,1765551216,-45.05952072143555,55.62581634521485,68.09239959716797,-0.12544665,0.7009429,-0.1532917
123,1765567883,-1.6062982082366943,57.240699768066406,154.79306030273438,-0.093651734,0.007248469,-0.103012085,123,1765567883,-45.03302764892578,55.60262298583984,68.1368408203125,-0.0939169,0.7234857,-0.118312836
124,1765584550,-1.621021032333374,57.23355484008789,154.81983947753906,-0.13747004,0.059419133,-0.066363335,124,1765584550,-45.0073127746582,55.56900405883789,68.1815185546875,0.026373634,0.815133,-0.05031681
125,1765601217,-1.6439677476882937,57.22701644897461,154.8268280029297,-0.174767,0.122796506,0.0023641586,125,1765601217,-44.98857116699219,55.53944778442383,68.20284271240234,0.058597162,0.8042651,-0.08739281
126,1765617884,-1.654773473739624,57.221458435058594,154.81874084472656,-0.17547344,0.14190754,0.019978523,126,1765617884,-44.97814178466797,55.5224609375,68.20082092285156,0.025728017,0.71628547,-0.103411674
127,1765634551,-1.6731938123703003,57.217403411865234,154.80824279785156,-0.12682708,0.09336477,0.029405594,127,1765634551,-44.98735427856445,55.50857162475586,68.18424987792969,-0.031365126,0.6775554,-0.09561825
128,1765651218,-1.6787338256835938,57.21419525146485,154.79632568359375,-0.06368834,0.07827211,-0.019508362,128,1765651218,-45.018333435058594,55.50445556640625,68.16051483154297,0.0074118013,0.68411213,-0.08028984
129,1765667885,-1.6853817701339722,57.217166900634766,154.7771453857422,-0.047212977,0.04867542,-0.10757351,129,1765667885,-45.03822708129883,55.49921417236328,68.11279296875,0.09757157,0.7175184,-0.07382488
130,1765684552,-1.7098455429077148,57.22615814208984,154.7483673095703,-0.061169125,0.090009615,-0.09891319,130,1765684552,-45.07289123535156,55.49320602416992,68.05812072753906,0.0006761267,0.6520047,-0.18177605
131,1765701219,-1.741156816482544,57.23344039916992,154.7032470703125,-0.10465958,0.10519319,-0.02536583,131,1765701219,-45.13037872314453,55.49070739746094,68.00502014160156,-0.060557704,0.66714436,-0.17693806
132,1765717886,-1.7733373641967771,57.24530029296875,154.67535400390625,-0.10437941,0.07074727,0.02599907,132,1765717886,-45.184326171875,55.49673461914063,67.93759155273438,-0.041695338,0.675603,-0.07358074
133,1765734553,-1.7931139469146729,57.2539291381836,154.6479034423828,-0.10542446,0.0578133,0.07051659,133,1765734553,-45.23094940185547,55.51486206054688,67.85301208496094,-0.019309284,0.7125761,-0.0040950775
134,1765751220,-1.7943745851516724,57.25957489013672,154.6148681640625,-0.06516329,0.069897085,0.026284218,134,1765751220,-45.279296875,55.54290008544922,67.75360870361328,-0.080731876,0.6657032,-0.058817863
135,1765767887,-1.8035725355148315,57.27280044555664,154.58087158203125,-0.045180812,0.036000505,-0.067295074,135,1765767887,-45.32883834838867,55.571044921875,67.66661834716797,-0.15724091,0.6643406,-0.11975479
136,1765784554,-1.834676504135132,57.29156875610352,154.5319366455078,-0.14864059,-0.028586023,-0.041247368,136,1765784554,-45.39713287353516,55.598880767822266,67.58047485351562,-0.08306434,0.73801833,-0.12238884
137,1765801221,-1.848151683807373,57.30461883544922,154.50869750976562,-0.22515507,-0.029059926,-0.011306763,137,1765801221,-45.470516204833984,55.6308479309082,67.47627258300781,-0.098548986,0.8069247,-0.050640106
138,1765817888,-1.8698104619979856,57.32119369506836,154.46531677246094,-0.14848791,0.017725639,-0.018723488,138,1765817888,-45.53194427490234,55.6617431640625,67.36711883544922,-0.16491513,0.79944193,-0.05665779
139,1765834555,-1.900085210800171,57.34093475341797,154.46726989746094,-0.16673064,0.06638989,0.012898445,139,1765834555,-45.59277725219727,55.69614410400391,67.2621841430664,-0.14595507,0.76529604,-0.09902954
140,1765851222,-1.922542929649353,57.35165786743164,154.44493103027344,-0.21734056,0.024884647,0.058955193,140,1765851222,-45.66940307617188,55.74079895019531,67.14736938476562,-0.15986519,0.78923094,-0.07811165
141,1765867889,-1.9366092681884768,57.36099624633789,154.37489318847656,-0.22376981,-0.009698339,0.062372208,141,1765867889,-45.75550079345703,55.79134368896485,67.03250885009766,-0.18621513,0.84284234,0.0037355423
142,1765884556,-1.9805141687393188,57.37498474121094,154.31556701660156,-0.16148742,-0.07844556,0.03116703,142,1765884556,-45.836273193359375,55.83769607543945,66.91555786132812,-0.17034492,0.78267264,0.015270233
143,1765901223,-2.03460431098938,57.374881744384766,154.279541015625,-0.12755947,-0.018144056,0.07201862,143,1765901223,-45.93165588378906,55.87808609008789,66.80404663085938,-0.19140722,0.7574094,0.011429787
144,1765917890,-2.0686521530151367,57.36933517456055,154.24737548828125,-0.11657443,0.12253634,0.049090385,144,1765917890,-46.02484893798828,55.92152404785156,66.69893646240234,-0.1298959,0.8356461,-0.004808426
145,1765934557,-2.089831590652466,57.36708831787109,154.18125915527344,-0.15402699,0.084903516,0.037875175,145,1765934557,-46.08381271362305,55.96306991577149,66.60214233398438,-0.10685853,0.9131253,0.042819023
146,1765951224,-2.101820945739746,57.36423110961914,154.16555786132812,-0.18086277,-0.015422841,0.044535637,146,1765951224,-46.112823486328125,55.99720764160156,66.50291442871094,-0.039675448,0.9629014,0.1089859
147,1765967891,-2.1046931743621826,57.34973907470703,154.14210510253906,-0.15258884,0.015382385,0.12194157,147,1765967891,-46.1461181640625,56.01887512207031,66.39830780029297,-0.10038593,0.9228541,0.14164448
148,1765984558,-2.1346092224121094,57.31909942626953,154.10609436035156,-0.112994924,-0.01916227,0.18104362,148,1765984558,-46.19532775878906,56.029815673828125,66.30140686035156,-0.11168518,0.8635685,0.20111752
149,1766001225,-2.208191156387329,57.27679061889648,154.08001708984375,-0.055398107,0.10103568,0.23962307,149,1766001225,-46.24372482299805,56.018165588378906,66.22099304199219,-0.022842465,0.96593225,0.34764004
150,1766017892,-2.282971143722534,57.21076583862305,154.03822326660156,-0.078520074,0.30796963,0.45071125,150,1766017892,-46.283992767333984,55.99650192260742,66.1509017944336,0.03315971,1.1117182,0.53150463
151,1766034559,-2.2943246364593506,57.10074615478516,153.96629333496094,-0.07582701,0.37531468,0.6338253,151,1766034559,-46.33740234375,55.951927185058594,66.08828735351562,0.05758297,1.3041594,0.6705513
152,1766051226,-2.2805116176605225,56.98341369628906,153.909423828125,0.124303184,0.25461432,0.34475517,152,1766051226,-46.29331588745117,55.84115982055664,66.07170104980469,0.23311585,1.5824426,0.9878473
153,1766067893,-2.266469955444336,56.84798431396485,153.7330322265625,0.20072609,0.20437191,0.116189,153,1766067893,-46.04396438598633,55.64949417114258,66.11067199707031,0.5043307,1.9364004,1.0579567
154,1766084560,-2.219308853149414,56.68479919433594,153.6841278076172,0.051099505,0.35684258,0.16902256,154,1766084560,-45.664154052734375,55.35227584838867,66.19700622558594,0.3518134,1.9313676,0.921278
155,1766101227,-2.250379800796509,56.4857177734375,153.4829559326172,-0.11678134,0.45810378,0.38738728,155,1766101227,-45.287899017333984,54.95983505249024,66.38093566894531,-0.066854626,1.7622142,0.81209946
156,1766117894,-2.2874484062194824,56.296199798583984,153.26150512695312,-0.09249613,0.27985683,0.22811413,156,1766117894,-44.909698486328125,54.451507568359375,66.64732360839844,0.1903757,1.9441174,1.2505808
157,1766134561,-2.301734209060669,56.1115837097168,153.04696655273438,0.3511745,0.22949634,0.16699505,157,1766134561,-44.30207443237305,53.78018951416016,67.00676727294922,0.6258158,2.5903108,1.890254
158,1766151228,-2.414990901947021,55.90755081176758,152.7503204345703,0.30820236,0.41577825,0.20636177,158,1766151228,-43.32002639770508,52.96703338623047,67.4229736328125,0.8741069,2.61531,2.0777855
159,1766167895,-2.6208038330078125,55.657814025878906,152.35516357421875,-0.42249358,0.8460622,0.6030445,159,1766167895,-42.255855560302734,52.00551223754883,67.88024139404297,0.37002748,2.4295487,1.7307005
160,1766184562,-2.681071758270264,55.327430725097656,151.87986755371094,-0.84646714,1.3974674,1.2213736,160,1766184562,-41.33747100830078,50.888328552246094,68.32707977294922,0.7180795,2.549996,1.6094189
161,1766201229,-2.4697108268737797,54.899932861328125,151.345703125,-0.5827753,0.91496176,1.29947,161,1766201229,-40.4954948425293,49.64518737792969,68.6952896118164,1.1277181,2.9671252,2.307046
162,1766217896,-2.266063928604126,54.34407424926758,150.79132080078125,-0.21927355,0.11603619,1.0620632,162,1766217896,-39.42932891845703,48.28921890258789,69.07353210449219,0.9569934,3.079089,2.9302092
163,1766234563,-2.1836817264556885,53.63808059692383,150.24298095703125,-0.46694058,-0.10642916,0.9316797,163,1766234563,-38.17920303344727,46.73625564575195,69.42473602294922,0.9911987,2.4979527,2.8160744
164,1766251230,-2.14450740814209,52.82830810546875,149.6715087890625,-0.54322237,0.42771137,1.1345377,164,1766251230,-37.0081901550293,45.040016174316406,69.69612884521484,0.815116,2.040192,2.4566774
165,1766267897,-2.065833806991577,51.91984176635742,149.05213928222656,-0.2828346,0.90072155,1.5771494,165,1766267897,-35.94342803955078,43.18978118896485,69.94742584228516,0.72089535,1.6495725,2.527626
166,1766284564,-1.892782926559448,50.942161560058594,148.38796997070312,0.20456637,0.7442424,1.3841877,166,1766284564,-35.05912780761719,41.2514762878418,70.14608764648438,0.40790957,1.2217549,2.603426
167,1766301231,-1.6141141653060913,49.89105987548828,147.7205810546875,0.2897494,0.4177222,1.3515654,167,1766301231,-34.21117401123047,39.20635986328125,70.3318862915039,0.68227774,1.007273,2.9833279
168,1766317898,-1.1900303363800049,48.73477554321289,147.08335876464844,0.09992538,0.4003744,1.5529814,168,1766317898,-33.2678337097168,37.0876579284668,70.44154357910156,0.80756783,1.2154192,3.332676
169,1766334565,-0.5768163204193115,47.45250701904297,146.51112365722656,-0.054662608,0.8027491,1.9713192,169,1766334565,-32.13460922241211,34.91840744018555,70.51448059082031,0.40273643,1.422705,3.146387
170,1766351232,0.3593812882900238,46.01051712036133,146.0311279296875,0.07909475,0.9048714,1.579999,170,1766351232,-30.983192443847656,32.67194366455078,70.56559753417969,-0.27433136,1.1901902,2.5122395
171,1766367899,1.4564884901046753,44.49664688110352,145.62135314941406,0.15376104,0.2622434,0.8600893,171,1766367899,-29.98936653137207,30.31171417236328,70.67748260498047,-0.6895124,0.7512635,2.8179626
172,1766384566,2.6176741123199463,42.956016540527344,145.29290771484375,-0.20313576,-0.8673427,0.11127472,172,1766384566,-28.916303634643555,27.75248146057129,70.79556274414062,-0.06250697,0.29931423,3.4629545
173,1766401233,3.699706792831421,41.44712066650391,145.0786895751953,-0.18210497,-1.1664178,-0.42655563,173,1766401233,-27.643142700195312,24.936325073242188,70.81307220458984,0.52579623,-0.35275978,3.9467592
174,1766417900,4.525571346282959,39.98849868774414,144.79583740234375,0.11759344,-0.51808316,-0.11981201,174,1766417900,-26.12986946105957,21.964452743530277,70.796875,0.2111005,-0.98342615,3.1448011
175,1766434567,5.211121082305908,38.57980346679688,144.39393615722656,-0.043021634,-0.0025617937,0.32251358,175,1766434567,-24.70777702331543,18.83945846557617,70.75570678710938,-0.46071792,-1.0839715,1.9752836
176,1766451234,6.013387203216553,37.1837272644043,144.03099060058594,0.13891914,0.23972647,0.25140572,176,1766451234,-23.65517807006836,15.580354690551758,70.67880249023438,-1.375427,-0.90855736,1.7702847
177,1766467901,7.009834289550781,35.79084014892578,143.780029296875,-0.075641505,0.21816635,-0.040473938,177,1766467901,-22.71994400024414,12.16412353515625,70.6632080078125,-1.5769559,-1.3234792,2.095767
178,1766484568,8.181950569152832,34.41124725341797,143.61024475097656,-0.28125912,-0.14188446,-0.47817612,178,1766484568,-21.75773811340332,8.510848045349121,70.64810180664062,-1.0160452,-2.1699696,2.4586391
179,1766501235,9.38339138031006,33.046356201171875,143.50198364257812,-0.23782471,-0.60224336,-1.0371704,179,1766501235,-20.55548095703125,4.580501556396484,70.66372680664062,-1.2216085,-2.9585795,2.589838
180,1766517902,10.425253868103027,31.725341796875,143.39474487304688,-0.1670373,-0.40507516,-1.4542465,180,1766517902,-19.231609344482425,0.3924110829830169,70.67643737792969,-1.545778,-3.3051727,1.739831
181,1766534569,11.489885330200195,30.52077865600586,143.29000854492188,-0.69358134,0.19341186,-0.43571854,181,1766534569,-18.20098304748535,-3.968859434127808,70.71426391601562,-2.2082675,-2.4075286,1.8715563
182,1766551236,12.636662483215332,29.295146942138672,143.20350646972656,-1.102434,-0.10948503,0.30957317,182,1766551236,-17.644960403442383,-8.60285758972168,70.7745361328125,-3.0945096,-2.1188073,1.6604996
183,1766567903,13.711268424987791,27.977373123168945,143.12791442871094,-1.0079519,-0.39459962,0.67397404,183,1766567903,-17.453277587890625,-13.503389358520508,70.89966583251953,-3.631137,-3.1265414,2.0306005
184,1766584570,14.547481536865234,26.52666473388672,143.02597045898438,-0.9991537,-1.2178886,0.6988058,184,1766584570,-17.272504806518555,-18.727466583251957,71.07987976074219,-2.9173,-4.938158,1.7940292
185,1766601237,15.070962905883787,24.94660377502441,142.95077514648438,-1.014992,-1.3404083,1.2167025,185,1766601237,-16.803173065185547,-24.15424919128418,71.24810028076172,-2.110185,-5.701337,0.84199715
186,1766617904,15.269379615783691,23.256610870361328,142.93307495117188,-0.85218734,-1.3748751,0.8043089,186,1766617904,-15.921307563781738,-29.78601455688477,71.45001220703125,-2.272165,-6.3022547,0.44026566
187,1766634571,15.274053573608398,21.515369415283203,142.98361206054688,-0.7735275,-1.4568051,0.74185085,187,1766634571,-14.65130615234375,-35.54288101196289,71.64544677734375,-1.8027425,-5.6867275,-1.5842667
188,1766651238,15.339969635009766,19.745325088500977,143.14678955078125,-0.4456083,-1.5682237,1.6566019,188,1766651238,-13.491133689880373,-41.26139068603516,71.67206573486328,-2.1070137,-3.3926091,-3.0384054
189,1766667905,15.480095863342283,17.930021286010742,143.44134521484375,0.16080472,-1.2538456,2.286749,189,1766667905,-12.79900360107422,-46.98283004760742,71.48584747314453,-2.754347,-2.005278,-3.244597
190,1766684572,15.67498016357422,15.880708694458008,143.74220275878906,0.6095711,-1.1304575,1.9814005,190,1766684572,-12.20853328704834,-52.77875900268555,71.22282409667969,-1.9418828,-2.4533758,-3.4180007
191,1766701239,15.741277694702148,13.6318359375,144.03533935546875,0.7903807,-0.9291423,1.4197998,191,1766701239,-11.159156799316406,-58.52043914794922,70.79264831542969,-0.084048696,-2.4112813,-3.8685398
192,1766717906,15.752248764038086,11.248841285705566,144.2958526611328,0.6481659,-0.58978766,1.6316528,192,1766717906,-9.425512313842772,-64.06515502929688,70.03289794921875,0.6048191,-1.9065748,-4.3915453
193,1766734573,15.823134422302246,8.923646926879883,144.6483612060547,0.63478744,-0.56708235,0.47643375,193,1766734573,-7.018295764923096,-69.5617446899414,68.89207458496094,-0.1709665,-2.4004197,-5.2590137
194,1766751240,15.850605010986328,6.664425373077393,145.1238250732422,0.5912684,-0.88982755,-0.86599064,194,1766751240,-3.349387884140014,-75.01214599609375,66.78067779541016,0.5680268,-1.5953641,-5.7266555
195,1766767907,15.858346939086914,4.492712497711182,145.5618438720703,0.53509027,-0.79572386,0.24803829,195,1766767907,2.959676504135132,-80.20782470703125,61.78518295288086,0.41736877,0.4123138,-5.22531
196,1766784574,15.81270980834961,2.3096485137939453,145.94224548339844,0.8772301,-0.9088468,1.0319557,196,1766784574,19.91897964477539,-85.12130737304688,45.790924072265625,-0.37530786,0.4556316,-5.4454527
197,1766801241,15.53719711303711,-0.1038475409150123,146.3371124267578,0.98525816,-1.081819,-0.32086658,197,1766801241,105.73023223876952,-87.11378479003906,-39.134674072265625,0.13606709,-0.5876848,-6.574397
198,1766817908,14.964895248413086,-2.319105625152588,146.85023498535156,0.14177904,-1.208101,-2.125733,198,1766817908,147.81468200683594,-82.75703430175781,-80.08845520019531,1.7545744,-0.33050665,-6.675613
199,1766834575,14.048502922058104,-4.3975043296813965,147.4406280517578,0.09659776,-1.1966641,-2.199604,199,1766834575,156.9149169921875,-77.67072296142578,-87.84549713134766,2.5060043,0.4935697,-6.303177
200,1766851242,13.19145965576172,-6.504836082458496,147.95138549804688,0.78159755,-0.75044274,-0.54765606,200,1766851242,160.91651916503906,-72.57231903076172,-90.51541137695312,1.5270509,1.8313788,-6.2663336
201,1766867909,12.67367458343506,-8.426912307739258,148.33340454101562,1.6311574,0.19445187,-1.2584505,201,1766867909,163.0915985107422,-67.31486511230469,-91.5979232788086,0.3490347,2.4117281,-7.5624127
202,1766884576,12.182847023010254,-9.66557502746582,148.84619140625,0.85073763,0.6448953,-5.158675,202,1766884576,164.49761962890625,-61.88238143920898,-92.0258331298828,0.55912465,2.359062,-8.694407
203,1766901243,11.521663665771484,-10.384156227111816,149.48509216308594,0.17085879,0.9060334,-5.7478814,203,1766901243,165.86041259765625,-56.58784103393555,-92.0705795288086,3.011986,2.9206047,-7.0103188
204,1766917910,10.964778900146484,-10.389266967773438,150.1710205078125,0.6757451,1.3367331,-3.4811077,204,1766917910,167.2242889404297,-51.61138153076172,-91.88024139404295,3.3537662,4.818121,-5.2498937
205,1766934577,10.829936981201172,-9.828741073608398,150.82081604003906,1.2756921,1.6961938,-3.0092664,205,1766934577,168.6264190673828,-46.71017837524414,-91.65625,1.2640227,6.870483,-4.459195
206,1766951244,10.786415100097656,-8.363676071166992,151.50025939941406,0.4332535,1.7003207,-4.4460998,206,1766951244,169.85670471191406,-42.007232666015625,-91.43409729003906,0.5721678,7.710819,-2.799583
207,1766967911,10.50866985321045,-6.255414009094238,152.43243408203125,-2.8823433,2.4013913,-3.841167,207,1766967911,170.99990844726562,-37.89009094238281,-91.07584381103516,3.0995848,8.407904,1.018178
208,1766984578,10.571088790893556,-4.528869152069092,153.3819580078125,-3.1757076,1.9478879,-1.1509552,208,1766984578,171.92428588867188,-35.03790283203125,-90.4877471923828,3.667837,9.45051,7.5230465
209,1767001245,11.321937561035156,-3.873721837997437,154.03517150878906,-2.4325757,1.2881244,0.27484608,209,1767001245,171.66592407226562,-33.491722106933594,-89.835693359375,-1.1894295,10.099917,10.5309105
210,1767017912,12.327264785766602,-4.051318168640137,154.2974853515625,-3.60561,1.3642993,-0.057112694,210,1767017912,170.18846130371094,-33.35521697998047,-89.21342468261719,-2.7894864,9.978575,9.831022
211,1767034579,13.481606483459473,-4.851367473602295,154.0940704345703,-2.4598222,2.2406592,0.6517229,211,1767034579,168.59115600585938,-34.46693420410156,-88.77908325195312,1.1303248,8.315884,6.6321316
212,1767051246,14.461727142333984,-6.0830183029174805,153.49949645996094,-1.7472242,2.415983,-0.49771976,212,1767051246,167.98834228515625,-36.65753936767578,-88.66893768310547,2.5059602,6.957203,3.9546824
213,1767067913,14.96506404876709,-7.147737503051758,152.59912109375,-2.488776,1.6292804,-2.090622,213,1767067913,167.86508178710938,-39.6874885559082,-88.64802551269531,1.5590953,6.915325,1.9053802
214,1767084580,15.05672550201416,-7.555755138397217,151.73828125,-2.2097654,1.1210512,-2.8679981,214,1767084580,167.28330993652344,-43.10604095458984,-88.69178009033203,-0.6006188,6.714569,-0.02265358
215,1767101247,15.063281059265137,-7.3860249519348145,150.992919921875,-0.64462453,0.79460466,-1.3401737,215,1767101247,166.13278198242188,-46.665321350097656,-88.87886047363281,-1.4705999,5.392536,-1.3929129
216,1767117914,15.173014640808104,-7.097751617431641,150.3512420654297,0.060916904,0.77922344,-1.0931683,216,1767117914,164.89085388183594,-50.23697662353516,-89.23233795166016,-0.4467459,3.679529,-2.4596467
217,1767134581,15.005585670471191,-6.719484329223633,149.8524627685547,-0.045520455,0.34642133,-1.2486525,217,1767134581,164.38980102539062,-53.86611557006836,-89.82450866699219,1.200611,2.2494867,-3.215876
218,1767151248,14.505868911743164,-6.350796222686768,149.4875946044922,-0.17425242,-0.7151011,-1.7416849,218,1767151248,164.60360717773438,-57.66450119018555,-90.4504623413086,1.6847633,2.0704935,-2.7010126
219,1767167915,13.771687507629396,-6.000011444091797,149.2032928466797,-0.32929567,-1.4585074,-1.7757616,219,1767167915,165.03871154785156,-61.68285751342773,-91.0459976196289,0.17601456,2.7232027,-2.4910936
220,1767184582,13.036518096923828,-5.531989097595215,148.94647216796875,-0.049350154,-1.3157343,-1.4451694,220,1767184582,165.16775512695312,-65.74720764160156,-91.5971221923828,-0.68958217,3.2343004,-2.5534253
221,1767201249,12.396595001220703,-4.657942295074463,148.67662048339844,0.19248934,-0.7142379,-0.912508,221,1767201249,164.61195373535156,-69.80436706542969,-91.93960571289062,-0.58862853,3.1150959,-2.77316
222,1767217916,11.864410400390623,-3.551256895065308,148.444091796875,0.28435162,-0.1607725,-0.34338856,222,1767217916,163.8579864501953,-73.82039642333984,-92.1490478515625,0.21970843,2.0700595,-3.5180912
223,1767234583,11.20638656616211,-2.279608726501465,148.34451293945312,0.059307963,-0.28874403,-0.37535095,223,1767234583,163.1256561279297,-78.00694274902344,-91.99817657470705,1.5733758,2.074109,-3.501392
224,1767251250,10.820897102355955,-1.0965173244476318,148.31951904296875,0.15520826,-0.7637122,-0.86386585,224,1767251250,161.28134155273438,-82.40084838867188,-90.54991912841795,1.0079391,2.4673438,-3.9457664
225,1767267917,10.744128227233888,0.1505563259124755,148.33383178710938,0.41344988,-0.46248016,-1.5304604,225,1767267917,153.42039489746094,-86.86569213867188,-83.10494232177734,-0.37492588,2.2143164,-3.9245791
226,1767284584,10.804235458374023,1.5103132724761963,148.3483428955078,0.5462356,-0.086703636,-1.1535025,226,1767284584,11.702446937561035,-88.32801055908203,57.988059997558594,-0.58527607,1.8456168,-3.7081003
227,1767301251,10.975481033325195,2.880518674850464,148.3327178955078,0.58380896,-0.04305895,-0.16627693,227,1767301251,-7.775611877441406,-83.78044891357422,76.75493621826172,-0.32883683,1.4110717,-3.9832902
228,1767317918,11.334134101867676,4.208836078643799,148.2350616455078,0.6416128,0.04416763,1.0346193,228,1767317918,-11.301539421081545,-79.05326843261719,79.78060913085938,0.2465007,0.34433445,-4.282063
229,1767334585,11.995731353759766,5.617180347442627,147.98193359375,0.3471894,0.55089706,1.9323168,229,1767334585,-12.439926147460938,-74.32015991210938,80.70735168457031,1.4738287,0.5552469,-4.2232556
230,1767351252,12.770636558532717,7.070477485656738,147.67140197753906,-0.03999094,0.5101927,1.6562386,230,1767351252,-12.69258975982666,-69.5435791015625,80.7243423461914,0.74789906,0.7454244,-4.6370873
231,1767367919,13.42143726348877,8.595989227294922,147.546875,-0.7417308,-0.5005115,-0.4012394,231,1767367919,-13.05665111541748,-64.76541900634766,80.71353149414062,-0.90892786,-1.087861,-4.6771307
232,1767384586,13.853389739990234,10.128989219665527,147.68385314941406,-0.65112454,-1.1602865,-1.1409664,232,1767384586,-13.575277328491213,-59.88400650024414,80.72027587890625,0.25322354,-1.3586468,-4.367658
233,1767401253,14.053728103637695,11.62228012084961,147.88160705566406,-0.09099875,-0.5534453,0.07114601,233,1767401253,-13.944674491882324,-54.946197509765625,80.60829162597656,0.7070735,-2.4098063,-4.183415
234,1767417920,14.042089462280272,13.201536178588867,147.93942260742188,0.050505433,0.17471564,-0.12162781,234,1767417920,-13.927288055419922,-50.08778381347656,80.46937561035156,1.0346571,-3.2072299,-3.47502
235,1767434587,13.952821731567385,15.005980491638184,147.9547119140625,-0.121009886,0.04770922,-1.4798021,235,1767434587,-13.62834644317627,-45.30352783203125,80.20481872558594,0.7472022,-3.414468,-3.1253042
236,1767451254,13.840594291687012,16.879499435424805,147.99058532714844,0.18915284,-0.19659373,-1.6494188,236,1767451254,-13.26325511932373,-40.50244140625,79.90641021728516,0.13755032,-2.7890692,-2.9848657
237,1767467921,13.742803573608398,18.630542755126957,148.07496643066406,0.70380574,-0.8362473,-0.25325775,237,1767467921,-13.168397903442385,-35.70878219604492,79.4548110961914,-0.011559308,-2.212944,-2.882965
238,1767484588,13.830270767211914,20.19743156433105,148.22454833984375,0.95277816,-0.989383,1.867774,238,1767484588,-13.377318382263184,-30.8996696472168,78.96668243408203,-0.2517384,-2.554973,-2.5761795
239,1767501255,14.070544242858888,21.63180351257324,148.35377502441406,0.6545798,-0.59886855,1.5744076,239,1767501255,-13.577414512634276,-26.13012313842773,78.48438262939453,0.2809026,-4.2028785,-1.938406
240,1767517922,13.88915729522705,23.12787628173828,148.48965454101562,0.23568623,-0.16117309,-0.2372837,240,1767517922,-13.492034912109377,-21.38273048400879,78.02313995361328,0.76162076,-4.626631,-1.6071529
241,1767534589,13.517528533935549,24.740711212158203,148.68624877929688,0.03498897,0.3851175,-0.9275856,241,1767534589,-13.238550186157228,-16.695011138916016,77.54734802246094,-0.1861872,-3.8982854,-1.0636568
242,1767551256,13.252349853515623,26.44671058654785,148.90966796875,0.34534326,0.6815327,-0.8722267,242,1767551256,-13.239680290222168,-12.086973190307615,77.09410095214844,-1.0617769,-3.2498715,-0.69332886
243,1767567923,13.087324142456056,28.111968994140625,149.07823181152344,0.90191334,0.89962995,0.6514168,243,1767567923,-13.581619262695312,-7.511977195739746,76.75821685791016,-1.0246239,-2.9560897,-0.38550282
244,1767584590,13.187006950378418,29.679893493652344,149.1251678466797,0.83702034,0.5033639,2.2136602,244,1767584590,-14.106945991516112,-2.8387067317962646,76.47274017333984,-1.108976,-2.6968846,-0.26134968
245,1767601257,13.332061767578123,31.129261016845703,149.08956909179688,0.24558447,-0.73245263,1.7326412,245,1767601257,-14.74984645843506,1.8744072914123533,76.20230102539062,-1.9015278,-3.3763103,0.5306759
246,1767617924,13.08790111541748,32.4802360534668,149.25204467773438,-0.97775316,-1.8446821,0.7103319,246,1767617924,-15.259559631347656,6.50740909576416,75.9404525756836,-1.6347663,-3.9434624,1.0063429
247,1767634591,12.65703296661377,33.805908203125,149.7303466796875,-1.2788303,-1.8604581,-0.01790905,247,1767634591,-15.782081604003906,11.12071704864502,75.654296875,-1.7325532,-3.7922852,0.9414444
248,1767651258,11.96241569519043,35.246788024902344,150.24412536621094,-0.6601556,-1.1633918,-0.23921394,248,1767651258,-16.531707763671875,15.703875541687012,75.3844223022461,-2.227605,-3.6163542,1.1990776
249,1767667925,11.18602466583252,36.73664474487305,150.6681671142578,-0.2644979,-0.7947042,0.39014435,249,1767667925,-17.337127685546875,20.219051361083984,75.03678894042969,-1.8460835,-3.4313414,1.6271725
250,1767684592,10.463116645812988,38.17982864379883,151.14566040039062,-0.5315271,-0.92847466,0.7905235,250,1767684592,-18.19241714477539,24.741220474243164,74.57659149169922,-1.2625579,-3.2165534,2.204732
251,1767701259,9.948003768920898,39.56342697143555,151.76263427734375,-0.23907426,-0.285084,0.53045845,251,1767701259,-19.11797523498535,29.24994468688965,74.07827758789062,-1.5106058,-2.95042,2.719366
252,1767717926,9.64340591430664,40.945945739746094,152.28335571289062,0.33495772,0.97493535,-0.889246,252,1767717926,-20.03841209411621,33.65446090698242,73.6285629272461,-1.8750352,-2.495693,2.4122896
253,1767734593,9.412354469299316,42.50701904296875,152.76654052734375,-0.37189075,0.32231513,-0.28478146,253,1767734593,-21.34011459350586,37.99042892456055,73.06083679199219,-1.5657364,-1.7777637,2.2615986
254,1767751260,9.835055351257324,43.88042449951172,153.40005493164062,-0.50161815,-0.32176483,1.6366034,254,1767751260,-23.015893936157227,42.24822616577149,72.30409240722656,-1.8380287,-1.6653007,3.7997541
255,1767767927,10.116425514221191,45.1294174194336,154.02809143066406,0.05555001,-1.3445665,1.4025421,255,1767767927,-24.813844680786133,46.45541763305664,71.51660919189453,-1.2670747,-1.6478974,5.0536423
256,1767784594,9.957361221313477,46.33108139038086,154.7505645751953,-0.73532254,-1.5075061,0.3937664,256,1767784594,-26.422996520996094,50.50163650512695,70.60429382324219,0.3397569,-0.47448626,5.269313
257,1767801261,9.675116539001465,47.68765640258789,155.46737670898438,0.29593003,-1.0558488,-0.9022846,257,1767801261,-28.02713203430176,54.20814514160156,69.55171966552734,0.5426242,1.3207884,5.5438366
258,1767817928,9.45348834991455,49.09287643432617,156.1664581298828,1.0777138,-0.7230148,-0.9884987,258,1767817928,-29.85532760620117,57.33758163452149,68.50811767578125,-0.20242764,2.6964653,4.5286665
259,1767834595,9.480464935302734,50.520809173583984,157.0416717529297,1.1070082,0.118737124,-1.5628624,259,1767834595,-31.51332092285156,59.7857666015625,67.67481231689453,0.54994357,5.2461495,4.446397
260,1767851262,9.637371063232422,51.926231384277344,158.01368713378906,1.1291689,0.07393697,-0.25236225,260,1767851262,-32.82044219970703,61.532676696777344,67.12242889404297,2.0106006,5.9388156,4.7116385
261,1767867929,9.666648864746094,53.16297912597656,159.02078247070312,0.35386002,0.14774519,1.8414755,261,1767867929,-33.9138298034668,62.7132453918457,66.9254379272461,0.9571967,5.908252,5.222415
262,1767884596,9.363031387329102,54.20918273925781,159.9797821044922,-0.9019744,1.5539588,2.6692286,262,1767884596,-34.67741775512695,63.42418670654297,67.18213653564453,1.7479259,6.886635,4.7438145
263,1767901263,9.042242050170898,55.00004196166992,160.72317504882812,-1.3967644,3.3322866,3.4556084,263,1767901263,-35.10599136352539,63.78975296020508,67.6957015991211,2.584148,8.338491,5.074848
264,1767917930,9.116781234741213,55.42243576049805,161.29689025878906,-0.95991683,3.8230755,3.8009539,264,1767917930,-34.969085693359375,63.90771865844727,68.29275512695312,3.3499136,9.286012,5.9240932
265,1767934597,9.489230155944824,55.51206970214844,161.78152465820312,-1.0589141,3.0289934,3.6750574,265,1767934597,-34.0719108581543,63.68472671508789,68.98313903808594,3.8743002,8.645005,5.9345016
266,1767951264,9.778822898864746,55.33382034301758,162.00604248046875,-1.1910994,2.8088765,3.188507,266,1767951264,-32.882057189941406,63.11219024658203,69.7705307006836,3.0562186,7.3292313,4.9347687
267,1767967931,9.876752853393556,54.94815826416016,161.9650421142578,-0.9840855,2.1966012,2.974825,267,1767967931,-31.766502380371094,62.21129608154297,70.68718719482422,2.3529193,6.6273246,4.380724
268,1767984598,9.925296783447266,54.34140396118164,161.81634521484375,-0.8220012,1.1645463,2.4889927,268,1767984598,-30.73900413513184,60.91012573242188,71.56893920898438,2.576422,6.0549445,4.672473
269,1768001265,9.78590202331543,53.53987884521485,161.5353546142578,-0.45710158,0.9580182,1.8228455,269,1768001265,-29.51077461242676,59.270626068115234,72.38701629638672,3.1915798,5.7113595,4.749028
270,1768017932,9.357504844665527,52.57759475708008,161.0853271484375,-0.20290627,1.1817904,1.3586044,270,1768017932,-28.0986270904541,57.33078384399414,73.10399627685547,2.6842775,4.416898,4.1518755
271,1768034599,8.817692756652832,51.51824951171875,160.51235961914062,-0.15517291,1.4246527,1.0662212,271,1768034599,-26.631786346435547,55.12675094604492,73.74411010742188,2.1635478,3.099613,3.5624075
272,1768051266,8.361967086791992,50.450927734375,159.8262176513672,0.25679946,1.5784279,0.6925564,272,1768051266,-25.27125358581543,52.655879974365234,74.28981018066406,2.0437343,2.221978,3.4566603
273,1768067933,8.04459285736084,49.37164306640625,158.9918670654297,0.6181058,1.5373452,1.0650301,273,1768067933,-24.135690689086918,50.024017333984375,74.71633911132812,1.7207755,0.9042154,3.0964909
274,1768084600,7.902517795562744,48.18130493164063,158.0567169189453,0.46967784,1.225785,1.6058216,274,1768084600,-23.247573852539062,47.27585983276367,75.00934600830078,1.4438771,0.38547716,2.9478521
275,1768101267,7.929530620574951,46.86135482788086,157.12591552734375,0.1368529,0.7933542,1.7997437,275,1768101267,-22.608884811401367,44.48350143432617,75.12350463867188,1.5815314,0.31538618,2.9763422
276,1768117934,8.085206985473633,45.41419219970703,156.20896911621094,-0.11155185,0.5656528,1.6528015,276,1768117934,-21.96208000183105,41.67688751220703,75.08496856689453,1.6695361,0.28507066,3.0823946
277,1768134601,8.286953926086426,43.89078521728516,155.26402282714844,-0.10557383,0.4576803,1.363203,277,1768134601,-21.18833541870117,38.87310028076172,74.93482208251953,1.4769857,0.069319636,3.0058155
278,1768151268,8.557459831237793,42.3255615234375,154.31057739257812,0.02534609,0.7906884,1.416153,278,1768151268,-20.290616989135746,36.118934631347656,74.68657684326172,1.2378652,-0.46966195,2.2864838
279,1768167935,8.93854808807373,40.655250549316406,153.31008911132812,0.23716538,1.167291,1.6806297,279,1768167935,-19.584421157836918,33.39306640625,74.3607177734375,0.36162853,-0.3343774,1.7325468
280,1768184602,9.639567375183104,38.89487457275391,152.34176635742188,0.463897,0.6989454,1.2846117,280,1768184602,-19.111328125,30.66712951660156,74.03143310546875,-0.28716084,0.14677492,2.2151976
281,1768201269,10.67453670501709,37.0505485534668,151.51097106933594,0.52194834,-0.5262315,0.41388798,281,1768201269,-18.603620529174805,27.78282356262207,73.66921997070312,0.2815634,-0.46081173,3.8234272
282,1768217936,11.781112670898438,35.21147918701172,150.819091796875,0.4555713,-1.4939963,-0.5511055,282,1768217936,-17.659761428833008,24.664287567138672,73.29511260986328,0.42613605,-1.699453,4.757639
283,1768234603,12.823590278625488,33.49187469482422,150.24374389648438,0.80758315,-1.6791244,-1.1849613,283,1768234603,-16.280921936035156,21.21733665466309,72.91112518310547,0.22099358,-3.185409,4.4084845
284,1768251270,13.797947883605955,31.934518814086918,149.7379608154297,1.2821394,-1.5054176,-2.3940983,284,1768251270,-14.697274208068848,17.31217384338379,72.5578384399414,-0.7978166,-4.0713882,4.075781
285,1768267937,14.565916061401367,30.613304138183597,149.24583435058594,0.9250363,-0.7991105,-2.9972167,285,1768267937,-13.253153800964355,12.879793167114258,72.23504638671875,-1.6686286,-4.725731,3.5972786
286,1768284604,15.354451179504396,29.557411193847656,148.7451171875,0.14521028,-0.5096301,-2.7549233,286,1768284604,-12.201820373535156,7.856366157531738,71.92035675048828,-2.4741306,-5.5419455,3.80902
287,1768301271,16.06099510192871,28.7095947265625,148.2481231689453,-0.21053053,-0.61894727,-2.8983636,287,1768301271,-11.293314933776855,2.196350336074829,71.58656311035156,-2.4559815,-7.1523814,3.9061718
288,1768317938,16.558456420898438,27.978673934936523,147.77806091308594,-0.7472276,-0.39299768,-1.4007835,288,1768317938,-10.387877464294434,-3.951031446456909,71.16244506835938,-2.1488721,-8.231606,2.1777296
289,1768334605,16.98046875,27.215776443481445,147.3081817626953,-0.8227181,-0.17564815,0.096476555,289,1768334605,-9.51983642578125,-10.414590835571287,70.63611602783203,-2.5450814,-7.881041,0.76125336
290,1768351272,17.367374420166016,26.320613861083984,146.80503845214844,-0.7008714,0.13533156,1.352808,290,1768351272,-8.6110200881958,-17.125858306884766,70.06159210205078,-2.6926863,-7.5528817,0.022839546
291,1768367939,17.761411666870117,25.210939407348636,146.3021697998047,-0.78100836,-0.1655076,1.5469456,291,1768367939,-7.689261436462402,-24.05509376525879,69.34630584716797,-3.1293623,-7.481548,-1.3124657
292,1768384606,18.22087287902832,23.903562545776367,145.9091796875,-0.8455324,-0.6495816,2.4983435,292,1768384606,-6.797830104827881,-31.04747200012207,68.39361572265625,-3.4361925,-6.234523,-2.8092232
293,1768401273,18.6092529296875,22.264986038208008,145.7010040283203,-0.16769864,-1.8140497,2.8330984,293,1768401273,-5.593647003173828,-38.04630661010742,67.14404296875,-1.9368339,-5.6096363,-3.2537646
294,1768417940,18.84971237182617,20.33989715576172,145.6390838623047,-0.09441752,-1.7599157,3.6581059,294,1768417940,-3.864599704742432,-44.77092742919922,65.43466186523438,-0.53922176,-2.475957,-4.4108863
295,1768434607,18.92061424255371,18.271520614624023,145.56260681152344,-0.00054419815,-0.56271726,3.871214,295,1768434607,-1.4595609903335571,-51.19652557373047,63.20323944091797,-1.1023735,-0.4296784,-4.624681
296,1768451274,18.820411682128903,16.0959529876709,145.38290405273438,0.3921651,-0.18469727,3.5345745,296,1768451274,1.7497104406356812,-57.55451965332031,60.290557861328125,-1.9005159,-1.8270534,-4.772884
297,1768467941,18.753049850463867,13.818775177001951,145.30819702148438,0.79685724,-0.5052156,1.9555922,297,1768467941,6.307092666625977,-63.63298797607422,56.18885803222656,-0.84269625,-1.5276532,-6.0982304
298,1768484608,18.97129821777344,11.456121444702148,145.26206970214844,0.7495616,-1.0280697,0.35075188,298,1768484608,13.14528465270996,-69.3094482421875,49.94034957885742,-0.36719647,-0.68166816,-6.293869
299,1768501275,19.26537704467773,9.078316688537598,145.199462890625,0.941184,-0.5838931,1.0843105,299,1768501275,23.98073959350586,-74.44647979736328,39.5911865234375,-0.5175798,1.7911923,-5.3496885
300,1768517942,19.687091827392575,6.609662055969238,145.11891174316406,1.2527776,-0.4270258,1.1585999,300,1768517942,42.85329818725586,-78.5489501953125,20.754806518554688,-2.0432723,1.5836924,-4.9637265
301,1768534609,20.021482467651367,4.134066581726074,145.107177734375,1.3459772,-1.3431427,-0.48036003,301,1768534609,73.66983032226562,-80.45317840576172,-9.952743530273438,-0.3517439,0.87833315,-5.182923
302,1768551276,20.381498336791992,1.609563231468201,145.06919860839844,1.3128031,-1.5622177,1.2490072,302,1768551276,105.02368927001952,-79.1443862915039,-40.916786193847656,1.2328135,1.3732116,-4.1549406
303,1768567943,20.79689216613769,-0.8985286951065063,145.06838989257812,1.664638,-1.3265142,2.0870981,303,1768567943,125.5156021118164,-75.7320556640625,-60.57885360717773,0.49569663,1.558864,-3.5660906
304,1768584610,21.05965614318848,-3.4715821743011475,145.21165466308594,1.2839514,-2.127427,0.25264168,304,1768584610,137.5043487548828,-71.30838775634766,-71.48331451416016,0.6574627,2.1300027,-3.7187705
305,1768601277,21.015853881835938,-6.018762588500977,145.51341247558594,0.5450483,-2.1264505,-0.9703798,305,1768601277,144.3376007080078,-66.39900207519531,-77.60667419433594,0.5584738,1.9316555,-4.191079
306,1768617944,20.71543312072754,-8.53770637512207,145.87220764160156,-0.13821413,-1.5628859,-1.4154158,306,1768617944,148.54835510253906,-61.27939224243164,-81.30184936523438,0.9759044,1.7010759,-3.967741
307,1768634611,20.210752487182617,-10.826455116271973,146.39434814453125,-0.043319017,-0.53807545,-1.6766491,307,1768634611,151.33714294433594,-56.08609390258789,-83.55088806152344,1.0021194,2.537961,-3.863388
308,1768651278,20.023881912231445,-12.937838554382324,146.94305419921875,1.8461381,-0.12757343,-0.07172108,308,1768651278,153.39358520507812,-50.86771774291992,-85.01760864257812,0.8268727,2.876473,-5.0707455
309,1768667945,19.799776077270508,-14.803425788879396,147.55606079101562,2.1788054,-0.86265385,-3.4267912,309,1768667945,155.0897674560547,-45.69504165649414,-86.00396728515625,0.6897164,3.486822,-5.4740086
310,1768684612,19.477394104003903,-15.966878890991213,148.4151611328125,0.4939209,-0.48765206,-7.222928,310,1768684612,156.4498291015625,-40.67400741577149,-86.60649871826172,0.8001184,3.1080272,-6.5838976
311,1768701279,19.17547607421875,-16.269855499267578,149.53793334960938,-1.5276531,2.3427622,-6.497196,311,1768701279,157.94598388671875,-35.92105865478516,-86.95922088623047,2.2777905,4.6470885,-5.9133506
312,1768717946,19.11720085144043,-16.041915893554688,150.7720489501953,-1.7015396,2.5327327,-4.064201,312,1768717946,159.6559600830078,-31.44504737854004,-87.18037414550781,2.2182436,7.307875,-2.7325492
313,1768734613,19.063573837280277,-15.638834953308104,152.07286071777344,-2.5017886,1.1802632,-3.475882,313,1768734613,160.96466064453125,-27.618675231933597,-87.23603057861328,1.423124,7.40415,1.9716845
314,1768751280,18.944351196289062,-15.34925937652588,153.2633514404297,-3.7584481,1.329226,-2.705501,314,1768751280,161.3027801513672,-24.845048904418945,-87.06385803222656,0.434083,7.925564,5.4583063
315,1768767947,18.99400520324707,-15.557320594787598,154.05068969726562,-3.682581,1.9510522,-2.0159526,315,1768767947,160.91551208496094,-23.286516189575195,-86.71682739257812,0.6276694,8.213713,6.74362
316,1768784614,19.29676628112793,-16.230995178222656,154.31045532226562,-3.0944757,2.183609,-1.2211514,316,1768784614,160.60923767089844,-23.07086944580078,-86.29448699951172,2.255666,7.6310425,5.7460318
317,1768801281,19.90390396118164,-17.161489486694336,154.05836486816406,-3.4384556,2.653202,-1.3176527,317,1768801281,160.51943969726562,-24.078582763671875,-85.86746215820312,2.1418645,7.34396,4.386194
318,1768817948,20.59654235839844,-17.996999740600586,153.46530151367188,-3.7519453,2.8572252,-2.6106668,318,1768817948,160.27865600585938,-25.886999130249023,-85.49092102050781,0.51191294,7.2448654,1.8941689
319,1768834615,21.08319091796875,-18.349552154541016,152.7715301513672,-3.7939165,2.352029,-3.3380914,319,1768834615,159.44537353515625,-28.16606330871582,-85.14810943603516,-0.12091101,6.4819837,-0.7696676
320,1768851282,21.34976959228516,-18.208086013793945,152.1334686279297,-2.8340461,2.2476773,-3.5567427,320,1768851282,158.5371551513672,-30.65458869934082,-85.0029296875,-0.07688689,5.1266007,-3.643621
321,1768867949,21.267370223999023,-17.70623016357422,151.51405334472656,-1.8487357,1.8810468,-3.3558187,321,1768867949,158.01136779785156,-33.252525329589844,-85.1070785522461,0.3275289,3.842466,-4.12808
322,1768884616,20.79665184020996,-16.969209671020508,150.91571044921875,-1.1635512,1.0117003,-3.170578,322,1768884616,157.8427734375,-35.97641372680664,-85.41178894042969,0.07904577,3.4057548,-3.381835
323,1768901283,19.7904052734375,-16.03179931640625,150.38076782226562,-0.8516066,0.31062555,-2.3731403,323,1768901283,157.71533203125,-38.91468811035156,-85.84607696533203,-0.79545265,3.6492045,-2.1053486
324,1768917950,18.66187858581543,-14.922539710998535,149.84222412109375,-0.7350335,-0.56233966,-2.1295872,324,1768917950,157.6066131591797,-42.07600021362305,-86.4189453125,-0.8129637,3.7879188,-1.4909458
325,1768934617,17.68096160888672,-13.807533264160156,149.34783935546875,-0.4329861,-0.4580626,-2.1925268,325,1768934617,157.68865966796875,-45.45426177978516,-87.13084411621094,-0.30909556,3.4549263,-1.3918066
326,1768951284,16.599449157714844,-12.642592430114746,149.01144409179688,0.15198702,-0.46813917,-1.4504519,326,1768951284,158.13485717773438,-49.06949234008789,-87.94973754882812,-0.09715963,3.1533225,-1.7958012
327,1768967951,15.314022064208984,-11.333773612976074,148.8530731201172,0.08467501,-0.5423567,-0.8255844,327,1768967951,158.83087158203125,-52.978424072265625,-88.77386474609375,0.44572154,3.7888293,-1.5001011
328,1768984618,14.150224685668944,-9.90282154083252,148.7310333251953,-0.3383677,-0.7978618,-0.9537964,328,1768984618,159.46383666992188,-57.09288787841797,-89.57398986816406,0.14488819,4.106859,-1.6078281
329,1769001285,13.137330055236816,-8.436568260192871,148.63755798339844,-0.27543545,-0.76923347,-1.4072762,329,1769001285,160.0537567138672,-61.3830680847168,-90.4134521484375,-0.37838376,3.9281902,-1.3248014
330,1769017952,12.116910934448242,-6.881785869598389,148.64125061035156,0.34427193,-0.9363302,-1.1801424,330,1769017952,160.4755096435547,-65.93681335449219,-91.26943969726562,-0.31043345,3.118891,-2.1503716
331,1769034619,11.16860008239746,-5.119710445404053,148.69894409179688,1.0758817,-1.2044103,-0.3233385,331,1769034619,160.8612518310547,-70.79121398925781,-92.14916229248048,0.54656136,3.1698232,-3.0421443
332,1769051286,10.481061935424805,-3.351188898086548,148.7030487060547,0.8394349,-0.8058194,0.13315296,332,1769051286,161.47080993652344,-75.7071533203125,-93.0984115600586,0.6422139,2.577112,-3.4000516
333,1769067953,9.952751159667969,-1.3804728984832764,148.7520294189453,0.11942187,-0.38136065,-0.06813145,333,1769067953,162.59352111816406,-80.47127532958984,-94.39689636230467,0.12336797,2.0336692,-3.1702738
334,1769084620,9.596644401550291,0.5677151679992676,148.92649841308594,0.5492932,-0.54292804,0.13941383,334,1769084620,164.81625366210938,-85.3279800415039,-96.92127227783205,-0.52185035,1.3672879,-3.2397075
335,1769101287,9.50770664215088,2.383124828338623,149.17236328125,1.5856769,-0.759788,0.6869488,335,1769101287,-59.33731842041016,-89.40390014648438,126.64006805419922,0.05542406,0.7249801,-3.9039636
336,1769117954,9.73526382446289,4.136966705322266,149.3361358642578,1.975421,-0.2188713,1.2472649,336,1769117954,-24.499380111694336,-84.28858947753906,91.2284164428711,0.46582848,0.32043487,-4.4026694
337,1769134621,10.175350189208984,5.891517639160156,149.3474578857422,1.301967,0.34062454,1.3855581,337,1769134621,-22.89737319946289,-79.19072723388672,89.51958465576172,0.54887587,-0.47477236,-3.9591336
338,1769151288,10.63222599029541,7.682828426361084,149.28756713867188,0.2107564,0.1329051,0.4496727,338,1769151288,-21.912010192871094,-74.15707397460938,88.6824951171875,0.819983,-0.5417032,-3.2678137
339,1769167955,11.011150360107422,9.52070140838623,149.31756591796875,-0.33582124,-0.77140695,0.44444275,339,1769167955,-21.33804702758789,-68.99375915527344,88.02293395996094,0.6887297,-0.33337227,-3.7553267
340,1769184622,11.50807762145996,11.249519348144531,149.46701049804688,0.35767865,-1.038939,1.8799429,340,1769184622,-21.30785369873047,-63.673709869384766,87.52783203125,0.6841126,-0.9146437,-4.172186
341,1769201289,11.86759090423584,13.027419090270996,149.66427612304688,0.62354314,-0.32190207,2.4501038,341,1769201289,-21.37583351135254,-58.39973831176758,87.05794525146484,0.77165234,-1.8141243,-3.8991609
342,1769217956,12.025547981262209,14.776178359985352,149.80758666992188,-0.16920772,0.41954064,1.6133957,342,1769217956,-21.202741622924805,-53.30690002441406,86.78142547607422,0.3704944,-3.6156523,-3.2920775
343,1769234623,11.809185981750488,16.560726165771484,149.98953247070312,-0.8079241,-0.52042514,-2.2882662,343,1769234623,-20.616527557373047,-48.28012847900391,86.59319305419922,1.3895955,-4.325134,-2.834278
344,1769251290,11.172353744506836,18.4458065032959,150.28692626953125,-0.25834543,-0.7529088,-2.0362377,344,1769251290,-20.163848876953125,-43.14787673950195,86.36356353759766,0.995281,-2.6432335,-3.373352
345,1769267957,10.435400009155272,20.292171478271484,150.61851501464844,0.9328723,-0.17887507,-0.18474674,345,1769267957,-20.25667381286621,-38.06603240966797,86.10601043701172,-0.7553606,-2.015627,-3.2133913
346,1769284624,9.70619010925293,22.013044357299805,150.81094360351562,1.0779396,0.20752253,1.1087723,346,1769284624,-20.78813743591309,-33.11621856689453,85.88001251220703,-0.41840464,-1.5989652,-2.8497653
347,1769301291,9.086173057556152,23.54328155517578,150.93759155273438,0.5485719,0.49047527,3.6702442,347,1769301291,-21.72494888305664,-28.019744873046875,85.64714813232422,0.26653183,-1.6331452,-2.2787538
348,1769317958,8.774693489074707,24.772600173950195,151.01467895507812,0.34782633,0.402635,3.559308,348,1769317958,-22.491605758666992,-22.7463436126709,85.57698822021484,0.30641302,-3.6845472,-1.3495817
349,1769334625,8.428179740905762,26.06148147583008,151.2069549560547,-0.050990403,-0.09772042,-0.20464706,349,1769334625,-22.63107109069824,-17.42804718017578,85.54655456542969,1.921257,-4.9890795,-1.3367376
350,1769351292,8.158429145812988,27.514385223388672,151.6182403564453,-0.9706966,0.4431792,-1.482707,350,1769351292,-22.47698402404785,-12.18307113647461,85.2967300415039,1.8709741,-4.847247,-1.3523016
351,1769367959,8.017510414123535,29.037525177001957,152.1605224609375,-1.1762654,0.35457844,-1.0404558,351,1769367959,-22.58666610717773,-6.987438201904297,84.7878189086914,0.30636194,-3.6593254,-1.316122
352,1769384626,8.121960639953613,30.405385971069336,152.77105712890625,0.11030512,0.051926922,1.2002888,352,1769384626,-23.071407318115234,-1.8337527513504028,84.20000457763672,-0.42809334,-4.099047,-0.2596016
353,1769401293,8.295753479003906,31.56365394592285,153.2228240966797,1.4961014,-0.1892326,2.0757065,353,1769401293,-23.61712455749512,3.370478391647339,83.66728973388672,0.21437642,-5.328421,0.71908
354,1769417960,8.163775444030762,32.750736236572266,153.530517578125,1.0200899,-0.24425183,0.81960773,354,1769417960,-23.84903335571289,8.610269546508789,83.13402557373047,1.5399415,-6.0434413,0.9706316
355,1769434627,7.893350124359131,34.09334945678711,153.8878173828125,0.1516038,0.12526275,-1.1636343,355,1769434627,-24.04514503479004,13.735072135925291,82.49554443359375,0.52085763,-5.9468446,1.3168879
356,1769451294,7.668964862823486,35.63432312011719,154.27841186523438,0.7846298,0.45702067,-1.7778425,356,1769451294,-24.550704956054688,18.71588897705078,81.82352447509766,-0.7585202,-5.356763,1.6234341
357,1769467961,7.638884544372559,37.20499801635742,154.6673126220703,1.3006058,0.33281425,-1.3362808,357,1769467961,-25.390989303588867,23.553695678710938,81.13591003417969,-0.70291203,-4.924157,1.8284664
358,1769484628,7.657787799835205,38.81599426269531,155.1322021484375,0.7725646,-0.65009284,-2.1080337,358,1769484628,-26.351224899291992,28.060880661010746,80.41197967529297,-0.33934495,-4.3119307,2.8564463
359,1769501295,7.450917720794678,40.80720901489258,155.6527557373047,0.46640792,-0.90487957,-2.86865,359,1769501295,-27.18613815307617,32.23136901855469,79.64945220947266,-0.46648973,-3.4171946,2.8253574
360,1769517962,6.909359455108643,43.21163177490234,156.1348114013672,0.8747245,-1.37195,-1.5064774,360,1769517962,-27.97081756591797,36.158935546875,78.91556549072266,-0.7983952,-2.5317373,3.0278645
361,1769534629,6.02808141708374,45.51710510253906,156.4347686767578,1.3096123,-1.8707696,3.304268,361,1769534629,-29.10002899169922,40.00676345825195,78.06865692138672,-0.88437796,-3.330941,3.7983494
362,1769551296,5.286489963531494,47.02329254150391,156.7144775390625,-1.3298475,-0.7064897,4.796815,362,1769551296,-31.108346939086918,44.11848449707031,76.91063690185547,-1.109155,-1.9506991,3.97015
363,1769567963,5.439637184143066,48.304718017578125,157.06057739257812,-1.264198,1.5403568,1.5589123,363,1769567963,-33.38497543334961,48.15582656860352,75.51203155517578,-1.0358995,0.12958923,4.9576035
364,1769584630,5.861976623535156,49.90017318725586,157.46006774902344,-0.32882088,0.72533196,0.27005863,364,1769584630,-35.221214294433594,52.01339340209961,74.02188873291016,-0.0438462,1.874398,6.458626
365,1769601297,6.37847375869751,51.510841369628906,158.09254455566406,0.9310277,-0.8453095,0.6240988,365,1769601297,-36.79087448120117,55.50056838989258,72.35176086425781,0.9898718,3.428539,7.130438
366,1769617964,6.636744976043701,52.79575729370117,158.7683563232422,0.94003916,-1.0820298,0.29829502,366,1769617964,-38.10722351074219,58.47066879272461,70.73897552490234,0.11815185,5.3987246,6.871643
367,1769634631,6.645761966705322,54.03651809692383,159.4249725341797,0.37944838,0.28042406,0.57579803,367,1769634631,-38.99321746826172,60.64926528930664,69.56428527832031,-0.6355763,7.4130316,6.0588837
368,1769651298,6.748109817504883,55.15026092529297,160.01351928710938,-0.2824311,1.4743941,1.5379286,368,1769651298,-39.593631744384766,62.04826736450195,69.01891326904297,-0.33719298,8.8742,5.5730333
369,1769667965,7.152416706085205,55.97550201416016,160.6509246826172,-1.3777354,2.2831428,2.9059572,369,1769667965,-39.88359069824219,62.84089660644531,69.0092544555664,1.181631,9.689973,5.795763
370,1769684632,7.335107803344727,56.46316146850586,161.30369567871094,-2.8291502,1.7842315,3.740552,370,1769684632,-39.730281829833984,63.15744018554688,69.34517669677734,1.5610557,9.895157,5.850733
371,1769701299,7.147605419158936,56.68375396728516,161.73397827148438,-2.891701,1.3772273,4.210451,371,1769701299,-39.262691497802734,63.09197616577149,69.93893432617188,1.434262,9.549207,5.8012486
372,1769717966,7.116583347320557,56.53732681274414,161.99600219726562,-1.9567243,1.836667,2.9785862,372,1769717966,-38.55163192749024,62.712646484375,70.69015502929688,1.4572054,8.529844,4.904106
373,1769734633,7.42044734954834,56.19767379760742,162.22134399414062,-0.48623154,1.7694042,2.077219,373,1769734633,-37.58842468261719,61.87215805053711,71.63211822509766,1.612327,7.923411,5.031048
374,1769751300,7.761810779571533,55.70866012573242,162.29795837402344,-0.17546403,1.6238333,0.9362297,374,1769751300,-36.22319030761719,60.57588195800781,72.84033966064453,1.4296467,6.4399786,4.141427
375,1769767967,8.008757591247559,55.1606330871582,162.274169921875,0.05977706,0.9005655,0.13630009,375,1769767967,-34.64787292480469,58.801544189453125,74.23088073730469,1.2814937,5.1359415,3.5463486
376,1769784634,8.073909759521484,54.61596298217773,162.1857147216797,0.17847928,0.74053216,-0.41684055,376,1769784634,-33.00297927856445,56.52873229980469,75.76107025146484,0.9083924,4.0753493,3.474205
377,1769801301,7.94854736328125,54.130977630615234,162.0296630859375,0.20397566,0.6018985,-0.59648037,377,1769801301,-31.235366821289062,53.8690071105957,77.29222106933594,1.316426,2.9959195,3.302722
378,1769817968,7.661839008331299,53.68033599853516,161.77947998046875,-0.15269533,0.6511016,-0.04573822,378,1769817968,-29.40631103515625,50.87706756591797,78.63924407958984,1.7947215,2.291215,3.6267214
379,1769834635,7.31076717376709,53.21059036254883,161.4498748779297,-0.4719494,0.3864562,0.23474216,379,1769834635,-27.63632202148437,47.68712615966797,79.77436065673828,1.5617324,1.0692066,3.4399624
380,1769851302,6.876147747039795,52.71010208129883,161.04515075683594,-0.40505677,0.24092764,0.32874584,380,1769851302,-26.15294647216797,44.289024353027344,80.68046569824219,1.13784,0.021622196,3.1125326
381,1769867969,6.419824123382568,52.19765472412109,160.58721923828125,0.18934028,0.13276525,0.13859558,381,1769867969,-24.86415100097656,40.673858642578125,81.42230224609375,1.0305766,-0.8008279,2.9552631
382,1769884636,6.0172438621521,51.70451736450195,160.11053466796875,0.6306238,0.46660838,-0.044934273,382,1769884636,-23.65191078186035,36.89033126831055,81.92499542236328,1.7780766,-1.1721201,3.3943176
383,1769901303,5.62341833114624,51.21355819702149,159.6054229736328,0.66755086,0.9036797,-0.12723827,383,1769901303,-22.409160614013672,33.05207061767578,82.34751892089844,1.3185477,-1.6000199,3.4472742
384,1769917970,5.372032165527344,50.79407501220703,159.09280395507812,0.77458495,0.85128313,-0.3125887,384,1769917970,-21.19025993347168,29.062715530395508,82.75248718261719,0.41026223,-2.2272534,3.2506027
385,1769934637,5.205923557281494,50.4422607421875,158.51759338378906,0.6007228,0.7320274,-0.26905537,385,1769934637,-20.11357879638672,24.81546401977539,83.09746551513672,0.0028014556,-2.8615732,3.1455317
386,1769951304,5.208841800689697,50.08234024047852,157.9073486328125,0.3162869,0.36217815,0.14736748,386,1769951304,-19.179012298583984,20.323448181152344,83.34976959228516,0.52112174,-2.9815066,3.428008
387,1769967971,5.3502583503723145,49.606693267822266,157.29611206054688,0.12145786,-0.118194826,0.71708775,387,1769967971,-18.42881202697754,15.70271110534668,83.51704406738281,-0.16848268,-3.1124918,3.1673994
388,1769984638,5.44113302230835,49.01777267456055,156.6228790283203,-0.17340375,0.0052372995,1.6185417,388,1769984638,-17.7242488861084,11.069478034973145,83.66703796386719,-0.06741867,-3.17684,2.4705067
389,1770001305,5.614097595214844,48.241188049316406,155.96896362304688,-0.8627392,0.293201,2.7346916,389,1770001305,-17.098106384277344,6.467278480529785,83.7685317993164,0.07041298,-2.2081342,1.5264387
390,1770017972,6.019489288330078,47.22353363037109,155.3859100341797,-1.6013765,1.0858088,3.0793676,390,1770017972,-16.71355438232422,1.971805453300476,83.83259582519531,-1.1082604,-0.4233617,1.2703037
391,1770034639,6.858950138092041,46.03596115112305,154.9191436767578,-1.1720023,0.58279073,2.117158,391,1770034639,-16.340776443481445,-2.6408591270446777,83.91608428955078,-0.8635622,-0.8927266,2.96041
392,1770051306,7.815534591674805,44.6291389465332,154.59072875976562,-0.79526895,-0.045121007,1.2557869,392,1770051306,-15.646310806274414,-7.442306518554687,83.94944763183594,0.6872391,-2.6381516,2.9608173
393,1770067973,8.820178031921387,42.95078659057617,154.26963806152344,-1.1020023,-0.16665657,2.0520868,393,1770067973,-14.75294589996338,-12.250244140625,83.92464447021484,0.8360712,-2.1389222,1.6493883
394,1770084640,9.640135765075684,41.0789909362793,153.8778076171875,-1.0160592,-0.03930721,2.9107733,394,1770084640,-14.171396255493164,-16.978252410888672,83.8898696899414,-0.6845989,-0.21253233,0.50331783
395,1770101307,10.50094509124756,39.02767181396485,153.4375762939453,-1.0885693,0.34204432,4.308099,395,1770101307,-14.168343544006348,-21.605388641357425,83.82188415527344,-1.4681443,1.0714258,0.41396332
396,1770117974,11.693583488464355,36.76533508300781,153.07037353515625,-1.0351347,0.2376801,4.260029,396,1770117974,-14.349151611328123,-26.226686477661133,83.74845123291016,-0.8784323,-0.09280747,1.3540039
397,1770134641,12.862174034118652,34.31291580200195,152.88748168945312,-0.3412759,-0.50000685,2.8225765,397,1770134641,-14.10318088531494,-30.83503532409668,83.68685150146484,0.5014567,-2.0277743,1.083231
398,1770151308,13.875898361206056,31.606407165527344,152.8124237060547,-0.30809867,-1.6538591,1.5762558,398,1770151308,-13.291600227355955,-35.36906433105469,83.55729675292969,1.223549,-2.8344631,0.15028572
399,1770167975,14.611781120300291,28.796422958374023,152.87222290039062,0.22408037,-1.6265365,1.2886009,399,1770167975,-12.406298637390137,-39.85421752929688,83.34226989746094,0.034694575,-2.334877,-0.47279453
400,1770184642,15.148037910461426,26.05408477783203,152.94705200195312,0.48725304,-0.90713024,2.0875435,400,1770184642,-11.926772117614746,-44.29795837402344,83.03690338134766,-1.3685726,-1.6708183,-0.37516594
401,1770201309,15.569513320922852,23.341760635375977,153.0351104736328,1.0273399,-0.82555765,1.8627787,401,1770201309,-11.658576965332031,-48.868011474609375,82.71863555908203,-1.1579424,-2.6491423,-0.22401619
402,1770217976,15.774969100952148,20.58345413208008,153.15670776367188,1.1132854,-0.8106522,1.1665344,402,1770217976,-11.132115364074709,-53.52126693725586,82.36063385009766,0.62634254,-3.5628033,-0.8105383
403,1770234643,15.835100173950195,17.749832153320312,153.31613159179688,0.87565976,-0.97235847,1.1707277,403,1770234643,-10.163798332214355,-58.24573516845703,81.80513763427734,0.7800546,-4.516172,-2.0541658
404,1770251310,15.66146469116211,14.762591361999512,153.55665588378906,1.2594819,-1.7739923,-1.1146564,404,1770251310,-8.718703269958496,-63.09066390991211,81.03036499023438,0.640492,-4.847604,-3.4655786
405,1770267977,15.318169593811035,11.72382926940918,153.84286499023438,1.4728245,-1.4389212,-1.101718,405,1770267977,-6.850338935852051,-67.92501831054688,79.6463394165039,0.34162593,-3.7052248,-3.9334397
406,1770284644,15.01220989227295,8.848549842834473,154.1157989501953,1.8028257,-0.71570116,-0.6897173,406,1770284644,-4.423802375793457,-72.76918029785156,77.2850341796875,-0.8055123,-2.8088188,-4.412847
407,1770301311,14.933513641357422,5.947657585144043,154.24896240234375,2.2300618,-0.5404745,-0.33980465,407,1770301311,-0.1641529649496078,-77.69419860839844,72.89912414550781,-0.5943189,-3.4872136,-5.2106
408,1770317978,14.80908489227295,3.1868703365325928,154.5038299560547,2.1599758,-1.4038725,-2.365049,408,1770317978,10.451740264892578,-82.47908782958984,62.48381423950195,1.404703,-3.3177137,-6.3429403
409,1770334645,14.473881721496582,0.6022265553474426,154.8512420654297,1.3567488,-1.3057954,-2.6401277,409,1770334645,47.42618942260742,-86.13365936279297,26.090845108032227,2.1779575,-1.9080472,-6.666708
410,1770351312,14.046001434326172,-1.756534457206726,155.2021484375,1.0862257,-0.8310293,-1.9949279,410,1770351312,115.75019073486328,-85.26252746582031,-41.62541580200195,0.47282243,0.11620003,-6.205897
411,1770367979,13.67717742919922,-3.933151245117188,155.49081420898438,1.3072999,-0.1347183,-1.7070465,411,1770367979,140.3694610595703,-81.25513458251953,-65.80517578125,-0.5255869,0.7437281,-6.1750197
412,1770384646,13.51885986328125,-6.061670303344727,155.68299865722656,1.5388682,-0.05549839,-1.2025604,412,1770384646,148.92588806152344,-76.81118774414062,-73.9191665649414,0.5675779,1.4361962,-6.336275
413,1770401313,13.381976127624512,-8.00440788269043,155.85134887695312,0.72180086,-0.1134528,-2.377059,413,1770401313,153.10484313964844,-72.38966369628906,-77.56008911132812,1.1321231,2.2056484,-6.4894304
414,1770417980,13.16661548614502,-9.716516494750977,156.0885467529297,-0.10049141,-0.30344993,-3.508109,414,1770417980,155.57078552246094,-68.08389282226562,-79.4503173828125,1.0044575,3.190985,-5.516628
415,1770434647,12.962053298950195,-11.193166732788086,156.3313446044922,0.063874446,0.3066828,-1.7894268,415,1770434647,156.99884033203125,-64.01321411132812,-80.40957641601562,0.7559006,4.0739408,-3.6921535
416,1770451314,13.03275203704834,-12.419480323791504,156.54037475585938,-0.0055118157,0.88193566,-2.0494246,416,1770451314,157.9218292236328,-60.12898254394531,-81.00763702392578,0.10155006,4.6148715,-3.696344
417,1770467981,13.259317398071287,-13.481271743774414,156.71636962890625,0.12138173,1.0438755,-1.9927797,417,1770467981,158.74554443359375,-56.47013092041016,-81.40921783447266,0.26060733,4.7841616,-3.7483444
418,1770484648,13.43446922302246,-14.394627571105955,156.89186096191406,-1.0207187,0.46601927,-3.5683136,418,1770484648,159.5326690673828,-53.1645393371582,-81.6572265625,1.0176213,4.837062,-3.3504329
419,1770501315,13.59043025970459,-14.89282512664795,157.15977478027344,-2.1888409,0.8884109,-3.1398692,419,1770501315,160.23524475097656,-50.13009643554688,-81.7474594116211,0.8155752,4.8911448,-2.9395227
420,1770517982,13.86272430419922,-14.923324584960938,157.4866180419922,-2.6844902,1.1187396,-3.411129,420,1770517982,160.7761688232422,-47.310848236083984,-81.71041107177734,-0.33989933,5.7077503,-2.1379442
421,1770534649,14.038368225097656,-14.691262245178224,157.88877868652344,-2.1788077,0.8320002,-3.6957026,421,1770534649,161.03819274902344,-44.88997268676758,-81.53376007080078,-0.089627214,5.528601,-1.1829815
422,1770551316,14.153554916381836,-14.291471481323242,158.28466796875,-2.49761,0.9025452,-2.8065586,422,1770551316,161.1808624267578,-42.92261505126953,-81.27251434326172,1.0329893,5.91244,0.48736095
423,1770567983,14.297829627990724,-13.925070762634276,158.62841796875,-2.010718,0.6051237,-1.0861588,423,1770567983,161.27914428710938,-41.59321594238281,-80.93031311035156,0.26878646,6.3138094,2.8887453
424,1770584650,14.642480850219728,-13.658329010009766,158.88623046875,-1.6033088,0.48770443,-0.8478441,424,1770584650,161.16372680664062,-40.9274787902832,-80.5726547241211,-0.86624795,6.773553,3.4823866
425,1770601317,14.982519149780272,-13.37578582763672,159.0586395263672,-2.4815173,0.80061924,-1.7907343,425,1770601317,160.8190155029297,-40.981258392333984,-80.16617584228516,-0.44200397,6.707217,3.0565395
426,1770617984,15.288774490356444,-13.027006149291992,159.1524200439453,-2.761699,1.2173347,-1.4583683,426,1770617984,160.53482055664062,-41.7484130859375,-79.73640441894531,0.89866704,6.068189,2.533207
427,1770634651,15.41627025604248,-12.723773956298828,159.17807006835938,-1.9967251,1.1270593,-0.6615696,427,1770634651,160.35643005371094,-43.13962173461914,-79.29118347167969,0.8474935,5.865982,2.6072664
428,1770651318,15.287325859069824,-12.3812255859375,159.1086883544922,-1.6552292,0.48528793,-0.6324539,428,1770651318,160.08921813964844,-45.0197639465332,-78.81665802001953,0.18336484,5.7853613,1.7735386
429,1770667985,15.220630645751951,-11.912188529968262,159.0126953125,-1.6090138,0.45475695,-1.0951204,429,1770667985,159.5192413330078,-47.24146270751953,-78.27176666259766,-0.062082957,5.0691967,0.48905945
430,1770684652,15.284249305725098,-11.389068603515623,158.91432189941406,-1.0126091,1.0884329,-1.3367872,430,1770684652,158.6962890625,-49.65023422241211,-77.6645736694336,0.0710018,3.995663,-0.28661346
431,1770701319,15.424127578735352,-10.851024627685549,158.81301879882812,-0.19089857,1.2126838,-0.6374674,431,1770701319,157.79344177246094,-52.201698303222656,-76.97522735595703,0.4157706,2.9700387,-0.76065826
432,1770717986,15.56899642944336,-10.286242485046388,158.73509216308594,-0.014995792,0.6491936,-0.5874138,432,1770717986,156.92880249023438,-54.79898452758789,-76.16840362548828,1.3033861,2.3341906,-1.6853933
433,1770734653,15.70407009124756,-9.688836097717283,158.71705627441406,-0.102257915,0.024590407,-0.7145138,433,1770734653,155.96160888671875,-57.46596145629883,-75.1594009399414,1.3836143,1.8722024,-1.6321707
434,1770751320,15.815712928771973,-9.087054252624512,158.71556091308594,0.012837467,-0.07715649,-1.0973549,434,1770751320,154.85000610351562,-60.13798522949219,-73.92627716064453,1.1618338,1.3950424,-1.6959076
435,1770767987,15.80942440032959,-8.45982837677002,158.69515991210938,0.39000317,-0.041978255,-1.1054535,435,1770767987,153.32672119140625,-62.8031120300293,-72.34112548828125,0.735267,1.1374023,-1.568326
436,1770784654,15.67327117919922,-7.734836578369141,158.65493774414062,0.7183057,0.0826209,-0.7028923,436,1770784654,151.34315490722656,-65.53703308105469,-70.34675598144531,0.8136019,1.239529,-1.5360794
437,1770801321,15.59210968017578,-6.960232257843018,158.5586395263672,0.7380184,0.0529315,-0.35577202,437,1770801321,148.48475646972656,-68.24536895751953,-67.60009002685547,0.82078296,1.6147432,-1.578826
438,1770817988,15.528271675109863,-6.11747407913208,158.49220275878906,0.5211008,-0.33662665,-0.7212877,438,1770817988,144.7412109375,-70.95610046386719,-63.870548248291016,0.99112463,1.7668896,-1.5170002
439,1770834655,15.467463493347168,-5.1893696784973145,158.49790954589844,0.4655589,-0.52429175,-0.63374615,439,1770834655,139.39869689941406,-73.57866668701172,-58.57720565795898,1.2828898,1.8984683,-1.8464446
440,1770851322,15.486251831054688,-4.199900627136231,158.52359008789062,0.47018734,-0.3427451,-0.66125965,440,1770851322,131.657470703125,-76.10781860351562,-50.89424896240234,0.98018223,2.141517,-1.9925237
441,1770867989,15.49759006500244,-3.0953519344329834,158.49696350097656,0.46101534,0.23752812,-0.5934582,441,1770867989,119.86946868896484,-78.34523010253906,-39.3148078918457,0.65594614,2.1303718,-2.2529655
442,1770884656,15.53418254852295,-1.8335685729980469,158.4034423828125,0.44145212,0.71534956,-0.5636921,442,1770884656,103.27912139892578,-79.91663360595703,-22.93233299255371,0.24581218,1.5769848,-2.7618542
443,1770901323,15.617581367492676,-0.4461639523506164,158.31158447265625,0.4233516,0.5622364,-0.7270155,443,1770901323,82.54936981201172,-80.42529296875,-2.3568830490112305,0.49745995,1.3589983,-3.1582966
444,1770917990,15.819828033447266,0.9514368176460266,158.20956420898438,0.5924497,0.19364351,-0.6816616,444,1770917990,61.58927917480469,-79.63507843017578,18.401857376098636,0.93488306,1.5380259,-3.283733
445,1770934657,16.058095932006836,2.3275725841522217,158.07974243164062,0.7305567,-0.081440255,-0.7409563,445,1770934657,44.68464279174805,-77.68540954589844,35.03858947753906,0.8448934,1.4884286,-3.4942508
446,1770951324,16.25141716003418,3.78152060508728,157.90032958984375,0.62065,0.23065172,-0.7500801,446,1770951324,32.76069259643555,-74.98048400878906,46.63230514526367,0.6426045,0.90878713,-3.6765761
447,1770967991,16.437402725219727,5.278455257415772,157.60067749023438,0.6237511,0.70306706,-0.19719505,447,1770967991,24.4720516204834,-71.83015441894531,54.51533126831055,0.44171333,0.5909072,-3.5241432
448,1770984658,16.58776092529297,6.756463050842285,157.18136596679688,0.6185226,0.93852186,0.26942062,448,1770984658,18.514873504638672,-68.40772247314453,60.11548614501953,0.28254372,-0.033838633,-3.7026544
449,1771001325,16.646072387695312,8.314260482788086,156.752197265625,0.35096383,0.37981772,-0.42352104,449,1771001325,14.03924560546875,-64.76874542236328,64.31868743896484,0.80232537,-0.13814989,-4.055975
450,1771017992,16.687931060791016,10.026252746582031,156.433837890625,0.17076479,-0.23382531,-1.0835648,450,1771017992,10.438468933105469,-60.948238372802734,67.5671615600586,0.9510358,0.17789799,-3.8766904
451,1771034659,16.650836944580078,11.872284889221191,156.18223571777344,0.27681527,0.1025381,-0.9233036,451,1771034659,7.357447624206543,-56.95293426513672,70.14293670654297,0.48065713,0.40276575,-3.5918212
452,1771051326,16.52933692932129,13.76731014251709,155.8666229248047,0.5902893,0.90225977,0.64140415,452,1771051326,4.609548568725586,-52.811283111572266,72.20510864257812,0.08382294,0.04018763,-3.7369337
453,1771067993,16.45063018798828,15.5523099899292,155.3228759765625,1.1134793,1.3117851,2.045704,453,1771067993,2.10134506225586,-48.60788345336914,73.9295883178711,-0.2767315,-1.6721709,-4.2956843
454,1771084660,16.26225471496582,17.45549774169922,154.7153778076172,0.4412126,-0.76155055,-1.3973475,454,1771084660,-0.0297939088195562,-44.36425018310547,75.35640716552734,1.3899325,-2.8844957,-4.4648595
455,1771101327,15.797626495361328,19.664424896240234,154.31561279296875,-0.31920782,-1.5637159,-2.3142414,455,1771101327,-1.6497058868408203,-40.01552963256836,76.37723541259766,2.6040306,-2.6662967,-3.7984433
456,1771117994,15.058147430419922,22.002450942993164,154.12144470214844,-0.059711907,-1.1626694,-1.4955711,456,1771117994,-2.766780376434326,-35.46738815307617,77.01424407958984,2.1968498,-1.8311397,-3.3202257
457,1771134661,14.180866241455078,24.27556800842285,153.99136352539062,0.9304866,-0.5769388,0.5358076,457,1771134661,-3.844316005706787,-30.75069046020508,77.40788269042969,0.53169394,-1.6062175,-3.095492
458,1771151328,13.42140293121338,26.366268157958984,153.7381134033203,1.8370333,0.31587276,2.2484732,458,1771151328,-5.158646106719971,-25.86225891113281,77.78425598144531,-0.2511034,-1.5469369,-3.316475
459,1771167995,12.817733764648438,28.31963539123535,153.25978088378906,1.4298929,0.9714491,2.7658052,459,1771167995,-6.685662746429443,-20.730976104736328,78.10694122314453,0.49679273,-1.572136,-3.6579494
460,1771184662,12.440699577331545,30.17597770690918,152.67185974121094,0.08050529,1.9040014,3.2443476,460,1771184662,-8.332815170288086,-15.34377098083496,78.40677642822266,0.41176078,-1.8313432,-3.5587168
461,1771201329,12.25055694580078,31.843263626098636,152.00645446777344,-0.6650446,1.9176209,2.8543692,461,1771201329,-10.219669342041016,-9.65207290649414,78.75432586669922,-0.41122216,-2.620504,-3.470182
462,1771217996,12.176717758178713,33.41095733642578,151.42527770996094,-1.0432857,-0.13217634,1.7788029,462,1771217996,-12.270371437072754,-3.614076852798462,78.95550537109375,0.5292347,-3.8647692,-2.9055357
463,1771234663,12.5711088180542,34.73637390136719,151.20025634765625,-1.6645106,-2.1893833,3.2146864,463,1771234663,-14.189163208007812,2.8005447387695312,78.7232894897461,0.23881973,-4.9521356,-1.7105236
464,1771251330,13.091232299804688,35.454551696777344,151.26458740234375,-2.6252692,-3.43762,3.2149334,464,1771251330,-15.745682716369627,9.614420890808104,78.12577056884766,-1.3263221,-6.373811,-0.6021986
465,1771267997,12.98348903656006,35.86726760864258,151.53460693359375,-3.0754583,-2.283027,2.0234985,465,1771267997,-17.13976287841797,16.78668212890625,77.35025024414062,-2.5006595,-7.8617277,0.5455189
466,1771284664,12.432000160217283,36.39210510253906,151.90451049804688,-2.7761824,-0.04250328,0.3001938,466,1771284664,-18.6185302734375,24.200767517089844,76.38545227050781,-2.889907,-9.166975,2.2965183
467,1771301331,11.95916748046875,37.17169952392578,152.30767822265625,-1.124702,0.59889483,-2.574686,467,1771301331,-20.25510025024414,31.648948669433597,75.15416717529297,-3.4190016,-10.042685,4.4681425
468,1771317998,11.838005065917969,38.4913330078125,152.84536743164062,0.9863378,-1.5331652,-5.144212,468,1771317998,-22.03734397888184,38.75870895385742,73.71379089355469,-3.1094193,-9.064667,7.0608234
469,1771334665,11.68666934967041,40.25052261352539,153.47349548339844,2.3871665,-4.165766,-5.2837706,469,1771334665,-24.021440505981445,45.10177993774414,72.0618667602539,-2.7910554,-6.1856704,8.248886
470,1771351332,11.257131576538086,42.44712066650391,154.11607360839844,2.8771658,-4.3078537,-4.8566427,470,1771351332,-25.823137283325195,50.48252487182617,70.44923400878906,-2.3845963,-1.6630898,8.289419
471,1771367999,10.966768264770508,44.91468811035156,154.7547149658203,3.8733208,-2.9874127,-4.969402,471,1771367999,-27.17985343933105,54.725582122802734,69.12435913085938,-1.1580356,2.322571,7.4975376
472,1771384666,10.610300064086914,47.58338165283203,155.34877014160156,3.077873,-1.5378683,-3.7259817,472,1771384666,-28.16084861755371,57.84600067138672,68.21207427978516,-0.7229312,3.7758646,5.1405926
473,1771401333,10.307924270629885,50.21455383300781,156.1505584716797,0.22024462,0.8462618,0.7619791,473,1771401333,-29.31949234008789,60.20703125,67.61334228515625,-0.24262734,4.521329,4.320244
474,1771418000,10.233314514160156,52.565731048583984,157.022705078125,-2.1402004,3.0911272,5.17704,474,1771418000,-30.98894500732422,62.20259475708008,67.24030303955078,-0.026636263,6.8960443,6.133911
475,1771434667,10.472330093383787,54.424781799316406,158.0028839111328,-3.4894824,2.758245,6.5946846,475,1771434667,-32.70254135131836,64.01676177978516,67.12616729736328,0.9913063,9.411565,7.9214745
476,1771451334,10.77173900604248,55.73341751098633,159.1544647216797,-3.4501178,1.384087,6.0378704,476,1771451334,-33.80606460571289,65.5997543334961,67.0085220336914,3.4104965,11.075353,8.93162
477,1771468001,10.964045524597168,56.535037994384766,160.14590454101562,-2.1313314,1.536701,5.0037985,477,1771468001,-34.0324821472168,66.83922576904297,66.82804870605469,4.670701,11.477448,8.080036
478,1771484668,11.221623420715332,56.92815399169922,160.891357421875,-0.2347271,2.232709,3.8391,478,1771484668,-33.60835647583008,67.53741455078125,66.77713012695312,3.5688894,10.366129,6.794924
479,1771501335,11.629315376281738,56.96527099609375,161.48202514648438,0.214149,2.5565608,3.1475096,479,1771501335,-33.12800216674805,67.65959167480469,67.17401885986328,2.1735313,8.14323,5.2701035
480,1771518002,11.89805030822754,56.78200912475586,161.95504760742188,-0.33118686,2.1911383,2.2622404,480,1771518002,-32.65132141113281,67.16089630126953,68.26239013671875,1.7014825,8.313867,4.435111
481,1771534669,11.86899185180664,56.48990631103516,162.27256774902344,-0.5217318,2.1810935,2.0857687,481,1771534669,-31.831222534179688,66.09916687011719,69.84022521972656,2.918112,8.787022,4.612137
482,1771551336,11.74972152709961,56.0116081237793,162.3870086669922,-0.48490945,2.3443356,2.2083168,482,1771551336,-30.402040481567383,64.58749389648438,71.46971893310547,4.0532813,8.130419,5.038903
483,1771568003,11.709897994995115,55.27960968017578,162.25416564941406,-0.65748197,2.7925513,2.290944,483,1771568003,-28.448637008666992,62.799896240234375,72.95697021484375,3.8055646,6.523887,4.6044073
484,1771584670,11.847643852233888,54.30443572998047,161.95883178710938,-0.3865449,2.150595,1.8039322,484,1771584670,-26.46622467041016,60.73845672607422,74.22663116455078,3.2231655,5.412351,4.116351
485,1771601337,11.965402603149414,53.21014404296875,161.53823852539062,-0.10445236,1.7500117,1.0893049,485,1771601337,-24.642070770263672,58.34944534301758,75.29920196533203,2.9427693,3.8092499,3.5316343
486,1771618004,12.069101333618164,52.10426712036133,160.96572875976562,0.28641918,0.71709627,0.583436,486,1771618004,-23.10881805419922,55.614524841308594,76.19963836669922,2.6002052,3.2322297,4.0408745
487,1771634671,12.030279159545898,50.96862411499024,160.2943878173828,0.09242431,0.28933522,0.7607527,487,1771634671,-21.722057342529297,52.54385757446289,76.85942077636719,2.722836,2.5355828,4.6646137
488,1771651338,11.859944343566896,49.78099822998047,159.54139709472656,-0.21650915,0.6392081,1.0533457,488,1771651338,-20.330781936645508,49.20803451538086,77.3671646118164,2.3578744,1.7769351,4.988057
489,1771668005,11.616887092590332,48.5218620300293,158.7041015625,-0.017506987,1.1972932,1.1477633,489,1771668005,-19.00181579589844,45.631324768066406,77.74419403076172,2.070373,1.0176831,4.4382915
490,1771684672,11.50214385986328,47.17314529418945,157.7714385986328,-0.13257442,1.5225385,1.299511,490,1771684672,-17.950727462768555,41.95970916748047,77.92813873291016,1.8725694,0.35688537,3.9074793
491,1771701339,11.490633964538574,45.79281997680664,156.85122680664062,0.29628837,1.3729826,0.6740465,491,1771701339,-17.07837677001953,38.04754257202149,78.0020751953125,1.3325348,0.22006549,5.0104885
492,1771718006,11.63978672027588,44.430641174316406,155.9656524658203,0.7272461,0.7446168,0.10949898,492,1771718006,-16.066265106201172,33.84901428222656,78.04303741455078,1.2352415,-0.51811934,5.73368
493,1771734673,12.0244722366333,43.08218002319336,155.0914306640625,0.6495975,0.5565495,0.41095448,493,1771734673,-14.935463905334473,29.40451431274414,78.00333404541016,1.3903469,-1.9624795,5.0853195
494,1771751340,12.67833137512207,41.68871688842773,154.18060302734375,0.49883795,0.43190527,1.045907,494,1771751340,-14.05796718597412,24.7958984375,77.85940551757812,0.47333628,-2.871848,3.9180765
495,1771768007,13.422194480895996,40.17631530761719,153.21371459960938,0.42360175,0.11571176,1.2837152,495,1771768007,-13.697874069213867,20.10384750366211,77.63751220703125,-0.5850586,-3.1670663,2.956605
496,1771784674,14.218255996704102,38.6220588684082,152.28126525878906,0.20330252,0.08892474,1.0824966,496,1771784674,-13.695671081542969,15.242880821228027,77.41175079345703,-0.9591691,-3.5360818,3.3377962
497,1771801341,15.048218727111816,37.089839935302734,151.4583740234375,0.33487016,-0.4379418,-0.26846504,497,1771801341,-13.699849128723145,10.107626914978027,77.17971801757812,-0.5228575,-4.7217836,3.8928022
498,1771818008,15.779726028442385,35.54752349853516,150.68858337402344,-0.008401684,-0.24427575,0.10368538,498,1771818008,-13.510348320007324,4.797609329223633,76.94886779785156,0.018411074,-5.417611,2.774272
499,1771834675,16.379093170166016,34.06031799316406,149.8711395263672,-0.0019422717,0.17230429,0.67989826,499,1771834675,-13.432393074035645,-0.5700314044952393,76.71550750732422,-1.294597,-4.605536,1.4910288
500,1771851342,16.823463439941406,32.546443939208984,149.06997680664062,0.0872475,-0.5415769,1.389534,500,1771851342,-13.438277244567873,-6.015529155731201,76.51319122314453,-1.2767198,-4.6378593,1.2555761
501,1771868009,17.32372283935547,30.827655792236328,148.40283203125,-0.09251626,-1.500622,1.5012798,501,1771868009,-13.283169746398926,-11.623581886291504,76.21525573730469,-0.86176705,-5.4835386,0.89049816
502,1771884676,17.792367935180664,28.85723876953125,147.8951873779297,-0.24128939,-1.6716079,1.7442923,502,1771884676,-12.726082801818848,-17.173524856567383,75.83403015136719,-0.5537806,-5.2109103,-0.43019962
503,1771901343,18.052648544311523,26.76647186279297,147.44349670410156,-0.07550217,-1.5727357,1.6038666,503,1771901343,-11.998967170715332,-22.641511917114254,75.41387176513672,-0.9802686,-4.4046884,-1.4479218
504,1771918010,18.0837516784668,24.636228561401367,147.03170776367188,-4.7440626e-05,-1.3853662,1.8975096,504,1771918010,-11.320201873779297,-28.026412963867188,74.9027099609375,-1.5187812,-3.7955427,-2.2982187
505,1771934677,18.01995086669922,22.473899841308597,146.79490661621094,0.18172419,-1.6836871,0.7022352,505,1771934677,-10.601634979248049,-33.34172439575195,74.26806640625,-1.3517746,-3.5445354,-3.107133
506,1771951344,18.042272567749023,20.350460052490234,146.75326538085938,0.40500632,-1.1604843,0.7751579,506,1771951344,-9.707921981811523,-38.57933044433594,73.41610717773438,-0.85374105,-3.2095761,-3.4548402
507,1771968011,18.14851951599121,18.181638717651367,146.77728271484375,0.8957198,-0.86853313,0.47823524,507,1771968011,-8.548256874084473,-43.70330429077149,72.39151763916016,-0.7752605,-2.5316844,-3.7518516
508,1771984678,18.230789184570312,15.992158889770508,146.74703979492188,0.9620925,-0.6855858,0.40949154,508,1771984678,-7.188960075378418,-48.669193267822266,71.21853637695312,-0.91268396,-2.0866435,-4.1169252
509,1772001345,18.39856338500977,13.816770553588867,146.6993408203125,0.7520589,-0.7196003,-0.41533375,509,1772001345,-5.624300956726074,-53.543418884277344,69.81407165527344,-0.9625679,-2.2687817,-4.767354
510,1772018012,18.575580596923828,11.693657875061035,146.68307495117188,0.6175784,-1.0458353,-1.1082716,510,1772018012,-3.698718309402466,-58.34737014770508,67.98474884033203,-0.95321995,-2.0151238,-4.9412417
511,1772034679,18.73308563232422,9.617147445678713,146.73516845703125,0.79520357,-0.65122026,-0.785758,511,1772034679,-1.0682624578475952,-63.135009765625,65.56124877929688,-0.5328875,-2.4038026,-4.6726093
512,1772051346,18.96038055419922,7.581570625305176,146.72593688964844,0.69840866,-0.22041546,-0.25176716,512,1772051346,2.854447603225708,-67.88761138916016,62.087364196777344,-0.25755733,-2.8306253,-5.32446
513,1772068013,19.033002853393555,5.658351898193359,146.7718963623047,0.4053126,-0.8509421,-2.3693972,513,1772068013,8.904069900512695,-72.60275268554688,56.6734733581543,-0.2237424,-2.3605895,-6.408682
514,1772084680,18.834829330444336,3.747995138168335,146.9015350341797,0.27174622,-1.2075945,-2.0474768,514,1772084680,18.333208084106445,-76.91828918457031,47.51994705200195,-0.46473116,0.42322972,-5.6900334
515,1772101347,18.736310958862305,1.757731795310974,146.9935760498047,0.86796606,-0.46610203,-0.23993683,515,1772101347,35.16365432739258,-80.64241027832031,30.573558807373047,-1.5130002,0.73854136,-5.1004515
516,1772118014,18.68686866760254,-0.2760184407234192,147.0479736328125,0.88209486,-0.3870151,-1.1733484,516,1772118014,67.54673767089844,-82.84083557128906,-1.717369794845581,-0.48572707,-0.7200374,-6.028406
517,1772134681,18.389724731445312,-2.1217684745788574,147.13824462890625,0.41168237,-0.413438,-1.493022,517,1772134681,105.54006958007812,-81.97498321533203,-38.97247314453125,1.4834467,0.44182065,-6.6583757
518,1772151348,18.048995971679688,-3.76390552520752,147.185791015625,-0.37873575,-0.63545626,-1.2404451,518,1772151348,128.24295043945312,-78.89764404296875,-60.92170333862305,-0.0054357233,2.318767,-6.4521623
519,1772168015,17.544090270996094,-5.120623588562012,147.3948211669922,-0.32853034,-0.52431834,-1.5589428,519,1772168015,140.67587280273438,-74.92552185058594,-72.67100524902344,-1.1642427,2.8707252,-6.1420207
520,1772184682,16.912996292114258,-6.184564113616943,147.7080535888672,-0.13063474,-0.151159,-2.5259852,520,1772184682,148.05616760253906,-70.56597900390625,-79.3724594116211,-0.03684969,2.0168984,-6.789774
521,1772201349,16.04385757446289,-6.774635314941406,148.11741638183594,-0.11819454,-0.64107496,-3.7789187,521,1772201349,153.11810302734375,-66.15250396728516,-83.50041961669922,1.4223238,2.7535527,-6.6583734
522,1772218016,14.928715705871582,-6.991671562194824,148.52487182617188,-0.23320362,-0.07112009,-3.4842615,522,1772218016,156.7156524658203,-61.82826614379883,-86.11666107177734,1.3748329,4.3055463,-5.333132
523,1772234683,13.867270469665527,-6.797307014465332,148.94496154785156,-0.069420844,0.4660814,-2.9781404,523,1772234683,159.4391632080078,-57.65375900268555,-87.8971176147461,0.9291418,5.8994737,-3.5594473
524,1772251350,13.201425552368164,-6.093749046325684,149.44741821289062,0.6110637,0.44279492,-1.5913115,524,1772251350,161.443359375,-53.73293685913086,-89.028076171875,1.2312515,6.6969266,-2.6093116
525,1772268017,12.733319282531738,-4.7363762855529785,150.0596466064453,-0.14746846,0.9047522,-3.4528131,525,1772268017,163.08096313476562,-50.2320442199707,-89.72150421142578,2.2884717,7.2369614,-1.778161
526,1772284684,12.429797172546388,-2.868722915649414,150.74429321289062,-2.5645404,2.3305905,-2.9700117,526,1772284684,164.73428344726562,-47.29413604736328,-90.02311706542969,3.4956994,7.430451,0.42433262
527,1772301351,12.490690231323242,-1.1234532594680786,151.4539337158203,-3.2612553,1.7848378,-1.9766507,527,1772301351,166.19712829589844,-45.06389999389648,-89.95537567138672,3.1670654,7.889747,3.2673407
528,1772318018,12.868611335754396,0.2067547440528869,152.1580047607422,-2.7444973,1.0027086,-0.96314144,528,1772318018,166.69009399414062,-43.73528671264648,-89.6492919921875,0.013567194,8.696361,6.2581425
529,1772334685,13.491849899291992,0.8324097990989685,152.627685546875,-2.9689553,0.8483511,-0.19110966,529,1772334685,165.97589111328125,-43.344871520996094,-89.15150451660156,-0.4645163,9.104721,6.9047985
530,1772351352,14.157146453857422,0.7970902919769287,152.72079467773438,-2.561905,1.025577,0.74089813,530,1772351352,164.63462829589844,-44.01255798339844,-88.47608947753906,1.8435206,8.313861,6.787569
531,1772368019,14.803053855895996,0.2326095700263977,152.48773193359375,-1.5624213,1.258665,0.9735594,531,1772368019,163.5104217529297,-45.60596466064453,-87.83422088623047,1.8159859,7.0214605,4.9237127
532,1772384686,15.168972969055176,-0.5151248574256897,152.06942749023438,-1.3457966,1.0339416,-0.11159229,532,1772384686,162.9665069580078,-47.94674301147461,-87.31661987304688,1.4349205,6.0373664,2.890109
533,1772401353,15.36676788330078,-1.0598689317703247,151.65814208984375,-1.2460107,0.73570275,-1.2343016,533,1772401353,162.512939453125,-50.65819549560547,-86.768798828125,1.7226481,4.9325123,0.6847296
534,1772418020,15.44777774810791,-1.2308883666992188,151.3338623046875,-0.18212685,0.85281014,-0.49854374,534,1772418020,161.7242431640625,-53.54278564453125,-86.08120727539062,1.301444,4.3577886,0.02922821
535,1772434687,15.294339179992676,-1.2105211019515991,151.0377655029297,0.35329846,0.60859925,-0.21683407,535,1772434687,160.2698211669922,-56.56341552734375,-85.18487548828125,0.5430039,3.8589547,-0.3551836
536,1772451354,15.163653373718262,-1.227224588394165,150.7333984375,0.47827005,0.29289255,-0.90682125,536,1772451354,158.4745330810547,-59.65272903442383,-84.19709777832031,0.7873055,2.7643054,-1.2460575
537,1772468021,15.011601448059082,-1.3036139011383057,150.4142303466797,0.5993118,0.39977062,-1.1066341,537,1772468021,156.759765625,-62.80364608764648,-83.12443542480469,1.8614187,2.2969515,-1.3353615
538,1772484688,14.625810623168944,-1.333838701248169,150.0950164794922,0.37301832,0.28032544,-0.19386578,538,1772484688,154.91412353515625,-66.0739517211914,-81.7281265258789,2.164699,2.5269327,-1.317832
539,1772501355,14.319113731384276,-1.2957051992416382,149.80819702148438,0.4701798,0.11242798,0.012527466,539,1772501355,152.55520629882812,-69.4267807006836,-79.749267578125,1.5162778,2.5398998,-1.8478904
540,1772518022,14.030488967895508,-1.1090279817581177,149.5828094482422,0.5916024,0.4563933,-0.53722477,540,1772518022,149.33889770507812,-72.76660919189453,-76.78728485107422,1.6240578,2.2428782,-2.3484106
541,1772534689,13.589980125427246,-0.5616686940193176,149.4474639892578,0.7467928,0.22280204,-0.8024883,541,1772534689,144.1367645263672,-76.14054870605469,-71.8861312866211,1.392609,2.75498,-2.3482747
542,1772551356,13.343071937561035,0.0116514498367905,149.2412872314453,0.70906913,0.13451636,-0.874074,542,1772551356,135.33152770996094,-79.45445251464844,-63.52909469604492,0.65318096,2.8995214,-2.411809
543,1772568023,13.23427963256836,0.6054796576499939,149.0019989013672,0.68236303,0.29631203,-0.85877514,543,1772568023,119.31497955322266,-82.37429809570312,-47.99629974365234,0.7459875,2.4846845,-2.6711226
544,1772584690,13.292710304260254,1.2565202713012695,148.71607971191406,0.48794818,0.4294001,-0.3871851,544,1772584690,89.0323486328125,-84.1529312133789,-18.10491943359375,1.156713,2.0469902,-3.0091019
545,1772601357,13.48831558227539,2.0004804134368896,148.4312286376953,0.2629544,0.29526785,-0.13703251,545,1772601357,51.08539581298828,-83.57142639160156,19.5493106842041,1.2891346,1.9874897,-3.1284275
546,1772618024,13.760788917541504,2.873844861984253,148.21119689941406,0.1639599,0.18102765,-0.087563515,546,1772618024,27.256948471069336,-80.92853546142578,43.071102142333984,0.6082734,1.56429,-3.3432717
547,1772634691,14.06028175354004,3.7873382568359375,148.02337646484375,0.2621981,0.15253094,0.07342148,547,1772634691,14.900461196899414,-77.5177993774414,55.18717193603516,-0.26246613,1.4015281,-3.3521214
548,1772651358,14.28948211669922,4.665388584136963,147.8185577392578,0.18708906,0.025466193,0.03534031,548,1772651358,7.662764549255371,-73.73014068603516,62.06354522705078,-0.042305302,1.6923676,-3.3642664
549,1772668025,14.543445587158203,5.416044235229492,147.54376220703125,0.23917504,-0.015186615,0.89263535,549,1772668025,2.7740886211395264,-69.70799255371094,66.47679901123047,-0.2414406,1.3251065,-3.8348417
550,1772684692,14.877663612365724,6.145793914794922,147.23036193847656,-0.018244663,-0.087686054,0.5666485,550,1772684692,-0.6143859624862671,-65.47942352294922,69.43544006347656,0.3433349,0.9602996,-3.8793325
551,1772701359,15.235953330993652,7.022881507873535,146.99977111816406,-0.606643,-0.29230788,0.045310974,551,1772701359,-2.9715769290924072,-61.158935546875,71.51761627197266,0.13123105,0.22786129,-3.8821435
552,1772718026,15.685041427612305,8.062796592712402,146.8919219970703,-0.7181127,-0.21704312,0.11658859,552,1772718026,-4.672751903533936,-56.74129104614258,73.03026580810547,0.004448131,0.5227407,-4.0044365
553,1772734693,16.194778442382812,9.129934310913086,146.80841064453125,-0.57625,-0.037675902,0.8491316,553,1772734693,-6.092159748077393,-52.1944465637207,74.15225219726562,-0.2994175,0.31614107,-4.260771
554,1772751360,16.7657413482666,10.270874977111816,146.80404663085938,-0.6920681,-0.43145707,0.2923031,554,1772751360,-7.363032817840576,-47.614166259765625,74.99549102783203,-0.43344304,-1.0279298,-4.3473053
555,1772768027,17.111528396606445,11.39210319519043,146.92701721191406,-0.5379529,-0.8959097,-0.63360214,555,1772768027,-8.36395263671875,-42.933292388916016,75.66351318359375,0.05986951,-1.607943,-4.345061
556,1772784694,17.08959197998047,12.50057888031006,147.11204528808594,-0.38537762,-0.86924124,-0.56880665,556,1772784694,-9.259410858154297,-38.11149215698242,76.16413116455078,-0.3441944,-1.6984215,-4.0873737
557,1772801361,16.900022506713867,13.543636322021484,147.34979248046875,-0.3469297,-0.9491168,-0.31087017,557,1772801361,-10.149273872375488,-33.23752212524414,76.58756256103516,-0.93889076,-1.7547376,-4.0216994
558,1772818028,16.92217254638672,14.652239799499512,147.64724731445312,-0.22793041,-0.72549254,-0.59366035,558,1772818028,-10.971619606018066,-28.402074813842773,76.9433822631836,-1.0177548,-3.4541185,-3.6684518
559,1772834695,16.87360191345215,15.86607837677002,147.93142700195312,-0.05182606,-0.56351125,-1.9999204,559,1772834695,-11.637972831726074,-23.5813102722168,77.30021667480469,-0.22612895,-4.6345086,-3.5535088
560,1772851362,16.505775451660156,17.236217498779297,148.2162322998047,0.05518208,-0.2229262,-2.044157,560,1772851362,-12.1888427734375,-18.783546447753903,77.51200103759766,-0.0102284,-4.406121,-3.102559
561,1772868029,16.099803924560547,18.64617156982422,148.56809997558594,0.0049614846,-0.52927494,-1.338377,561,1772868029,-12.616783142089844,-14.058555603027344,77.60367584228516,-0.370807,-4.1758676,-2.1045585
562,1772884696,15.85081672668457,20.06435775756836,149.02102661132812,0.46698278,-0.67648053,-0.5379219,562,1772884696,-13.065629959106444,-9.36158847808838,77.67743682861328,-0.60078865,-4.3028207,-1.4295149
563,1772901363,15.775431632995604,21.506452560424805,149.49411010742188,1.1063788,-0.22756918,-0.5382652,563,1772901363,-13.47569465637207,-4.6922383308410645,77.78465270996094,-0.6155593,-4.7623024,-1.2746382
564,1772918030,15.701579093933104,23.08881950378418,149.90625,1.0963655,0.017337285,-1.8485503,564,1772918030,-13.722646713256836,-0.2401288002729416,77.92070770263672,-0.39770672,-5.5607843,-0.37598228
565,1772934697,15.564589500427246,24.84938240051269,150.2920379638672,0.7312911,-0.20608887,-2.4928112,565,1772934697,-13.89769172668457,4.040025234222412,78.0256118774414,-0.31043714,-5.1295543,-0.020852089
566,1772951364,15.40388298034668,26.74522399902344,150.72537231445312,0.89315116,-0.7791385,-2.1441674,566,1772951364,-14.11581325531006,8.17676830291748,78.14026641845703,-0.34381142,-4.5700736,0.7643852
567,1772968031,15.254886627197266,28.748191833496094,151.2330322265625,1.6463935,-0.9492724,-0.84159946,567,1772968031,-14.428122520446776,12.121078491210938,78.27932739257812,-0.37042728,-4.0630608,1.3649635
568,1772984698,15.031926155090332,30.77865219116211,151.68301391601562,1.6826156,-0.6313418,-0.0023698807,568,1772984698,-14.785852432250977,15.954516410827637,78.47077941894531,-0.4660088,-3.6558316,1.1394281
569,1773001365,14.631694793701172,32.858665466308594,152.1204833984375,0.9266195,-0.62978053,0.21427822,569,1773001365,-15.301473617553713,19.693878173828125,78.716796875,-0.53143305,-3.36149,1.3373213
570,1773018032,14.147515296936035,34.99025344848633,152.64627075195312,0.053379532,-0.9681792,0.61634827,570,1773018032,-15.96727180480957,23.36110115051269,78.95075225830078,-0.12154249,-2.4936233,1.8729172
571,1773034699,13.58808135986328,37.11176681518555,153.29779052734375,-0.19937213,-1.1091074,1.0830002,571,1773034699,-16.616180419921875,27.02445411682129,79.11248016357422,0.64818525,-1.8769362,2.5110006
572,1773051366,12.825721740722656,39.16556930541992,154.05398559570312,-0.07392551,-0.65272593,1.6230078,572,1773051366,-17.173730850219727,30.748374938964844,79.21923828125,0.7538352,-1.7026227,2.542303
573,1773068033,11.831679344177246,41.15520095825195,154.90496826171875,0.051164854,-0.1180962,1.4013758,573,1773068033,-17.888126373291016,34.486351013183594,79.33171844482422,0.27104825,-1.5846651,2.6176004
574,1773084700,10.756546974182127,43.1814079284668,155.7638397216797,-0.17754425,0.6668952,1.0028687,574,1773084700,-18.945825576782227,38.20759201049805,79.44758605957031,-0.17731763,-1.0790007,2.67591
575,1773101367,9.780787467956545,45.19413757324219,156.5338134765625,-0.34789982,0.5564928,0.904233,575,1773101367,-20.245702743530277,41.88142776489258,79.50321960449219,0.37163308,-0.35202754,3.1194754
576,1773118034,9.343340873718262,46.99637222290039,157.32374572753906,-0.6989498,0.43470582,1.5344105,576,1773118034,-21.751564025878903,45.48185348510742,79.3899154663086,1.1396396,0.7287036,4.1059456
577,1773134701,9.443833351135254,48.61937713623047,158.0884246826172,-0.21230479,1.1023715,1.0316267,577,1773134701,-23.106277465820312,49.033016204833984,79.10277557373047,1.6621586,1.837154,4.4965954
578,1773151368,9.863401412963867,50.17300033569336,158.82212829589844,-0.14374954,1.4141535,0.8291359,578,1773151368,-24.253252029418945,52.45845031738281,78.70822143554688,1.7108005,2.4209502,4.7174406
579,1773168035,10.189208030700684,51.7225341796875,159.5467529296875,-0.23093686,0.37963971,0.6783829,579,1773168035,-25.39892196655273,55.59019088745117,78.31805419921875,1.1743035,2.3858714,4.6459312
580,1773184702,10.079727172851562,53.26897048950195,160.30906677246094,-0.6012273,-1.0279489,0.98067,580,1773184702,-26.83238410949707,58.31903839111328,77.9423599243164,0.83889866,3.6160083,4.668153
