sep=,
DeviceTag:,TibiaR,,,,,,,,,,,,,,,,,
FirmwareVersion:,1.6.0,,,,,,,,,,,,,,,,,
AppVersion:,2020.4,,,,,,,,,,,,,,,,,
SyncStatus:,Synced,,,,,,,,,,,,,,,,,
OutputRate:,60Hz,,,,,,,,,,,,,,,,,
FilterProfile:,General,,,,,,,,,,,,,,,,,
Measurement Mode:,Sensor fusion Mode - Complete (Euler),,,,,,,,,,,,,,,,,
StartTime:,2021-04-09 03:13:32.439 +0800,,,,,,,,,,,,,,,,,
© Xsens Technologies B. V. 2005-2021,,,,,,,,,,,,,,,,,,,

PacketCounter,SampleTimeFine,Euler_X,Euler_Y,Euler_Z,FreeAcc_X,FreeAcc_Y,FreeAcc_Z
1, 1763534509, -46.20659255981445, 56.23883056640625, 71.59282684326172, -0.18593657, 0.78756535, -0.12399006
2, 1763551176, -46.249061584472656, 56.22563171386719, 71.54666137695312, -0.12903799, 0.7680033, -0.06105995
3, 1763567843, -46.308746337890625, 56.21785354614258, 71.50777435302734, -0.17218964, 0.70596164, -0.08122444
4, 1763584510, -46.34916687011719, 56.20594024658203, 71.48548889160156, -0.25286657, 0.7462407, -0.10263443
5, 1763601177, -46.37186813354492, 56.1951904296875, 71.46868896484375, -0.18892752, 0.8158688, -0.07911968
6, 1763617844, -46.38201904296875, 56.18297576904297, 71.44026184082031, -0.12558891, 0.8942588, -0.088394165
7, 1763634511, -46.39971923828125, 56.187076568603516, 71.38783264160156, -0.18019156, 0.81141615, -0.12689495
8, 1763651178, -46.41261672973633, 56.18899154663086, 71.33623504638672, -0.16170844, 0.8360055, -0.016706467
9, 1763667845, -46.43009948730469, 56.200286865234375, 71.28175354003906, -0.2069179, 0.760786, -0.060894966
10, 1763684512, -46.46030044555664, 56.220428466796875, 71.21503448486328, -0.16014172, 0.7751858, -0.071294785
11, 1763701179, -46.46317672729492, 56.24692153930664, 71.15625762939453, -0.15671287, 0.8289237, 0.016526222
12, 1763717846, -46.47129440307617, 56.26737594604492, 71.09521484375, -0.18585387, 0.8344434, 0.0335598
13, 1763734513, -46.493289947509766, 56.2849235534668, 71.04290008544922, -0.19726807, 0.7760665, -0.06526852
14, 1763751180, -46.53850173950195, 56.29034423828125, 71.00605010986328, -0.20941286, 0.80685025, -0.06519127
15, 1763767847, -46.59011459350586, 56.289222717285156, 70.97901153564453, -0.17222998, 0.91982776, -0.07750702
16, 1763784514, -46.60847473144531, 56.28306579589844, 70.95535278320312, -0.053994138, 0.9890486, -0.016519547
17, 1763801181, -46.609901428222656, 56.28121566772461, 70.91310119628906, -0.09597227, 0.910841, -0.07523632
18, 1763817848, -46.60853958129883, 56.28507995605469, 70.86644744873047, -0.17511737, 0.82853055, -0.072496414
19, 1763834515, -46.619407653808594, 56.28125762939453, 70.82321166992188, -0.18290854, 0.8170006, 0.03199768
20, 1763851182, -46.647361755371094, 56.26625061035156, 70.7905044555664, -0.1659715, 0.78707135, 0.037695885
21, 1763867849, -46.65562438964844, 56.24803924560547, 70.76914978027344, -0.07630967, 0.8583966, 0.029988289
22, 1763884516, -46.62826919555664, 56.22977066040039, 70.762451171875, -0.19530647, 0.81930774, -0.039964676
23, 1763901183, -46.586395263671875, 56.210147857666016, 70.75984191894531, -0.1885756, 0.7998219, -0.09796238
24, 1763917850, -46.56629180908203, 56.19230270385742, 70.74944305419922, -0.15439878, 0.8599583, -0.046762466
25, 1763934517, -46.566925048828125, 56.18215560913086, 70.72284698486328, -0.12698369, 0.8990384, -0.008724213
26, 1763951184, -46.56455993652344, 56.17705154418945, 70.67958068847656, -0.11918739, 0.8065045, -0.044075012
27, 1763967851, -46.57594680786133, 56.17958450317383, 70.6384048461914, -0.21701264, 0.80486053, -0.03707218
28, 1763984518, -46.5816535949707, 56.17800521850586, 70.59500885009766, -0.17363375, 0.81463903, -0.07324219
29, 1764001185, -46.57964324951172, 56.17509841918945, 70.55298614501953, -0.19779383, 0.7710911, -0.10383797
30, 1764017852, -46.582828521728516, 56.16134262084961, 70.5337142944336, -0.20508716, 0.811367, -0.046125412
31, 1764034519, -46.60065841674805, 56.158695220947266, 70.50415802001953, -0.13289627, 0.8450716, -0.07185459
32, 1764051186, -46.603065490722656, 56.16179275512695, 70.46526336669922, -0.18121095, 0.89484733, -0.08014393
33, 1764067853, -46.585533142089844, 56.16297149658203, 70.4380111694336, -0.258425, 0.8327932, -0.046941757
34, 1764084520, -46.55213928222656, 56.16617965698242, 70.41896057128906, -0.19422214, 0.72957313, -0.06929016
35, 1764101187, -46.535491943359375, 56.17087936401367, 70.40052795410156, -0.15844643, 0.74408716, -0.031188965
36, 1764117854, -46.55302810668945, 56.188438415527344, 70.37491607666016, -0.24197054, 0.7954708, -0.033050537
37, 1764134521, -46.54094696044922, 56.2034797668457, 70.3680191040039, -0.22271502, 0.89415914, 0.013561249
38, 1764151188, -46.49323272705078, 56.20936965942383, 70.35292053222656, -0.11779742, 0.90438575, -0.012846947
39, 1764167855, -46.4448356628418, 56.21692657470703, 70.33647918701172, -0.22249524, 0.8768954, -0.08909035
40, 1764184522, -46.41426467895508, 56.21146774291992, 70.33628845214844, -0.31396592, 0.798519, -0.11038685
41, 1764201189, -46.400211334228516, 56.204689025878906, 70.36231994628906, -0.309494, 0.8164193, -0.12610531
42, 1764217856, -46.3424072265625, 56.1901741027832, 70.39468383789062, -0.10716038, 0.979527, 0.11551285
43, 1764234523, -46.198974609375, 56.168033599853516, 70.41937255859375, -0.059486855, 0.9897245, 0.123122215
44, 1764251190, -46.02873611450195, 56.141902923583984, 70.44464874267578, -0.20912951, 0.8971926, 0.009880066
45, 1764267857, -45.92354965209961, 56.09954833984375, 70.50447845458984, -0.39638776, 0.7523851, -0.1089735
46, 1764284524, -45.89497375488281, 56.051475524902344, 70.59561920166016, -0.3457776, 0.7073244, -0.18356514
47, 1764301191, -45.86635971069336, 55.99614715576172, 70.71171569824219, -0.14211625, 0.88435805, -0.011199951
48, 1764317858, -45.821495056152344, 55.956668853759766, 70.80366516113281, -0.044193428, 0.9181821, 0.04188633
49, 1764334525, -45.71769332885742, 55.927616119384766, 70.86907958984375, -0.020916231, 0.8927903, 0.072470665
50, 1764351192, -45.60763931274414, 55.897884368896484, 70.9217758178711, -0.11398513, 0.7067967, -0.05844021
51, 1764367859, -45.56641387939453, 55.87202453613281, 70.95537567138672, -0.088005096, 0.6556931, -0.11693096
52, 1764384526, -45.57395553588867, 55.846832275390625, 70.97699737548828, -0.035012074, 0.708064, -0.036605835
53, 1764401193, -45.567848205566406, 55.826297760009766, 70.99174499511719, 0.004375769, 0.7293829, -0.052960396
54, 1764417860, -45.5344352722168, 55.82243347167969, 70.98697662353516, 0.05141977, 0.79410577, -0.06746197
55, 1764434527, -45.44247055053711, 55.826881408691406, 70.9614028930664, 0.114830896, 0.8848411, -0.042699814
56, 1764451194, -45.307342529296875, 55.826080322265625, 70.9167251586914, 0.11356006, 0.7960899, -0.11200428
57, 1764467861, -45.1905403137207, 55.821651458740234, 70.85997009277344, 0.10347705, 0.7166288, -0.18714428
58, 1764484528, -45.132713317871094, 55.80390167236328, 70.80350494384766, 0.039077554, 0.74111265, -0.1818409
59, 1764501195, -45.13371276855469, 55.78195571899414, 70.73731994628906, 0.0015067009, 0.72006667, -0.13120365
60, 1764517862, -45.17777633666992, 55.76361846923828, 70.66415405273438, 0.018811855, 0.6877102, -0.14879608
61, 1764534529, -45.255828857421875, 55.746681213378906, 70.57362365722656, 5.243614E-4, 0.73083705, -0.073283195
62, 1764551196, -45.3245849609375, 55.74146270751953, 70.46569061279297, 0.023821732, 0.7835993, -0.038499832
63, 1764567863, -45.386497497558594, 55.745304107666016, 70.33993530273438, -0.019482115, 0.8067803, -0.07180214
64, 1764584530, -45.446353912353516, 55.75734329223633, 70.19847869873047, -0.13862263, 0.7290329, -0.13332081
65, 1764601197, -45.5201301574707, 55.766788482666016, 70.05946350097656, -0.28265342, 0.7204468, -0.12638092
66, 1764617864, -45.61173629760742, 55.78070068359375, 69.94155883789062, -0.27035126, 0.7343163, -0.029531479
67, 1764634531, -45.663455963134766, 55.796749114990234, 69.82841491699219, -0.14083685, 0.78231186, 0.055226326
68, 1764651198, -45.66870880126953, 55.80741882324219, 69.73503875732422, -0.27054423, 0.8107233, 0.02835083
69, 1764667865, -45.67347717285156, 55.81658935546875, 69.64875030517578, -0.28743583, 0.8376246, -0.026290894
70, 1764684532, -45.70032501220703, 55.819786071777344, 69.56500244140625, -0.32945043, 0.820369, -0.059892654
71, 1764701199, -45.74771499633789, 55.8199577331543, 69.50120544433594, -0.32183295, 0.8617971, -0.051815987
72, 1764717866, -45.803131103515625, 55.825199127197266, 69.43928527832031, -0.2656229, 0.895405, 0.003255844
73, 1764734533, -45.82630920410156, 55.83278274536133, 69.3807144165039, -0.2692389, 0.8982112, 0.026031494
74, 1764751200, -45.79534912109375, 55.84366989135742, 69.33747863769531, -0.28748348, 0.86158836, 5.493164E-4
75, 1764767867, -45.73533630371094, 55.84292984008789, 69.3057632446289, -0.26360816, 0.951272, 0.01879692
76, 1764784534, -45.69924545288086, 55.85067367553711, 69.27040100097656, -0.28513145, 0.8457605, -0.07875824
77, 1764801201, -45.69430923461914, 55.854591369628906, 69.25544738769531, -0.30526784, 0.7768935, -0.060171127
78, 1764817868, -45.68318557739258, 55.84544372558594, 69.2535400390625, -0.24162868, 0.8345319, -0.02846241
79, 1764834535, -45.64891815185547, 55.839569091796875, 69.2580795288086, -0.14256494, 0.9038093, 0.03859806
80, 1764851202, -45.6175651550293, 55.83684539794922, 69.25728607177734, -0.19135168, 0.7801107, -0.09109783
81, 1764867869, -45.59275817871094, 55.8367919921875, 69.25748443603516, -0.19517174, 0.7313201, -0.103458405
82, 1764884536, -45.559425354003906, 55.83089065551758, 69.25437927246094, -0.05125353, 0.89775944, -0.030622482
83, 1764901203, -45.5137939453125, 55.82908248901367, 69.22628021240234, -0.016060747, 0.85823655, -0.0142326355
84, 1764917870, -45.48357391357422, 55.827552795410156, 69.18899536132812, -0.13024747, 0.708414, -0.07911301
85, 1764934537, -45.468055725097656, 55.833309173583984, 69.17227172851562, -0.20086148, 0.7073586, -0.05754757
86, 1764951204, -45.46349334716797, 55.83782196044922, 69.1657485961914, -0.16794819, 0.7125155, -0.0798378
87, 1764967871, -45.429439544677734, 55.836910247802734, 69.16401672363281, -0.06881964, 0.89353484, 0.06747627
88, 1764984538, -45.350650787353516, 55.82143020629883, 69.15550231933594, -0.01221163, 0.90533745, 0.03981018
89, 1765001205, -45.28575134277344, 55.82011032104492, 69.13317108154297, -0.08611954, 0.72404987, -0.13694477
90, 1765017872, -45.277862548828125, 55.82182693481445, 69.11478424072266, -0.14236848, 0.699381, -0.11535072
91, 1765034539, -45.30226135253906, 55.81181335449219, 69.10739135742188, -0.130473, 0.71471936, -0.12426567
92, 1765051206, -45.330039978027344, 55.80530548095703, 69.08378601074219, 0.00996376, 0.77082264, -0.07898903
93, 1765067873, -45.34234619140625, 55.791404724121094, 69.05062103271484, 0.040155333, 0.8844321, 0.020170212
94, 1765084540, -45.3387336730957, 55.77839279174805, 69.00704956054688, -0.00406056, 0.7263492, -0.10695267
95, 1765101207, -45.35514831542969, 55.772987365722656, 68.95016479492188, -0.039243735, 0.6986523, -0.12312508
96, 1765117874, -45.39914321899414, 55.77188491821289, 68.88316345214844, -0.100537024, 0.76503456, -0.09657097
97, 1765134541, -45.445682525634766, 55.76832580566406, 68.80835723876953, -0.04974806, 0.80256975, -0.096655846
98, 1765151208, -45.48414993286133, 55.76112365722656, 68.7265396118164, -0.120577864, 0.7720547, -0.054841995
99, 1765167875, -45.509803771972656, 55.75948715209961, 68.65904998779297, -0.10332959, 0.71787447, -0.052952766
100, 1765184542, -45.53300857543945, 55.755714416503906, 68.59999084472656, -0.10956895, 0.6961805, -0.04278946
101, 1765201209, -45.57628631591797, 55.758277893066406, 68.54155731201172, -0.1686564, 0.7361864, -0.05433464
102, 1765217876, -45.61214828491211, 55.756004333496094, 68.48686218261719, -0.11282387, 0.7724049, -0.054164886
103, 1765234543, -45.6438102722168, 55.753334045410156, 68.42904663085938, -0.09950908, 0.825573, -0.07919693
104, 1765251210, -45.66334533691406, 55.75796890258789, 68.36312103271484, -0.12416446, 0.8311875, -0.070697784
105, 1765267877, -45.689788818359375, 55.75686264038086, 68.2877197265625, -0.17602126, 0.77243596, -0.052298546
106, 1765284544, -45.71555709838867, 55.759525299072266, 68.22288513183594, -0.2029662, 0.78132063, -0.05442524
107, 1765301211, -45.7412109375, 55.75880432128906, 68.15766906738281, -0.14318408, 0.8083583, 3.2234192E-4
108, 1765317878, -45.74672317504883, 55.75655746459961, 68.09123229980469, -0.14081897, 0.90233254, 0.0026283264
109, 1765334545, -45.727325439453125, 55.746829986572266, 68.03360748291016, -0.18513489, 0.8941656, -0.011871338
110, 1765351212, -45.70213317871094, 55.73711013793945, 67.98554229736328, -0.25441238, 0.78922224, -0.037625313
111, 1765367879, -45.66926574707031, 55.720760345458984, 67.958251953125, -0.2642512, 0.8762499, 0.012412071
112, 1765384546, -45.59912109375, 55.70891571044922, 67.94147491455078, -0.21637005, 0.9089782, -0.0047245026
113, 1765401213, -45.49899673461914, 55.696292877197266, 67.9371337890625, -0.26107833, 0.87671506, -0.022924423
114, 1765417880, -45.40576934814453, 55.684303283691406, 67.9480972290039, -0.371636, 0.7870211, -0.10922432
115, 1765434547, -45.353919982910156, 55.67201232910156, 67.96031951904297, -0.26846778, 0.74817294, -0.030773163
116, 1765451214, -45.32371139526367, 55.66041564941406, 67.97960662841797, -0.24527474, 0.79957336, 0.096678734
117, 1765467881, -45.28934860229492, 55.65214920043945, 67.9918441772461, -0.26491058, 0.7318163, 0.08329773
118, 1765484548, -45.280330657958984, 55.644500732421875, 68.0090103149414, -0.24042037, 0.6931483, -0.0050497055
119, 1765501215, -45.272010803222656, 55.64398956298828, 68.02978515625, -0.16539031, 0.7998666, -0.030155182
120, 1765517882, -45.22079849243164, 55.639862060546875, 68.04662322998047, -0.046369664, 0.91609174, 0.02171421
121, 1765534549, -45.12839889526367, 55.637298583984375, 68.06243133544922, -0.060609896, 0.8129707, -0.054388046
122, 1765551216, -45.05952072143555, 55.625816345214844, 68.09239959716797, -0.12544665, 0.7009429, -0.1532917
123, 1765567883, -45.03302764892578, 55.602622985839844, 68.1368408203125, -0.0939169, 0.7234857, -0.118312836
124, 1765584550, -45.0073127746582, 55.56900405883789, 68.1815185546875, 0.026373634, 0.815133, -0.05031681
125, 1765601217, -44.98857116699219, 55.53944778442383, 68.20284271240234, 0.058597162, 0.8042651, -0.08739281
126, 1765617884, -44.97814178466797, 55.5224609375, 68.20082092285156, 0.025728017, 0.71628547, -0.103411674
127, 1765634551, -44.98735427856445, 55.50857162475586, 68.18424987792969, -0.031365126, 0.6775554, -0.09561825
128, 1765651218, -45.018333435058594, 55.50445556640625, 68.16051483154297, 0.0074118013, 0.68411213, -0.08028984
129, 1765667885, -45.03822708129883, 55.49921417236328, 68.11279296875, 0.09757157, 0.7175184, -0.07382488
130, 1765684552, -45.07289123535156, 55.49320602416992, 68.05812072753906, 6.761267E-4, 0.6520047, -0.18177605
131, 1765701219, -45.13037872314453, 55.49070739746094, 68.00502014160156, -0.060557704, 0.66714436, -0.17693806
132, 1765717886, -45.184326171875, 55.496734619140625, 67.93759155273438, -0.041695338, 0.675603, -0.07358074
133, 1765734553, -45.23094940185547, 55.514862060546875, 67.85301208496094, -0.019309284, 0.7125761, -0.0040950775
134, 1765751220, -45.279296875, 55.54290008544922, 67.75360870361328, -0.080731876, 0.6657032, -0.058817863
135, 1765767887, -45.32883834838867, 55.571044921875, 67.66661834716797, -0.15724091, 0.6643406, -0.11975479
136, 1765784554, -45.397132873535156, 55.598880767822266, 67.58047485351562, -0.08306434, 0.73801833, -0.12238884
137, 1765801221, -45.470516204833984, 55.6308479309082, 67.47627258300781, -0.098548986, 0.8069247, -0.050640106
138, 1765817888, -45.531944274902344, 55.6617431640625, 67.36711883544922, -0.16491513, 0.79944193, -0.05665779
139, 1765834555, -45.592777252197266, 55.696144104003906, 67.2621841430664, -0.14595507, 0.76529604, -0.09902954
140, 1765851222, -45.669403076171875, 55.74079895019531, 67.14736938476562, -0.15986519, 0.78923094, -0.07811165
141, 1765867889, -45.75550079345703, 55.791343688964844, 67.03250885009766, -0.18621513, 0.84284234, 0.0037355423
142, 1765884556, -45.836273193359375, 55.83769607543945, 66.91555786132812, -0.17034492, 0.78267264, 0.015270233
143, 1765901223, -45.93165588378906, 55.87808609008789, 66.80404663085938, -0.19140722, 0.7574094, 0.011429787
144, 1765917890, -46.02484893798828, 55.92152404785156, 66.69893646240234, -0.1298959, 0.8356461, -0.004808426
145, 1765934557, -46.08381271362305, 55.963069915771484, 66.60214233398438, -0.10685853, 0.9131253, 0.042819023
146, 1765951224, -46.112823486328125, 55.99720764160156, 66.50291442871094, -0.039675448, 0.9629014, 0.1089859
147, 1765967891, -46.1461181640625, 56.01887512207031, 66.39830780029297, -0.10038593, 0.9228541, 0.14164448
148, 1765984558, -46.19532775878906, 56.029815673828125, 66.30140686035156, -0.11168518, 0.8635685, 0.20111752
149, 1766001225, -46.24372482299805, 56.018165588378906, 66.22099304199219, -0.022842465, 0.96593225, 0.34764004
150, 1766017892, -46.283992767333984, 55.99650192260742, 66.1509017944336, 0.03315971, 1.1117182, 0.53150463
151, 1766034559, -46.33740234375, 55.951927185058594, 66.08828735351562, 0.05758297, 1.3041594, 0.6705513
152, 1766051226, -46.29331588745117, 55.84115982055664, 66.07170104980469, 0.23311585, 1.5824426, 0.9878473
153, 1766067893, -46.04396438598633, 55.64949417114258, 66.11067199707031, 0.5043307, 1.9364004, 1.0579567
154, 1766084560, -45.664154052734375, 55.35227584838867, 66.19700622558594, 0.3518134, 1.9313676, 0.921278
155, 1766101227, -45.287899017333984, 54.959835052490234, 66.38093566894531, -0.066854626, 1.7622142, 0.81209946
156, 1766117894, -44.909698486328125, 54.451507568359375, 66.64732360839844, 0.1903757, 1.9441174, 1.2505808
157, 1766134561, -44.30207443237305, 53.780189514160156, 67.00676727294922, 0.6258158, 2.5903108, 1.890254
158, 1766151228, -43.32002639770508, 52.96703338623047, 67.4229736328125, 0.8741069, 2.61531, 2.0777855
159, 1766167895, -42.255855560302734, 52.00551223754883, 67.88024139404297, 0.37002748, 2.4295487, 1.7307005
160, 1766184562, -41.33747100830078, 50.888328552246094, 68.32707977294922, 0.7180795, 2.549996, 1.6094189
161, 1766201229, -40.4954948425293, 49.64518737792969, 68.6952896118164, 1.1277181, 2.9671252, 2.307046
162, 1766217896, -39.42932891845703, 48.28921890258789, 69.07353210449219, 0.9569934, 3.079089, 2.9302092
163, 1766234563, -38.179203033447266, 46.73625564575195, 69.42473602294922, 0.9911987, 2.4979527, 2.8160744
164, 1766251230, -37.0081901550293, 45.040016174316406, 69.69612884521484, 0.815116, 2.040192, 2.4566774
165, 1766267897, -35.94342803955078, 43.189781188964844, 69.94742584228516, 0.72089535, 1.6495725, 2.527626
166, 1766284564, -35.05912780761719, 41.2514762878418, 70.14608764648438, 0.40790957, 1.2217549, 2.603426
167, 1766301231, -34.21117401123047, 39.20635986328125, 70.3318862915039, 0.68227774, 1.007273, 2.9833279
168, 1766317898, -33.2678337097168, 37.0876579284668, 70.44154357910156, 0.80756783, 1.2154192, 3.332676
169, 1766334565, -32.13460922241211, 34.91840744018555, 70.51448059082031, 0.40273643, 1.422705, 3.146387
170, 1766351232, -30.983192443847656, 32.67194366455078, 70.56559753417969, -0.27433136, 1.1901902, 2.5122395
171, 1766367899, -29.98936653137207, 30.31171417236328, 70.67748260498047, -0.6895124, 0.7512635, 2.8179626
172, 1766384566, -28.916303634643555, 27.75248146057129, 70.79556274414062, -0.06250697, 0.29931423, 3.4629545
173, 1766401233, -27.643142700195312, 24.936325073242188, 70.81307220458984, 0.52579623, -0.35275978, 3.9467592
174, 1766417900, -26.12986946105957, 21.964452743530273, 70.796875, 0.2111005, -0.98342615, 3.1448011
175, 1766434567, -24.70777702331543, 18.839458465576172, 70.75570678710938, -0.46071792, -1.0839715, 1.9752836
176, 1766451234, -23.65517807006836, 15.580354690551758, 70.67880249023438, -1.375427, -0.90855736, 1.7702847
177, 1766467901, -22.71994400024414, 12.16412353515625, 70.6632080078125, -1.5769559, -1.3234792, 2.095767
178, 1766484568, -21.75773811340332, 8.510848045349121, 70.64810180664062, -1.0160452, -2.1699696, 2.4586391
179, 1766501235, -20.55548095703125, 4.580501556396484, 70.66372680664062, -1.2216085, -2.9585795, 2.589838
180, 1766517902, -19.231609344482422, 0.39241108298301697, 70.67643737792969, -1.545778, -3.3051727, 1.739831
181, 1766534569, -18.20098304748535, -3.9688594341278076, 70.71426391601562, -2.2082675, -2.4075286, 1.8715563
182, 1766551236, -17.644960403442383, -8.60285758972168, 70.7745361328125, -3.0945096, -2.1188073, 1.6604996
183, 1766567903, -17.453277587890625, -13.503389358520508, 70.89966583251953, -3.631137, -3.1265414, 2.0306005
184, 1766584570, -17.272504806518555, -18.727466583251953, 71.07987976074219, -2.9173, -4.938158, 1.7940292
185, 1766601237, -16.803173065185547, -24.15424919128418, 71.24810028076172, -2.110185, -5.701337, 0.84199715
186, 1766617904, -15.921307563781738, -29.786014556884766, 71.45001220703125, -2.272165, -6.3022547, 0.44026566
187, 1766634571, -14.65130615234375, -35.54288101196289, 71.64544677734375, -1.8027425, -5.6867275, -1.5842667
188, 1766651238, -13.491133689880371, -41.261390686035156, 71.67206573486328, -2.1070137, -3.3926091, -3.0384054
189, 1766667905, -12.799003601074219, -46.98283004760742, 71.48584747314453, -2.754347, -2.005278, -3.244597
190, 1766684572, -12.20853328704834, -52.77875900268555, 71.22282409667969, -1.9418828, -2.4533758, -3.4180007
191, 1766701239, -11.159156799316406, -58.52043914794922, 70.79264831542969, -0.084048696, -2.4112813, -3.8685398
192, 1766717906, -9.425512313842773, -64.06515502929688, 70.03289794921875, 0.6048191, -1.9065748, -4.3915453
193, 1766734573, -7.018295764923096, -69.5617446899414, 68.89207458496094, -0.1709665, -2.4004197, -5.2590137
194, 1766751240, -3.3493878841400146, -75.01214599609375, 66.78067779541016, 0.5680268, -1.5953641, -5.7266555
195, 1766767907, 2.959676504135132, -80.20782470703125, 61.78518295288086, 0.41736877, 0.4123138, -5.22531
196, 1766784574, 19.91897964477539, -85.12130737304688, 45.790924072265625, -0.37530786, 0.4556316, -5.4454527
197, 1766801241, 105.73023223876953, -87.11378479003906, -39.134674072265625, 0.13606709, -0.5876848, -6.574397
198, 1766817908, 147.81468200683594, -82.75703430175781, -80.08845520019531, 1.7545744, -0.33050665, -6.675613
199, 1766834575, 156.9149169921875, -77.67072296142578, -87.84549713134766, 2.5060043, 0.4935697, -6.303177
200, 1766851242, 160.91651916503906, -72.57231903076172, -90.51541137695312, 1.5270509, 1.8313788, -6.2663336
201, 1766867909, 163.0915985107422, -67.31486511230469, -91.5979232788086, 0.3490347, 2.4117281, -7.5624127
202, 1766884576, 164.49761962890625, -61.882381439208984, -92.02583312988281, 0.55912465, 2.359062, -8.694407
203, 1766901243, 165.86041259765625, -56.58784103393555, -92.0705795288086, 3.011986, 2.9206047, -7.0103188
204, 1766917910, 167.2242889404297, -51.61138153076172, -91.88024139404297, 3.3537662, 4.818121, -5.2498937
205, 1766934577, 168.6264190673828, -46.71017837524414, -91.65625, 1.2640227, 6.870483, -4.459195
206, 1766951244, 169.85670471191406, -42.007232666015625, -91.43409729003906, 0.5721678, 7.710819, -2.799583
207, 1766967911, 170.99990844726562, -37.89009094238281, -91.07584381103516, 3.0995848, 8.407904, 1.018178
208, 1766984578, 171.92428588867188, -35.03790283203125, -90.48774719238281, 3.667837, 9.45051, 7.5230465
209, 1767001245, 171.66592407226562, -33.491722106933594, -89.835693359375, -1.1894295, 10.099917, 10.5309105
210, 1767017912, 170.18846130371094, -33.35521697998047, -89.21342468261719, -2.7894864, 9.978575, 9.831022
211, 1767034579, 168.59115600585938, -34.46693420410156, -88.77908325195312, 1.1303248, 8.315884, 6.6321316
212, 1767051246, 167.98834228515625, -36.65753936767578, -88.66893768310547, 2.5059602, 6.957203, 3.9546824
213, 1767067913, 167.86508178710938, -39.6874885559082, -88.64802551269531, 1.5590953, 6.915325, 1.9053802
214, 1767084580, 167.28330993652344, -43.106040954589844, -88.69178009033203, -0.6006188, 6.714569, -0.02265358
215, 1767101247, 166.13278198242188, -46.665321350097656, -88.87886047363281, -1.4705999, 5.392536, -1.3929129
216, 1767117914, 164.89085388183594, -50.236976623535156, -89.23233795166016, -0.4467459, 3.679529, -2.4596467
217, 1767134581, 164.38980102539062, -53.86611557006836, -89.82450866699219, 1.200611, 2.2494867, -3.215876
218, 1767151248, 164.60360717773438, -57.66450119018555, -90.4504623413086, 1.6847633, 2.0704935, -2.7010126
219, 1767167915, 165.03871154785156, -61.682857513427734, -91.0459976196289, 0.17601456, 2.7232027, -2.4910936
220, 1767184582, 165.16775512695312, -65.74720764160156, -91.59712219238281, -0.68958217, 3.2343004, -2.5534253
221, 1767201249, 164.61195373535156, -69.80436706542969, -91.93960571289062, -0.58862853, 3.1150959, -2.77316
222, 1767217916, 163.8579864501953, -73.82039642333984, -92.1490478515625, 0.21970843, 2.0700595, -3.5180912
223, 1767234583, 163.1256561279297, -78.00694274902344, -91.99817657470703, 1.5733758, 2.074109, -3.501392
224, 1767251250, 161.28134155273438, -82.40084838867188, -90.54991912841797, 1.0079391, 2.4673438, -3.9457664
225, 1767267917, 153.42039489746094, -86.86569213867188, -83.10494232177734, -0.37492588, 2.2143164, -3.9245791
226, 1767284584, 11.702446937561035, -88.32801055908203, 57.988059997558594, -0.58527607, 1.8456168, -3.7081003
227, 1767301251, -7.775611877441406, -83.78044891357422, 76.75493621826172, -0.32883683, 1.4110717, -3.9832902
228, 1767317918, -11.301539421081543, -79.05326843261719, 79.78060913085938, 0.2465007, 0.34433445, -4.282063
229, 1767334585, -12.439926147460938, -74.32015991210938, 80.70735168457031, 1.4738287, 0.5552469, -4.2232556
230, 1767351252, -12.69258975982666, -69.5435791015625, 80.7243423461914, 0.74789906, 0.7454244, -4.6370873
231, 1767367919, -13.05665111541748, -64.76541900634766, 80.71353149414062, -0.90892786, -1.087861, -4.6771307
232, 1767384586, -13.575277328491211, -59.88400650024414, 80.72027587890625, 0.25322354, -1.3586468, -4.367658
233, 1767401253, -13.944674491882324, -54.946197509765625, 80.60829162597656, 0.7070735, -2.4098063, -4.183415
234, 1767417920, -13.927288055419922, -50.08778381347656, 80.46937561035156, 1.0346571, -3.2072299, -3.47502
235, 1767434587, -13.62834644317627, -45.30352783203125, 80.20481872558594, 0.7472022, -3.414468, -3.1253042
236, 1767451254, -13.26325511932373, -40.50244140625, 79.90641021728516, 0.13755032, -2.7890692, -2.9848657
237, 1767467921, -13.168397903442383, -35.70878219604492, 79.4548110961914, -0.011559308, -2.212944, -2.882965
238, 1767484588, -13.377318382263184, -30.899669647216797, 78.96668243408203, -0.2517384, -2.554973, -2.5761795
239, 1767501255, -13.577414512634277, -26.130123138427734, 78.48438262939453, 0.2809026, -4.2028785, -1.938406
240, 1767517922, -13.492034912109375, -21.38273048400879, 78.02313995361328, 0.76162076, -4.626631, -1.6071529
241, 1767534589, -13.238550186157227, -16.695011138916016, 77.54734802246094, -0.1861872, -3.8982854, -1.0636568
242, 1767551256, -13.239680290222168, -12.086973190307617, 77.09410095214844, -1.0617769, -3.2498715, -0.69332886
243, 1767567923, -13.581619262695312, -7.511977195739746, 76.75821685791016, -1.0246239, -2.9560897, -0.38550282
244, 1767584590, -14.106945991516113, -2.8387067317962646, 76.47274017333984, -1.108976, -2.6968846, -0.26134968
245, 1767601257, -14.749846458435059, 1.8744072914123535, 76.20230102539062, -1.9015278, -3.3763103, 0.5306759
246, 1767617924, -15.259559631347656, 6.50740909576416, 75.9404525756836, -1.6347663, -3.9434624, 1.0063429
247, 1767634591, -15.782081604003906, 11.12071704864502, 75.654296875, -1.7325532, -3.7922852, 0.9414444
248, 1767651258, -16.531707763671875, 15.703875541687012, 75.3844223022461, -2.227605, -3.6163542, 1.1990776
249, 1767667925, -17.337127685546875, 20.219051361083984, 75.03678894042969, -1.8460835, -3.4313414, 1.6271725
250, 1767684592, -18.19241714477539, 24.741220474243164, 74.57659149169922, -1.2625579, -3.2165534, 2.204732
251, 1767701259, -19.11797523498535, 29.24994468688965, 74.07827758789062, -1.5106058, -2.95042, 2.719366
252, 1767717926, -20.03841209411621, 33.65446090698242, 73.6285629272461, -1.8750352, -2.495693, 2.4122896
253, 1767734593, -21.34011459350586, 37.99042892456055, 73.06083679199219, -1.5657364, -1.7777637, 2.2615986
254, 1767751260, -23.015893936157227, 42.248226165771484, 72.30409240722656, -1.8380287, -1.6653007, 3.7997541
255, 1767767927, -24.813844680786133, 46.45541763305664, 71.51660919189453, -1.2670747, -1.6478974, 5.0536423
256, 1767784594, -26.422996520996094, 50.50163650512695, 70.60429382324219, 0.3397569, -0.47448626, 5.269313
257, 1767801261, -28.027132034301758, 54.20814514160156, 69.55171966552734, 0.5426242, 1.3207884, 5.5438366
258, 1767817928, -29.855327606201172, 57.337581634521484, 68.50811767578125, -0.20242764, 2.6964653, 4.5286665
259, 1767834595, -31.513320922851562, 59.7857666015625, 67.67481231689453, 0.54994357, 5.2461495, 4.446397
260, 1767851262, -32.82044219970703, 61.532676696777344, 67.12242889404297, 2.0106006, 5.9388156, 4.7116385
261, 1767867929, -33.9138298034668, 62.7132453918457, 66.9254379272461, 0.9571967, 5.908252, 5.222415
262, 1767884596, -34.67741775512695, 63.42418670654297, 67.18213653564453, 1.7479259, 6.886635, 4.7438145
263, 1767901263, -35.10599136352539, 63.78975296020508, 67.6957015991211, 2.584148, 8.338491, 5.074848
264, 1767917930, -34.969085693359375, 63.907718658447266, 68.29275512695312, 3.3499136, 9.286012, 5.9240932
265, 1767934597, -34.0719108581543, 63.68472671508789, 68.98313903808594, 3.8743002, 8.645005, 5.9345016
266, 1767951264, -32.882057189941406, 63.11219024658203, 69.7705307006836, 3.0562186, 7.3292313, 4.9347687
267, 1767967931, -31.766502380371094, 62.21129608154297, 70.68718719482422, 2.3529193, 6.6273246, 4.380724
268, 1767984598, -30.739004135131836, 60.910125732421875, 71.56893920898438, 2.576422, 6.0549445, 4.672473
269, 1768001265, -29.510774612426758, 59.270626068115234, 72.38701629638672, 3.1915798, 5.7113595, 4.749028
270, 1768017932, -28.0986270904541, 57.33078384399414, 73.10399627685547, 2.6842775, 4.416898, 4.1518755
271, 1768034599, -26.631786346435547, 55.12675094604492, 73.74411010742188, 2.1635478, 3.099613, 3.5624075
272, 1768051266, -25.27125358581543, 52.655879974365234, 74.28981018066406, 2.0437343, 2.221978, 3.4566603
273, 1768067933, -24.135690689086914, 50.024017333984375, 74.71633911132812, 1.7207755, 0.9042154, 3.0964909
274, 1768084600, -23.247573852539062, 47.27585983276367, 75.00934600830078, 1.4438771, 0.38547716, 2.9478521
275, 1768101267, -22.608884811401367, 44.48350143432617, 75.12350463867188, 1.5815314, 0.31538618, 2.9763422
276, 1768117934, -21.962080001831055, 41.67688751220703, 75.08496856689453, 1.6695361, 0.28507066, 3.0823946
277, 1768134601, -21.188335418701172, 38.87310028076172, 74.93482208251953, 1.4769857, 0.069319636, 3.0058155
278, 1768151268, -20.290616989135742, 36.118934631347656, 74.68657684326172, 1.2378652, -0.46966195, 2.2864838
279, 1768167935, -19.584421157836914, 33.39306640625, 74.3607177734375, 0.36162853, -0.3343774, 1.7325468
280, 1768184602, -19.111328125, 30.667129516601562, 74.03143310546875, -0.28716084, 0.14677492, 2.2151976
281, 1768201269, -18.603620529174805, 27.78282356262207, 73.66921997070312, 0.2815634, -0.46081173, 3.8234272
282, 1768217936, -17.659761428833008, 24.664287567138672, 73.29511260986328, 0.42613605, -1.699453, 4.757639
283, 1768234603, -16.280921936035156, 21.217336654663086, 72.91112518310547, 0.22099358, -3.185409, 4.4084845
284, 1768251270, -14.697274208068848, 17.31217384338379, 72.5578384399414, -0.7978166, -4.0713882, 4.075781
285, 1768267937, -13.253153800964355, 12.879793167114258, 72.23504638671875, -1.6686286, -4.725731, 3.5972786
286, 1768284604, -12.201820373535156, 7.856366157531738, 71.92035675048828, -2.4741306, -5.5419455, 3.80902
287, 1768301271, -11.293314933776855, 2.196350336074829, 71.58656311035156, -2.4559815, -7.1523814, 3.9061718
288, 1768317938, -10.387877464294434, -3.951031446456909, 71.16244506835938, -2.1488721, -8.231606, 2.1777296
289, 1768334605, -9.51983642578125, -10.414590835571289, 70.63611602783203, -2.5450814, -7.881041, 0.76125336
290, 1768351272, -8.6110200881958, -17.125858306884766, 70.06159210205078, -2.6926863, -7.5528817, 0.022839546
291, 1768367939, -7.689261436462402, -24.05509376525879, 69.34630584716797, -3.1293623, -7.481548, -1.3124657
292, 1768384606, -6.797830104827881, -31.04747200012207, 68.39361572265625, -3.4361925, -6.234523, -2.8092232
293, 1768401273, -5.593647003173828, -38.04630661010742, 67.14404296875, -1.9368339, -5.6096363, -3.2537646
294, 1768417940, -3.8645997047424316, -44.77092742919922, 65.43466186523438, -0.53922176, -2.475957, -4.4108863
295, 1768434607, -1.4595609903335571, -51.19652557373047, 63.20323944091797, -1.1023735, -0.4296784, -4.624681
296, 1768451274, 1.7497104406356812, -57.55451965332031, 60.290557861328125, -1.9005159, -1.8270534, -4.772884
297, 1768467941, 6.307092666625977, -63.63298797607422, 56.18885803222656, -0.84269625, -1.5276532, -6.0982304
298, 1768484608, 13.145284652709961, -69.3094482421875, 49.94034957885742, -0.36719647, -0.68166816, -6.293869
299, 1768501275, 23.98073959350586, -74.44647979736328, 39.5911865234375, -0.5175798, 1.7911923, -5.3496885
300, 1768517942, 42.85329818725586, -78.5489501953125, 20.754806518554688, -2.0432723, 1.5836924, -4.9637265
301, 1768534609, 73.66983032226562, -80.45317840576172, -9.952743530273438, -0.3517439, 0.87833315, -5.182923
302, 1768551276, 105.02368927001953, -79.1443862915039, -40.916786193847656, 1.2328135, 1.3732116, -4.1549406
303, 1768567943, 125.5156021118164, -75.7320556640625, -60.578853607177734, 0.49569663, 1.558864, -3.5660906
304, 1768584610, 137.5043487548828, -71.30838775634766, -71.48331451416016, 0.6574627, 2.1300027, -3.7187705
305, 1768601277, 144.3376007080078, -66.39900207519531, -77.60667419433594, 0.5584738, 1.9316555, -4.191079
306, 1768617944, 148.54835510253906, -61.27939224243164, -81.30184936523438, 0.9759044, 1.7010759, -3.967741
307, 1768634611, 151.33714294433594, -56.08609390258789, -83.55088806152344, 1.0021194, 2.537961, -3.863388
308, 1768651278, 153.39358520507812, -50.86771774291992, -85.01760864257812, 0.8268727, 2.876473, -5.0707455
309, 1768667945, 155.0897674560547, -45.69504165649414, -86.00396728515625, 0.6897164, 3.486822, -5.4740086
310, 1768684612, 156.4498291015625, -40.674007415771484, -86.60649871826172, 0.8001184, 3.1080272, -6.5838976
311, 1768701279, 157.94598388671875, -35.921058654785156, -86.95922088623047, 2.2777905, 4.6470885, -5.9133506
312, 1768717946, 159.6559600830078, -31.44504737854004, -87.18037414550781, 2.2182436, 7.307875, -2.7325492
313, 1768734613, 160.96466064453125, -27.618675231933594, -87.23603057861328, 1.423124, 7.40415, 1.9716845
314, 1768751280, 161.3027801513672, -24.845048904418945, -87.06385803222656, 0.434083, 7.925564, 5.4583063
315, 1768767947, 160.91551208496094, -23.286516189575195, -86.71682739257812, 0.6276694, 8.213713, 6.74362
316, 1768784614, 160.60923767089844, -23.07086944580078, -86.29448699951172, 2.255666, 7.6310425, 5.7460318
317, 1768801281, 160.51943969726562, -24.078582763671875, -85.86746215820312, 2.1418645, 7.34396, 4.386194
318, 1768817948, 160.27865600585938, -25.886999130249023, -85.49092102050781, 0.51191294, 7.2448654, 1.8941689
319, 1768834615, 159.44537353515625, -28.16606330871582, -85.14810943603516, -0.12091101, 6.4819837, -0.7696676
320, 1768851282, 158.5371551513672, -30.65458869934082, -85.0029296875, -0.07688689, 5.1266007, -3.643621
321, 1768867949, 158.01136779785156, -33.252525329589844, -85.1070785522461, 0.3275289, 3.842466, -4.12808
322, 1768884616, 157.8427734375, -35.97641372680664, -85.41178894042969, 0.07904577, 3.4057548, -3.381835
323, 1768901283, 157.71533203125, -38.91468811035156, -85.84607696533203, -0.79545265, 3.6492045, -2.1053486
324, 1768917950, 157.6066131591797, -42.07600021362305, -86.4189453125, -0.8129637, 3.7879188, -1.4909458
325, 1768934617, 157.68865966796875, -45.454261779785156, -87.13084411621094, -0.30909556, 3.4549263, -1.3918066
326, 1768951284, 158.13485717773438, -49.06949234008789, -87.94973754882812, -0.09715963, 3.1533225, -1.7958012
327, 1768967951, 158.83087158203125, -52.978424072265625, -88.77386474609375, 0.44572154, 3.7888293, -1.5001011
328, 1768984618, 159.46383666992188, -57.09288787841797, -89.57398986816406, 0.14488819, 4.106859, -1.6078281
329, 1769001285, 160.0537567138672, -61.3830680847168, -90.4134521484375, -0.37838376, 3.9281902, -1.3248014
330, 1769017952, 160.4755096435547, -65.93681335449219, -91.26943969726562, -0.31043345, 3.118891, -2.1503716
331, 1769034619, 160.8612518310547, -70.79121398925781, -92.14916229248047, 0.54656136, 3.1698232, -3.0421443
332, 1769051286, 161.47080993652344, -75.7071533203125, -93.0984115600586, 0.6422139, 2.577112, -3.4000516
333, 1769067953, 162.59352111816406, -80.47127532958984, -94.39689636230469, 0.12336797, 2.0336692, -3.1702738
334, 1769084620, 164.81625366210938, -85.3279800415039, -96.92127227783203, -0.52185035, 1.3672879, -3.2397075
335, 1769101287, -59.337318420410156, -89.40390014648438, 126.64006805419922, 0.05542406, 0.7249801, -3.9039636
336, 1769117954, -24.499380111694336, -84.28858947753906, 91.2284164428711, 0.46582848, 0.32043487, -4.4026694
337, 1769134621, -22.89737319946289, -79.19072723388672, 89.51958465576172, 0.54887587, -0.47477236, -3.9591336
338, 1769151288, -21.912010192871094, -74.15707397460938, 88.6824951171875, 0.819983, -0.5417032, -3.2678137
339, 1769167955, -21.33804702758789, -68.99375915527344, 88.02293395996094, 0.6887297, -0.33337227, -3.7553267
340, 1769184622, -21.30785369873047, -63.673709869384766, 87.52783203125, 0.6841126, -0.9146437, -4.172186
341, 1769201289, -21.37583351135254, -58.39973831176758, 87.05794525146484, 0.77165234, -1.8141243, -3.8991609
342, 1769217956, -21.202741622924805, -53.30690002441406, 86.78142547607422, 0.3704944, -3.6156523, -3.2920775
343, 1769234623, -20.616527557373047, -48.280128479003906, 86.59319305419922, 1.3895955, -4.325134, -2.834278
344, 1769251290, -20.163848876953125, -43.14787673950195, 86.36356353759766, 0.995281, -2.6432335, -3.373352
345, 1769267957, -20.25667381286621, -38.06603240966797, 86.10601043701172, -0.7553606, -2.015627, -3.2133913
346, 1769284624, -20.788137435913086, -33.11621856689453, 85.88001251220703, -0.41840464, -1.5989652, -2.8497653
347, 1769301291, -21.72494888305664, -28.019744873046875, 85.64714813232422, 0.26653183, -1.6331452, -2.2787538
348, 1769317958, -22.491605758666992, -22.7463436126709, 85.57698822021484, 0.30641302, -3.6845472, -1.3495817
349, 1769334625, -22.631071090698242, -17.42804718017578, 85.54655456542969, 1.921257, -4.9890795, -1.3367376
350, 1769351292, -22.47698402404785, -12.18307113647461, 85.2967300415039, 1.8709741, -4.847247, -1.3523016
351, 1769367959, -22.586666107177734, -6.987438201904297, 84.7878189086914, 0.30636194, -3.6593254, -1.316122
352, 1769384626, -23.071407318115234, -1.8337527513504028, 84.20000457763672, -0.42809334, -4.099047, -0.2596016
353, 1769401293, -23.617124557495117, 3.370478391647339, 83.66728973388672, 0.21437642, -5.328421, 0.71908
354, 1769417960, -23.84903335571289, 8.610269546508789, 83.13402557373047, 1.5399415, -6.0434413, 0.9706316
355, 1769434627, -24.04514503479004, 13.735072135925293, 82.49554443359375, 0.52085763, -5.9468446, 1.3168879
356, 1769451294, -24.550704956054688, 18.71588897705078, 81.82352447509766, -0.7585202, -5.356763, 1.6234341
357, 1769467961, -25.390989303588867, 23.553695678710938, 81.13591003417969, -0.70291203, -4.924157, 1.8284664
358, 1769484628, -26.351224899291992, 28.060880661010742, 80.41197967529297, -0.33934495, -4.3119307, 2.8564463
359, 1769501295, -27.186138153076172, 32.23136901855469, 79.64945220947266, -0.46648973, -3.4171946, 2.8253574
360, 1769517962, -27.97081756591797, 36.158935546875, 78.91556549072266, -0.7983952, -2.5317373, 3.0278645
361, 1769534629, -29.10002899169922, 40.00676345825195, 78.06865692138672, -0.88437796, -3.330941, 3.7983494
362, 1769551296, -31.108346939086914, 44.11848449707031, 76.91063690185547, -1.109155, -1.9506991, 3.97015
363, 1769567963, -33.38497543334961, 48.155826568603516, 75.51203155517578, -1.0358995, 0.12958923, 4.9576035
364, 1769584630, -35.221214294433594, 52.01339340209961, 74.02188873291016, -0.0438462, 1.874398, 6.458626
365, 1769601297, -36.79087448120117, 55.50056838989258, 72.35176086425781, 0.9898718, 3.428539, 7.130438
366, 1769617964, -38.10722351074219, 58.47066879272461, 70.73897552490234, 0.11815185, 5.3987246, 6.871643
367, 1769634631, -38.99321746826172, 60.64926528930664, 69.56428527832031, -0.6355763, 7.4130316, 6.0588837
368, 1769651298, -39.593631744384766, 62.04826736450195, 69.01891326904297, -0.33719298, 8.8742, 5.5730333
369, 1769667965, -39.88359069824219, 62.84089660644531, 69.0092544555664, 1.181631, 9.689973, 5.795763
370, 1769684632, -39.730281829833984, 63.157440185546875, 69.34517669677734, 1.5610557, 9.895157, 5.850733
371, 1769701299, -39.262691497802734, 63.091976165771484, 69.93893432617188, 1.434262, 9.549207, 5.8012486
372, 1769717966, -38.551631927490234, 62.712646484375, 70.69015502929688, 1.4572054, 8.529844, 4.904106
373, 1769734633, -37.58842468261719, 61.87215805053711, 71.63211822509766, 1.612327, 7.923411, 5.031048
374, 1769751300, -36.22319030761719, 60.57588195800781, 72.84033966064453, 1.4296467, 6.4399786, 4.141427
375, 1769767967, -34.64787292480469, 58.801544189453125, 74.23088073730469, 1.2814937, 5.1359415, 3.5463486
376, 1769784634, -33.00297927856445, 56.52873229980469, 75.76107025146484, 0.9083924, 4.0753493, 3.474205
377, 1769801301, -31.235366821289062, 53.8690071105957, 77.29222106933594, 1.316426, 2.9959195, 3.302722
378, 1769817968, -29.40631103515625, 50.87706756591797, 78.63924407958984, 1.7947215, 2.291215, 3.6267214
379, 1769834635, -27.636322021484375, 47.68712615966797, 79.77436065673828, 1.5617324, 1.0692066, 3.4399624
380, 1769851302, -26.15294647216797, 44.289024353027344, 80.68046569824219, 1.13784, 0.021622196, 3.1125326
381, 1769867969, -24.864151000976562, 40.673858642578125, 81.42230224609375, 1.0305766, -0.8008279, 2.9552631
382, 1769884636, -23.65191078186035, 36.89033126831055, 81.92499542236328, 1.7780766, -1.1721201, 3.3943176
383, 1769901303, -22.409160614013672, 33.05207061767578, 82.34751892089844, 1.3185477, -1.6000199, 3.4472742
384, 1769917970, -21.19025993347168, 29.062715530395508, 82.75248718261719, 0.41026223, -2.2272534, 3.2506027
385, 1769934637, -20.11357879638672, 24.81546401977539, 83.09746551513672, 0.0028014556, -2.8615732, 3.1455317
386, 1769951304, -19.179012298583984, 20.323448181152344, 83.34976959228516, 0.52112174, -2.9815066, 3.428008
387, 1769967971, -18.42881202697754, 15.70271110534668, 83.51704406738281, -0.16848268, -3.1124918, 3.1673994
388, 1769984638, -17.7242488861084, 11.069478034973145, 83.66703796386719, -0.06741867, -3.17684, 2.4705067
389, 1770001305, -17.098106384277344, 6.467278480529785, 83.7685317993164, 0.07041298, -2.2081342, 1.5264387
390, 1770017972, -16.71355438232422, 1.971805453300476, 83.83259582519531, -1.1082604, -0.4233617, 1.2703037
391, 1770034639, -16.340776443481445, -2.6408591270446777, 83.91608428955078, -0.8635622, -0.8927266, 2.96041
392, 1770051306, -15.646310806274414, -7.4423065185546875, 83.94944763183594, 0.6872391, -2.6381516, 2.9608173
393, 1770067973, -14.752945899963379, -12.250244140625, 83.92464447021484, 0.8360712, -2.1389222, 1.6493883
394, 1770084640, -14.171396255493164, -16.978252410888672, 83.8898696899414, -0.6845989, -0.21253233, 0.50331783
395, 1770101307, -14.168343544006348, -21.605388641357422, 83.82188415527344, -1.4681443, 1.0714258, 0.41396332
396, 1770117974, -14.349151611328125, -26.226686477661133, 83.74845123291016, -0.8784323, -0.09280747, 1.3540039
397, 1770134641, -14.103180885314941, -30.83503532409668, 83.68685150146484, 0.5014567, -2.0277743, 1.083231
398, 1770151308, -13.291600227355957, -35.36906433105469, 83.55729675292969, 1.223549, -2.8344631, 0.15028572
399, 1770167975, -12.406298637390137, -39.854217529296875, 83.34226989746094, 0.034694575, -2.334877, -0.47279453
400, 1770184642, -11.926772117614746, -44.29795837402344, 83.03690338134766, -1.3685726, -1.6708183, -0.37516594
401, 1770201309, -11.658576965332031, -48.868011474609375, 82.71863555908203, -1.1579424, -2.6491423, -0.22401619
402, 1770217976, -11.132115364074707, -53.52126693725586, 82.36063385009766, 0.62634254, -3.5628033, -0.8105383
403, 1770234643, -10.163798332214355, -58.24573516845703, 81.80513763427734, 0.7800546, -4.516172, -2.0541658
404, 1770251310, -8.718703269958496, -63.09066390991211, 81.03036499023438, 0.640492, -4.847604, -3.4655786
405, 1770267977, -6.850338935852051, -67.92501831054688, 79.6463394165039, 0.34162593, -3.7052248, -3.9334397
406, 1770284644, -4.423802375793457, -72.76918029785156, 77.2850341796875, -0.8055123, -2.8088188, -4.412847
407, 1770301311, -0.16415296494960785, -77.69419860839844, 72.89912414550781, -0.5943189, -3.4872136, -5.2106
408, 1770317978, 10.451740264892578, -82.47908782958984, 62.48381423950195, 1.404703, -3.3177137, -6.3429403
409, 1770334645, 47.42618942260742, -86.13365936279297, 26.090845108032227, 2.1779575, -1.9080472, -6.666708
410, 1770351312, 115.75019073486328, -85.26252746582031, -41.62541580200195, 0.47282243, 0.11620003, -6.205897
411, 1770367979, 140.3694610595703, -81.25513458251953, -65.80517578125, -0.5255869, 0.7437281, -6.1750197
412, 1770384646, 148.92588806152344, -76.81118774414062, -73.9191665649414, 0.5675779, 1.4361962, -6.336275
413, 1770401313, 153.10484313964844, -72.38966369628906, -77.56008911132812, 1.1321231, 2.2056484, -6.4894304
414, 1770417980, 155.57078552246094, -68.08389282226562, -79.4503173828125, 1.0044575, 3.190985, -5.516628
415, 1770434647, 156.99884033203125, -64.01321411132812, -80.40957641601562, 0.7559006, 4.0739408, -3.6921535
416, 1770451314, 157.9218292236328, -60.12898254394531, -81.00763702392578, 0.10155006, 4.6148715, -3.696344
417, 1770467981, 158.74554443359375, -56.470130920410156, -81.40921783447266, 0.26060733, 4.7841616, -3.7483444
418, 1770484648, 159.5326690673828, -53.1645393371582, -81.6572265625, 1.0176213, 4.837062, -3.3504329
419, 1770501315, 160.23524475097656, -50.130096435546875, -81.7474594116211, 0.8155752, 4.8911448, -2.9395227
420, 1770517982, 160.7761688232422, -47.310848236083984, -81.71041107177734, -0.33989933, 5.7077503, -2.1379442
421, 1770534649, 161.03819274902344, -44.88997268676758, -81.53376007080078, -0.089627214, 5.528601, -1.1829815
422, 1770551316, 161.1808624267578, -42.92261505126953, -81.27251434326172, 1.0329893, 5.91244, 0.48736095
423, 1770567983, 161.27914428710938, -41.59321594238281, -80.93031311035156, 0.26878646, 6.3138094, 2.8887453
424, 1770584650, 161.16372680664062, -40.9274787902832, -80.5726547241211, -0.86624795, 6.773553, 3.4823866
425, 1770601317, 160.8190155029297, -40.981258392333984, -80.16617584228516, -0.44200397, 6.707217, 3.0565395
426, 1770617984, 160.53482055664062, -41.7484130859375, -79.73640441894531, 0.89866704, 6.068189, 2.533207
427, 1770634651, 160.35643005371094, -43.13962173461914, -79.29118347167969, 0.8474935, 5.865982, 2.6072664
428, 1770651318, 160.08921813964844, -45.0197639465332, -78.81665802001953, 0.18336484, 5.7853613, 1.7735386
429, 1770667985, 159.5192413330078, -47.24146270751953, -78.27176666259766, -0.062082957, 5.0691967, 0.48905945
430, 1770684652, 158.6962890625, -49.65023422241211, -77.6645736694336, 0.0710018, 3.995663, -0.28661346
431, 1770701319, 157.79344177246094, -52.201698303222656, -76.97522735595703, 0.4157706, 2.9700387, -0.76065826
432, 1770717986, 156.92880249023438, -54.79898452758789, -76.16840362548828, 1.3033861, 2.3341906, -1.6853933
433, 1770734653, 155.96160888671875, -57.46596145629883, -75.1594009399414, 1.3836143, 1.8722024, -1.6321707
434, 1770751320, 154.85000610351562, -60.13798522949219, -73.92627716064453, 1.1618338, 1.3950424, -1.6959076
435, 1770767987, 153.32672119140625, -62.8031120300293, -72.34112548828125, 0.735267, 1.1374023, -1.568326
436, 1770784654, 151.34315490722656, -65.53703308105469, -70.34675598144531, 0.8136019, 1.239529, -1.5360794
437, 1770801321, 148.48475646972656, -68.24536895751953, -67.60009002685547, 0.82078296, 1.6147432, -1.578826
438, 1770817988, 144.7412109375, -70.95610046386719, -63.870548248291016, 0.99112463, 1.7668896, -1.5170002
439, 1770834655, 139.39869689941406, -73.57866668701172, -58.577205657958984, 1.2828898, 1.8984683, -1.8464446
440, 1770851322, 131.657470703125, -76.10781860351562, -50.894248962402344, 0.98018223, 2.141517, -1.9925237
441, 1770867989, 119.86946868896484, -78.34523010253906, -39.3148078918457, 0.65594614, 2.1303718, -2.2529655
442, 1770884656, 103.27912139892578, -79.91663360595703, -22.93233299255371, 0.24581218, 1.5769848, -2.7618542
443, 1770901323, 82.54936981201172, -80.42529296875, -2.3568830490112305, 0.49745995, 1.3589983, -3.1582966
444, 1770917990, 61.58927917480469, -79.63507843017578, 18.401857376098633, 0.93488306, 1.5380259, -3.283733
445, 1770934657, 44.68464279174805, -77.68540954589844, 35.03858947753906, 0.8448934, 1.4884286, -3.4942508
446, 1770951324, 32.76069259643555, -74.98048400878906, 46.63230514526367, 0.6426045, 0.90878713, -3.6765761
447, 1770967991, 24.4720516204834, -71.83015441894531, 54.51533126831055, 0.44171333, 0.5909072, -3.5241432
448, 1770984658, 18.514873504638672, -68.40772247314453, 60.11548614501953, 0.28254372, -0.033838633, -3.7026544
449, 1771001325, 14.03924560546875, -64.76874542236328, 64.31868743896484, 0.80232537, -0.13814989, -4.055975
450, 1771017992, 10.438468933105469, -60.948238372802734, 67.5671615600586, 0.9510358, 0.17789799, -3.8766904
451, 1771034659, 7.357447624206543, -56.95293426513672, 70.14293670654297, 0.48065713, 0.40276575, -3.5918212
452, 1771051326, 4.609548568725586, -52.811283111572266, 72.20510864257812, 0.08382294, 0.04018763, -3.7369337
453, 1771067993, 2.1013450622558594, -48.60788345336914, 73.9295883178711, -0.2767315, -1.6721709, -4.2956843
454, 1771084660, -0.029793908819556236, -44.36425018310547, 75.35640716552734, 1.3899325, -2.8844957, -4.4648595
455, 1771101327, -1.6497058868408203, -40.01552963256836, 76.37723541259766, 2.6040306, -2.6662967, -3.7984433
456, 1771117994, -2.766780376434326, -35.46738815307617, 77.01424407958984, 2.1968498, -1.8311397, -3.3202257
457, 1771134661, -3.844316005706787, -30.750690460205078, 77.40788269042969, 0.53169394, -1.6062175, -3.095492
458, 1771151328, -5.158646106719971, -25.862258911132812, 77.78425598144531, -0.2511034, -1.5469369, -3.316475
459, 1771167995, -6.685662746429443, -20.730976104736328, 78.10694122314453, 0.49679273, -1.572136, -3.6579494
460, 1771184662, -8.332815170288086, -15.343770980834961, 78.40677642822266, 0.41176078, -1.8313432, -3.5587168
461, 1771201329, -10.219669342041016, -9.65207290649414, 78.75432586669922, -0.41122216, -2.620504, -3.470182
462, 1771217996, -12.270371437072754, -3.614076852798462, 78.95550537109375, 0.5292347, -3.8647692, -2.9055357
463, 1771234663, -14.189163208007812, 2.8005447387695312, 78.7232894897461, 0.23881973, -4.9521356, -1.7105236
464, 1771251330, -15.745682716369629, 9.614420890808105, 78.12577056884766, -1.3263221, -6.373811, -0.6021986
465, 1771267997, -17.13976287841797, 16.78668212890625, 77.35025024414062, -2.5006595, -7.8617277, 0.5455189
466, 1771284664, -18.6185302734375, 24.200767517089844, 76.38545227050781, -2.889907, -9.166975, 2.2965183
467, 1771301331, -20.25510025024414, 31.648948669433594, 75.15416717529297, -3.4190016, -10.042685, 4.4681425
468, 1771317998, -22.037343978881836, 38.75870895385742, 73.71379089355469, -3.1094193, -9.064667, 7.0608234
469, 1771334665, -24.021440505981445, 45.10177993774414, 72.0618667602539, -2.7910554, -6.1856704, 8.248886
470, 1771351332, -25.823137283325195, 50.48252487182617, 70.44923400878906, -2.3845963, -1.6630898, 8.289419
471, 1771367999, -27.179853439331055, 54.725582122802734, 69.12435913085938, -1.1580356, 2.322571, 7.4975376
472, 1771384666, -28.16084861755371, 57.84600067138672, 68.21207427978516, -0.7229312, 3.7758646, 5.1405926
473, 1771401333, -29.31949234008789, 60.20703125, 67.61334228515625, -0.24262734, 4.521329, 4.320244
474, 1771418000, -30.98894500732422, 62.20259475708008, 67.24030303955078, -0.026636263, 6.8960443, 6.133911
475, 1771434667, -32.70254135131836, 64.01676177978516, 67.12616729736328, 0.9913063, 9.411565, 7.9214745
476, 1771451334, -33.80606460571289, 65.5997543334961, 67.0085220336914, 3.4104965, 11.075353, 8.93162
477, 1771468001, -34.0324821472168, 66.83922576904297, 66.82804870605469, 4.670701, 11.477448, 8.080036
478, 1771484668, -33.60835647583008, 67.53741455078125, 66.77713012695312, 3.5688894, 10.366129, 6.794924
479, 1771501335, -33.12800216674805, 67.65959167480469, 67.17401885986328, 2.1735313, 8.14323, 5.2701035
480, 1771518002, -32.65132141113281, 67.16089630126953, 68.26239013671875, 1.7014825, 8.313867, 4.435111
481, 1771534669, -31.831222534179688, 66.09916687011719, 69.84022521972656, 2.918112, 8.787022, 4.612137
482, 1771551336, -30.402040481567383, 64.58749389648438, 71.46971893310547, 4.0532813, 8.130419, 5.038903
483, 1771568003, -28.448637008666992, 62.799896240234375, 72.95697021484375, 3.8055646, 6.523887, 4.6044073
484, 1771584670, -26.466224670410156, 60.73845672607422, 74.22663116455078, 3.2231655, 5.412351, 4.116351
485, 1771601337, -24.642070770263672, 58.34944534301758, 75.29920196533203, 2.9427693, 3.8092499, 3.5316343
486, 1771618004, -23.10881805419922, 55.614524841308594, 76.19963836669922, 2.6002052, 3.2322297, 4.0408745
487, 1771634671, -21.722057342529297, 52.54385757446289, 76.85942077636719, 2.722836, 2.5355828, 4.6646137
488, 1771651338, -20.330781936645508, 49.20803451538086, 77.3671646118164, 2.3578744, 1.7769351, 4.988057
489, 1771668005, -19.001815795898438, 45.631324768066406, 77.74419403076172, 2.070373, 1.0176831, 4.4382915
490, 1771684672, -17.950727462768555, 41.95970916748047, 77.92813873291016, 1.8725694, 0.35688537, 3.9074793
491, 1771701339, -17.07837677001953, 38.047542572021484, 78.0020751953125, 1.3325348, 0.22006549, 5.0104885
492, 1771718006, -16.066265106201172, 33.84901428222656, 78.04303741455078, 1.2352415, -0.51811934, 5.73368
493, 1771734673, -14.935463905334473, 29.40451431274414, 78.00333404541016, 1.3903469, -1.9624795, 5.0853195
494, 1771751340, -14.057967185974121, 24.7958984375, 77.85940551757812, 0.47333628, -2.871848, 3.9180765
495, 1771768007, -13.697874069213867, 20.10384750366211, 77.63751220703125, -0.5850586, -3.1670663, 2.956605
496, 1771784674, -13.695671081542969, 15.242880821228027, 77.41175079345703, -0.9591691, -3.5360818, 3.3377962
497, 1771801341, -13.699849128723145, 10.107626914978027, 77.17971801757812, -0.5228575, -4.7217836, 3.8928022
498, 1771818008, -13.510348320007324, 4.797609329223633, 76.94886779785156, 0.018411074, -5.417611, 2.774272
499, 1771834675, -13.432393074035645, -0.5700314044952393, 76.71550750732422, -1.294597, -4.605536, 1.4910288
500, 1771851342, -13.438277244567871, -6.015529155731201, 76.51319122314453, -1.2767198, -4.6378593, 1.2555761
501, 1771868009, -13.283169746398926, -11.623581886291504, 76.21525573730469, -0.86176705, -5.4835386, 0.89049816
502, 1771884676, -12.726082801818848, -17.173524856567383, 75.83403015136719, -0.5537806, -5.2109103, -0.43019962
503, 1771901343, -11.998967170715332, -22.641511917114258, 75.41387176513672, -0.9802686, -4.4046884, -1.4479218
504, 1771918010, -11.320201873779297, -28.026412963867188, 74.9027099609375, -1.5187812, -3.7955427, -2.2982187
505, 1771934677, -10.601634979248047, -33.34172439575195, 74.26806640625, -1.3517746, -3.5445354, -3.107133
506, 1771951344, -9.707921981811523, -38.57933044433594, 73.41610717773438, -0.85374105, -3.2095761, -3.4548402
507, 1771968011, -8.548256874084473, -43.703304290771484, 72.39151763916016, -0.7752605, -2.5316844, -3.7518516
508, 1771984678, -7.188960075378418, -48.669193267822266, 71.21853637695312, -0.91268396, -2.0866435, -4.1169252
509, 1772001345, -5.624300956726074, -53.543418884277344, 69.81407165527344, -0.9625679, -2.2687817, -4.767354
510, 1772018012, -3.698718309402466, -58.34737014770508, 67.98474884033203, -0.95321995, -2.0151238, -4.9412417
511, 1772034679, -1.0682624578475952, -63.135009765625, 65.56124877929688, -0.5328875, -2.4038026, -4.6726093
512, 1772051346, 2.854447603225708, -67.88761138916016, 62.087364196777344, -0.25755733, -2.8306253, -5.32446
513, 1772068013, 8.904069900512695, -72.60275268554688, 56.6734733581543, -0.2237424, -2.3605895, -6.408682
514, 1772084680, 18.333208084106445, -76.91828918457031, 47.51994705200195, -0.46473116, 0.42322972, -5.6900334
515, 1772101347, 35.16365432739258, -80.64241027832031, 30.573558807373047, -1.5130002, 0.73854136, -5.1004515
516, 1772118014, 67.54673767089844, -82.84083557128906, -1.717369794845581, -0.48572707, -0.7200374, -6.028406
517, 1772134681, 105.54006958007812, -81.97498321533203, -38.97247314453125, 1.4834467, 0.44182065, -6.6583757
518, 1772151348, 128.24295043945312, -78.89764404296875, -60.92170333862305, -0.0054357233, 2.318767, -6.4521623
519, 1772168015, 140.67587280273438, -74.92552185058594, -72.67100524902344, -1.1642427, 2.8707252, -6.1420207
520, 1772184682, 148.05616760253906, -70.56597900390625, -79.3724594116211, -0.03684969, 2.0168984, -6.789774
521, 1772201349, 153.11810302734375, -66.15250396728516, -83.50041961669922, 1.4223238, 2.7535527, -6.6583734
522, 1772218016, 156.7156524658203, -61.82826614379883, -86.11666107177734, 1.3748329, 4.3055463, -5.333132
523, 1772234683, 159.4391632080078, -57.65375900268555, -87.8971176147461, 0.9291418, 5.8994737, -3.5594473
524, 1772251350, 161.443359375, -53.73293685913086, -89.028076171875, 1.2312515, 6.6969266, -2.6093116
525, 1772268017, 163.08096313476562, -50.2320442199707, -89.72150421142578, 2.2884717, 7.2369614, -1.778161
526, 1772284684, 164.73428344726562, -47.29413604736328, -90.02311706542969, 3.4956994, 7.430451, 0.42433262
527, 1772301351, 166.19712829589844, -45.063899993896484, -89.95537567138672, 3.1670654, 7.889747, 3.2673407
528, 1772318018, 166.69009399414062, -43.735286712646484, -89.6492919921875, 0.013567194, 8.696361, 6.2581425
529, 1772334685, 165.97589111328125, -43.344871520996094, -89.15150451660156, -0.4645163, 9.104721, 6.9047985
530, 1772351352, 164.63462829589844, -44.01255798339844, -88.47608947753906, 1.8435206, 8.313861, 6.787569
531, 1772368019, 163.5104217529297, -45.60596466064453, -87.83422088623047, 1.8159859, 7.0214605, 4.9237127
532, 1772384686, 162.9665069580078, -47.94674301147461, -87.31661987304688, 1.4349205, 6.0373664, 2.890109
533, 1772401353, 162.512939453125, -50.65819549560547, -86.768798828125, 1.7226481, 4.9325123, 0.6847296
534, 1772418020, 161.7242431640625, -53.54278564453125, -86.08120727539062, 1.301444, 4.3577886, 0.02922821
535, 1772434687, 160.2698211669922, -56.56341552734375, -85.18487548828125, 0.5430039, 3.8589547, -0.3551836
536, 1772451354, 158.4745330810547, -59.65272903442383, -84.19709777832031, 0.7873055, 2.7643054, -1.2460575
537, 1772468021, 156.759765625, -62.803646087646484, -83.12443542480469, 1.8614187, 2.2969515, -1.3353615
538, 1772484688, 154.91412353515625, -66.0739517211914, -81.7281265258789, 2.164699, 2.5269327, -1.317832
539, 1772501355, 152.55520629882812, -69.4267807006836, -79.749267578125, 1.5162778, 2.5398998, -1.8478904
540, 1772518022, 149.33889770507812, -72.76660919189453, -76.78728485107422, 1.6240578, 2.2428782, -2.3484106
541, 1772534689, 144.1367645263672, -76.14054870605469, -71.8861312866211, 1.392609, 2.75498, -2.3482747
542, 1772551356, 135.33152770996094, -79.45445251464844, -63.52909469604492, 0.65318096, 2.8995214, -2.411809
543, 1772568023, 119.31497955322266, -82.37429809570312, -47.996299743652344, 0.7459875, 2.4846845, -2.6711226
544, 1772584690, 89.0323486328125, -84.1529312133789, -18.10491943359375, 1.156713, 2.0469902, -3.0091019
545, 1772601357, 51.08539581298828, -83.57142639160156, 19.5493106842041, 1.2891346, 1.9874897, -3.1284275
546, 1772618024, 27.256948471069336, -80.92853546142578, 43.071102142333984, 0.6082734, 1.56429, -3.3432717
547, 1772634691, 14.900461196899414, -77.5177993774414, 55.187171936035156, -0.26246613, 1.4015281, -3.3521214
548, 1772651358, 7.662764549255371, -73.73014068603516, 62.06354522705078, -0.042305302, 1.6923676, -3.3642664
549, 1772668025, 2.7740886211395264, -69.70799255371094, 66.47679901123047, -0.2414406, 1.3251065, -3.8348417
550, 1772684692, -0.6143859624862671, -65.47942352294922, 69.43544006347656, 0.3433349, 0.9602996, -3.8793325
551, 1772701359, -2.9715769290924072, -61.158935546875, 71.51761627197266, 0.13123105, 0.22786129, -3.8821435
552, 1772718026, -4.6727519035339355, -56.74129104614258, 73.03026580810547, 0.004448131, 0.5227407, -4.0044365
553, 1772734693, -6.092159748077393, -52.1944465637207, 74.15225219726562, -0.2994175, 0.31614107, -4.260771
554, 1772751360, -7.363032817840576, -47.614166259765625, 74.99549102783203, -0.43344304, -1.0279298, -4.3473053
555, 1772768027, -8.36395263671875, -42.933292388916016, 75.66351318359375, 0.05986951, -1.607943, -4.345061
556, 1772784694, -9.259410858154297, -38.11149215698242, 76.16413116455078, -0.3441944, -1.6984215, -4.0873737
557, 1772801361, -10.149273872375488, -33.23752212524414, 76.58756256103516, -0.93889076, -1.7547376, -4.0216994
558, 1772818028, -10.971619606018066, -28.402074813842773, 76.9433822631836, -1.0177548, -3.4541185, -3.6684518
559, 1772834695, -11.637972831726074, -23.581310272216797, 77.30021667480469, -0.22612895, -4.6345086, -3.5535088
560, 1772851362, -12.1888427734375, -18.783546447753906, 77.51200103759766, -0.0102284, -4.406121, -3.102559
561, 1772868029, -12.616783142089844, -14.058555603027344, 77.60367584228516, -0.370807, -4.1758676, -2.1045585
562, 1772884696, -13.065629959106445, -9.361588478088379, 77.67743682861328, -0.60078865, -4.3028207, -1.4295149
563, 1772901363, -13.47569465637207, -4.6922383308410645, 77.78465270996094, -0.6155593, -4.7623024, -1.2746382
564, 1772918030, -13.722646713256836, -0.2401288002729416, 77.92070770263672, -0.39770672, -5.5607843, -0.37598228
565, 1772934697, -13.89769172668457, 4.040025234222412, 78.0256118774414, -0.31043714, -5.1295543, -0.020852089
566, 1772951364, -14.115813255310059, 8.17676830291748, 78.14026641845703, -0.34381142, -4.5700736, 0.7643852
567, 1772968031, -14.428122520446777, 12.121078491210938, 78.27932739257812, -0.37042728, -4.0630608, 1.3649635
568, 1772984698, -14.785852432250977, 15.954516410827637, 78.47077941894531, -0.4660088, -3.6558316, 1.1394281
569, 1773001365, -15.301473617553711, 19.693878173828125, 78.716796875, -0.53143305, -3.36149, 1.3373213
570, 1773018032, -15.96727180480957, 23.361101150512695, 78.95075225830078, -0.12154249, -2.4936233, 1.8729172
571, 1773034699, -16.616180419921875, 27.02445411682129, 79.11248016357422, 0.64818525, -1.8769362, 2.5110006
572, 1773051366, -17.173730850219727, 30.748374938964844, 79.21923828125, 0.7538352, -1.7026227, 2.542303
573, 1773068033, -17.888126373291016, 34.486351013183594, 79.33171844482422, 0.27104825, -1.5846651, 2.6176004
574, 1773084700, -18.945825576782227, 38.20759201049805, 79.44758605957031, -0.17731763, -1.0790007, 2.67591
575, 1773101367, -20.245702743530273, 41.88142776489258, 79.50321960449219, 0.37163308, -0.35202754, 3.1194754
576, 1773118034, -21.751564025878906, 45.48185348510742, 79.3899154663086, 1.1396396, 0.7287036, 4.1059456
577, 1773134701, -23.106277465820312, 49.033016204833984, 79.10277557373047, 1.6621586, 1.837154, 4.4965954
578, 1773151368, -24.253252029418945, 52.45845031738281, 78.70822143554688, 1.7108005, 2.4209502, 4.7174406
579, 1773168035, -25.398921966552734, 55.59019088745117, 78.31805419921875, 1.1743035, 2.3858714, 4.6459312
580, 1773184702, -26.83238410949707, 58.31903839111328, 77.9423599243164, 0.83889866, 3.6160083, 4.668153
581, 1773201369, -28.386638641357422, 60.56221008300781, 77.50052642822266, 1.9099772, 5.6003456, 5.645873
582, 1773218036, -29.889747619628906, 62.33168029785156, 77.0444564819336, 2.4688516, 6.732161, 5.9864283
583, 1773234703, -31.184789657592773, 63.60745620727539, 76.76486206054688, 2.062456, 7.064743, 5.189866
584, 1773251370, -32.370384216308594, 64.41748046875, 76.72740173339844, 2.1992347, 7.899149, 4.599371
585, 1773268037, -33.21867752075195, 64.83341217041016, 76.7935562133789, 2.9216864, 10.055905, 5.24547
586, 1773284704, -33.20603561401367, 64.77899169921875, 77.0296630859375, 3.3687627, 10.485003, 5.200246
587, 1773301371, -32.688228607177734, 64.28777313232422, 77.37611389160156, 2.7655268, 9.186976, 4.695979
588, 1773318038, -31.90578842163086, 63.31648254394531, 77.935791015625, 2.1315913, 8.044398, 4.6708555
589, 1773334705, -30.84543228149414, 61.86549758911133, 78.6820297241211, 2.3208761, 7.5388703, 4.792507
590, 1773351372, -29.501157760620117, 59.98418426513672, 79.45674133300781, 2.5926974, 6.587259, 4.705161
591, 1773368039, -28.138813018798828, 57.77836227416992, 80.15718841552734, 2.4272532, 5.5386825, 4.407749
592, 1773384706, -26.93157386779785, 55.344505310058594, 80.68477630615234, 2.3707206, 4.513611, 4.5028143
593, 1773401373, -25.81114959716797, 52.6740608215332, 81.01408386230469, 2.4765127, 3.811999, 5.227997
594, 1773418040, -24.50014305114746, 49.83855056762695, 81.20254516601562, 2.6844337, 2.8195825, 5.1947203
595, 1773434707, -22.99099349975586, 46.762428283691406, 81.26136779785156, 2.6444561, 1.9332478, 4.9005213
596, 1773451374, -21.356191635131836, 43.48619842529297, 81.21864318847656, 2.566018, 1.0462317, 4.487259
597, 1773468041, -19.926034927368164, 39.954833984375, 81.15943145751953, 1.8735266, 0.13945085, 4.937049
598, 1773484708, -18.57647132873535, 35.99504089355469, 81.09356689453125, 1.7353222, -0.9055672, 5.266073
599, 1773501375, -17.317039489746094, 31.555736541748047, 80.92041778564453, 1.8750564, -1.6912345, 5.3216314
600, 1773518042, -16.132787704467773, 26.834529876708984, 80.64835357666016, 1.8655603, -2.155233, 4.916004
601, 1773534709, -15.012838363647461, 21.93885040283203, 80.23886108398438, 1.6318754, -2.8250842, 4.616662
602, 1773551376, -13.980098724365234, 16.865772247314453, 79.78964233398438, 1.0451989, -3.7003224, 4.6189356
603, 1773568043, -12.90683364868164, 11.574275970458984, 79.29328155517578, 0.37787655, -4.388412, 4.5475845
604, 1773584710, -11.84072494506836, 6.1433281898498535, 78.71031188964844, 0.6625679, -4.0562477, 3.828927
605, 1773601377, -11.05533218383789, 0.7640244960784912, 78.15280151367188, -0.14778823, -2.1517575, 2.0133286
606, 1773618044, -11.01900577545166, -4.583000659942627, 77.66060638427734, -1.5486754, -1.2374732, 1.5275354
607, 1773634711, -11.369925498962402, -10.021303176879883, 77.14669036865234, -1.4319657, -3.155493, 2.1131296
608, 1773651378, -11.329009056091309, -15.455595016479492, 76.55457305908203, 0.26745796, -5.073155, 1.7145433
609, 1773668045, -10.84395980834961, -20.756032943725586, 75.73528289794922, 0.53422254, -4.2402973, 0.3397951
610, 1773684712, -10.203547477722168, -25.97618293762207, 74.8144302368164, -1.5304843, -3.737623, -0.40705013
611, 1773701379, -9.474751472473145, -31.286293029785156, 73.87208557128906, -2.1771533, -5.300553, -1.1260357
612, 1773718046, -8.438118934631348, -36.71195983886719, 72.83128356933594, -1.5675542, -6.9215784, -2.2153268
613, 1773734713, -6.9834699630737305, -42.21617126464844, 71.59525299072266, -1.4950322, -7.448502, -3.692062
614, 1773751380, -5.1006269454956055, -47.796165466308594, 70.03546905517578, -1.5627092, -6.1930575, -5.0196958
615, 1773768047, -3.1701059341430664, -53.38301086425781, 68.01043701171875, -2.401085, -4.303403, -5.564081
616, 1773784714, -1.013654351234436, -59.01144027709961, 65.35405731201172, -2.9160435, -4.3298335, -6.285427
617, 1773801381, 2.401808977127075, -64.75503540039062, 61.635189056396484, -1.6448733, -6.022918, -7.3680363
618, 1773818048, 8.54066276550293, -70.39227294921875, 55.792423248291016, 0.5511055, -5.059816, -8.044178
619, 1773834715, 19.506507873535156, -75.6092529296875, 45.50682067871094, 0.3702576, -2.5064332, -7.8827553
620, 1773851382, 40.74004364013672, -79.87449645996094, 24.826200485229492, -0.9903013, -1.5133436, -8.139699
621, 1773868049, 78.74320983886719, -81.53308868408203, -12.766348838806152, -0.56253374, -0.7517688, -8.259055
622, 1773884716, 113.68328094482422, -79.10796356201172, -47.40159606933594, 0.4010582, 0.6611025, -8.106117
623, 1773901383, 131.78158569335938, -74.4079360961914, -65.1712646484375, 0.9554548, 1.5768772, -7.78636
624, 1773918050, 141.11119079589844, -68.9209976196289, -74.15840911865234, 0.99089396, 2.5739393, -7.413412
625, 1773934717, 146.45350646972656, -63.18040466308594, -79.26396179199219, 1.4164107, 4.893107, -5.8903875
626, 1773951384, 149.48684692382812, -57.46682357788086, -82.3405990600586, 0.64931375, 5.7951427, -4.758766
627, 1773968051, 151.73841857910156, -51.86737823486328, -84.53753662109375, 0.45392543, 5.481622, -5.48075
628, 1773984718, 153.71327209472656, -46.42738342285156, -86.07233428955078, 1.9753954, 6.0136724, -5.379205
629, 1774001385, 155.39036560058594, -41.324195861816406, -87.02617645263672, 2.7761912, 6.939996, -3.489626
630, 1774018052, 156.44134521484375, -36.631343841552734, -87.63278198242188, 1.0660899, 8.3461685, -0.88775444
631, 1774034719, 156.70938110351562, -32.3912467956543, -88.03277587890625, -0.3154975, 8.980878, 1.0208092
632, 1774051386, 156.6234588623047, -28.741422653198242, -88.29886627197266, 0.55980444, 8.675412, 2.2318935
633, 1774068053, 156.7832489013672, -26.09620475769043, -88.42803192138672, 2.8261404, 7.6088657, 3.414177
634, 1774084720, 157.1942901611328, -24.646413803100586, -88.37732696533203, 2.9146936, 8.018103, 5.852683
635, 1774101387, 157.1131591796875, -24.38890838623047, -88.12024688720703, 0.53980094, 8.433793, 7.548666
636, 1774118054, 156.38986206054688, -25.223424911499023, -87.7665786743164, -0.8419723, 8.430271, 6.0164413
637, 1774134721, 155.5831298828125, -27.01556968688965, -87.39559173583984, 1.0672512, 8.008917, 3.247365
638, 1774151388, 155.0003204345703, -29.641101837158203, -86.98079681396484, 1.4915428, 7.3560343, 0.44009495
639, 1774168055, 154.59719848632812, -32.839263916015625, -86.52833557128906, 0.50770366, 7.2545285, -1.5424929
640, 1774184722, 154.11904907226562, -36.4014892578125, -86.01818084716797, -0.20847121, 7.0109506, -2.692338
641, 1774201389, 153.55728149414062, -40.23819351196289, -85.46256256103516, 0.035907693, 6.1541686, -3.8270402
642, 1774218056, 153.036865234375, -44.30789566040039, -84.85563659667969, 0.3624986, 5.2456374, -4.5012403
643, 1774234723, 152.61988830566406, -48.60030746459961, -84.18091583251953, 0.2985015, 4.633261, -4.752669
644, 1774251390, 151.86895751953125, -53.11761474609375, -83.23274993896484, 0.48838827, 4.8132544, -4.618607
645, 1774268057, 150.42845153808594, -57.78898239135742, -81.89080810546875, 0.13127151, 4.6843104, -5.2591357
646, 1774284724, 148.3399200439453, -62.60184097290039, -80.00859069824219, -0.16690685, 3.991706, -6.069792
647, 1774301391, 145.4065399169922, -67.52888488769531, -77.23739624023438, 0.17296746, 3.1157126, -6.403281
648, 1774318058, 140.85379028320312, -72.64921569824219, -72.70032501220703, -5.64929E-4, 2.2780793, -6.541439
649, 1774334725, 132.38491821289062, -77.85123443603516, -64.10823822021484, 0.046297718, 2.0343387, -6.716906
650, 1774351392, 111.90277099609375, -82.42472076416016, -43.577392578125, 0.82885, 1.8511155, -6.850305
651, 1774368059, 62.91541290283203, -84.21436309814453, 5.247762680053711, 0.36563206, 0.8751338, -6.8166776
652, 1774384726, 21.4788875579834, -81.14434814453125, 46.2730712890625, 0.46808776, 0.31409934, -6.2077065
653, 1774401393, 5.353916645050049, -75.93294525146484, 62.182861328125, 0.4977865, -0.3953165, -6.008193
654, 1774418060, -1.4048646688461304, -70.03349304199219, 69.08545684814453, 0.9454253, -1.1978344, -6.542137
655, 1774434727, -4.64049768447876, -63.71491622924805, 72.68350219726562, 0.99242365, -2.0764236, -6.3946953
656, 1774451394, -6.364097595214844, -57.32109832763672, 74.68238067626953, -0.029694144, -3.7958615, -5.917263
657, 1774468061, -7.33461332321167, -50.85885238647461, 76.03329467773438, -0.51247185, -5.3174553, -5.049499
658, 1774484728, -7.865174770355225, -44.38528823852539, 77.05984497070312, 0.15012114, -6.5522714, -4.6002617
659, 1774501395, -8.194573402404785, -37.918399810791016, 77.79376220703125, 0.88435984, -6.3853636, -4.0304165
660, 1774518062, -8.608577728271484, -31.467042922973633, 78.34723663330078, -0.31557482, -6.2214737, -2.4483094
661, 1774534729, -9.151403427124023, -25.328615188598633, 78.91604614257812, -1.3576932, -8.268981, -0.4321108
662, 1774551396, -9.390716552734375, -19.490734100341797, 79.58441925048828, 0.7232611, -8.080051, 0.8081627
663, 1774568063, -9.246365547180176, -13.769996643066406, 80.20538330078125, 1.8877621, -6.1859126, 1.8577824
664, 1774584730, -9.03222942352295, -7.952624797821045, 80.75694274902344, 0.4692526, -3.0247269, 2.264288
665, 1774601397, -9.02469539642334, -1.9735503196716309, 81.24011993408203, -0.31780496, -0.9661651, 1.9076376
666, 1774618064, -9.107538223266602, 4.128572940826416, 81.71327209472656, 0.451364, -0.7290738, 2.6807203
667, 1774634731, -9.011418342590332, 10.400781631469727, 82.15320587158203, 1.6157178, -1.2380812, 3.1541243
668, 1774651398, -9.065912246704102, 16.962907791137695, 82.42851257324219, 2.0329547, -1.7482421, 2.452281
669, 1774668065, -10.027358055114746, 23.77149200439453, 82.37699890136719, 0.51832646, -2.3509617, 1.9891777
670, 1774684732, -11.845457077026367, 30.654752731323242, 82.06356048583984, 0.52337784, -3.26093, 4.731716
671, 1774701399, -13.933960914611816, 37.503475189208984, 81.35125732421875, 1.8929433, -4.46673, 8.002125
672, 1774718066, -15.693927764892578, 44.1331901550293, 80.38034057617188, 2.5095873, -5.151746, 10.053831
673, 1774734733, -17.293434143066406, 50.174888610839844, 79.20800018310547, 1.823608, -4.1215024, 9.905079
674, 1774751400, -19.06897735595703, 55.2928352355957, 77.72541046142578, 1.1959658, -1.898414, 8.312817
675, 1774768067, -21.60137939453125, 59.2712287902832, 76.16065216064453, -1.0333561, 1.4315457, 7.81143
676, 1774784734, -24.449329376220703, 62.05603790283203, 75.00605010986328, -0.8088004, 4.530281, 5.965931
677, 1774801401, -27.03060531616211, 63.884029388427734, 74.30086517333984, 0.7494805, 7.317216, 4.838358
678, 1774818068, -28.96360206604004, 65.0418472290039, 73.95997619628906, 2.3116136, 9.867969, 4.483836
679, 1774834735, -30.622303009033203, 65.8637466430664, 73.5450210571289, 1.8752735, 10.871613, 4.77497
680, 1774851402, -31.92988395690918, 66.43415069580078, 73.24361419677734, 1.3764772, 12.134143, 6.368025
681, 1774868069, -32.511009216308594, 66.61538696289062, 73.13761901855469, 2.5235522, 12.274944, 6.8042355
682, 1774884736, -31.9022159576416, 66.24755859375, 73.64668273925781, 2.0520926, 11.424845, 6.1124
683, 1774901403, -30.407079696655273, 65.12577819824219, 74.74259948730469, 1.5419095, 10.78229, 5.529868
684, 1774918070, -28.431028366088867, 63.34000778198242, 76.22074890136719, 1.8344519, 9.503399, 5.339512
685, 1774934737, -26.132970809936523, 60.98484802246094, 77.78206634521484, 2.6167045, 8.110039, 6.015258
686, 1774951404, -23.85173797607422, 58.18893051147461, 79.1268310546875, 3.0667388, 6.2878156, 6.1663046
687, 1774968071, -21.584211349487305, 54.98635482788086, 80.243896484375, 2.8584418, 4.9385495, 6.011326
688, 1774984738, -19.34294319152832, 51.34503173828125, 81.12029266357422, 3.341246, 3.724721, 6.6329556
689, 1775001405, -17.421945571899414, 47.35839080810547, 81.63894653320312, 3.7483456, 1.519467, 6.5193024
690, 1775018072, -15.785000801086426, 43.148170471191406, 81.91678619384766, 3.5105855, 0.23540251, 5.8993616
691, 1775034739, -14.743063926696777, 38.70765686035156, 81.98056030273438, 2.9102113, -0.664728, 5.018697
692, 1775051406, -14.41068172454834, 34.073909759521484, 81.91251373291016, 1.5572599, -1.2551193, 5.0491533
693, 1775068073, -14.452775955200195, 29.238893508911133, 81.79078674316406, 1.762481, -1.868269, 4.5912495
694, 1775084740, -14.49024772644043, 24.262454986572266, 81.51744079589844, 3.4053292, -2.1290157, 5.1661816
695, 1775101407, -14.23169231414795, 19.296993255615234, 81.03060913085938, 3.1286075, -2.5417025, 4.1441383
696, 1775118074, -13.64577865600586, 14.2965087890625, 80.47513580322266, 2.1577404, -2.4839494, 3.6201038
697, 1775134741, -13.11333179473877, 9.365289688110352, 79.82232666015625, 1.323696, -2.3670728, 2.793272
698, 1775151408, -12.61863899230957, 4.368260860443115, 79.15245056152344, 0.79500306, -2.6723585, 3.3541183
699, 1775168075, -11.852919578552246, -0.692430317401886, 78.46306610107422, 1.7022709, -2.1853702, 3.480544
700, 1775184742, -11.014545440673828, -5.694529056549072, 77.73455810546875, 1.4883882, -1.5880928, 2.6267796
701, 1775201409, -10.296064376831055, -10.719441413879395, 76.92646789550781, 0.1552469, -2.5613167, 2.084836
702, 1775218076, -9.56686019897461, -15.871515274047852, 75.98541259765625, 0.19181345, -4.8616886, 2.110404
703, 1775234743, -8.73326587677002, -21.014019012451172, 74.9117202758789, 0.06812529, -6.0875487, 1.355938
704, 1775251410, -7.985193252563477, -26.163330078125, 73.7602767944336, -0.9789967, -5.0858607, 0.22819138
705, 1775268077, -7.496896743774414, -31.360193252563477, 72.67066192626953, -2.2604032, -4.138016, 0.23649406
706, 1775284744, -6.986804008483887, -36.58875274658203, 71.48320770263672, -1.9851569, -5.540364, -0.08735657
707, 1775301411, -5.98167085647583, -41.8299674987793, 70.0274887084961, -1.4277735, -8.2333355, -1.8502488
708, 1775318078, -4.053660869598389, -47.12303161621094, 68.08122253417969, -1.0239893, -9.174331, -3.860547
709, 1775334745, -1.2088427543640137, -52.38690185546875, 65.48123931884766, -1.1402583, -6.93523, -4.928228
710, 1775351412, 2.128955602645874, -57.58821487426758, 62.00808334350586, -2.461291, -4.7571416, -5.3498673
711, 1775368079, 6.498324394226074, -62.67628860473633, 57.292903900146484, -2.549339, -4.2163754, -6.315604
712, 1775384746, 12.68820858001709, -67.50391387939453, 50.81743240356445, -1.814565, -3.975739, -7.591814
713, 1775401413, 21.857603073120117, -71.93855285644531, 41.51236343383789, -1.5345173, -3.0453675, -8.237131
714, 1775418080, 36.1482048034668, -75.67289733886719, 27.302413940429688, -1.1139532, -1.8444031, -8.664757
715, 1775434747, 57.46082305908203, -77.96923065185547, 5.967646598815918, -1.1283183, -0.4815671, -8.7153015
716, 1775451414, 83.33086395263672, -78.15008544921875, -19.994354248046875, -1.0809352, 0.21912953, -8.385135
717, 1775468081, 105.57837677001953, -76.12706756591797, -42.247596740722656, -0.79121566, 0.6065395, -8.779709
718, 1775484748, 120.75808715820312, -72.6708755493164, -57.16935348510742, -0.26066446, 1.622593, -9.071649
719, 1775501415, 130.6954803466797, -68.49146270751953, -66.7199478149414, 0.33651757, 2.6480196, -7.9088697
720, 1775518082, 137.02833557128906, -64.01729583740234, -72.8155517578125, 0.68957716, 4.666706, -5.5329146
721, 1775534749, 141.03929138183594, -59.429325103759766, -76.87964630126953, 0.11534628, 5.133022, -4.4336147
722, 1775551416, 143.86843872070312, -54.83470153808594, -79.85160064697266, 0.26874992, 5.855846, -4.9011316
723, 1775568083, 146.14794921875, -50.32014083862305, -82.00154113769531, 1.332624, 5.93624, -5.5771127
724, 1775584750, 148.12130737304688, -46.05856704711914, -83.55313110351562, 2.3344061, 6.406339, -4.2418303
725, 1775601417, 149.6973419189453, -42.08683776855469, -84.66068267822266, 2.2338545, 7.219312, -1.2431555
726, 1775618084, 150.6393280029297, -38.36229705810547, -85.44464111328125, 0.38526118, 7.659551, -0.15903187
727, 1775634751, 151.26846313476562, -34.95545959472656, -86.02569580078125, 0.4776207, 7.8948317, -0.24455547
728, 1775651418, 151.7586669921875, -32.00895309448242, -86.39326477050781, 1.9582218, 7.7903476, 0.040421486
729, 1775668085, 152.14830017089844, -29.721120834350586, -86.54759979248047, 2.782719, 7.6238256, 1.5419903
730, 1775684752, 152.327392578125, -28.10831069946289, -86.53446197509766, 1.6241, 7.6577516, 2.942276
731, 1775701419, 152.29795837402344, -27.16115951538086, -86.3821029663086, 0.8241845, 7.7908506, 3.1063051
732, 1775718086, 152.19033813476562, -26.842557907104492, -86.12733459472656, 0.8148538, 7.5775585, 2.1121607
733, 1775734753, 152.14256286621094, -27.10561180114746, -85.79084014892578, 0.8955515, 6.9798636, 0.640295
734, 1775751420, 152.2979278564453, -27.954883575439453, -85.45885467529297, 1.0568401, 6.4999404, -0.054293633
735, 1775768087, 152.39120483398438, -29.34778594970703, -85.06878662109375, 0.69854677, 6.5241404, -0.24145985
736, 1775784754, 152.2835693359375, -31.153644561767578, -84.65972900390625, -0.2052706, 6.417573, -0.96578217
737, 1775801421, 152.01995849609375, -33.292633056640625, -84.20695495605469, 0.038721215, 6.008728, -2.107583
738, 1775818088, 151.7486572265625, -35.77426528930664, -83.68911743164062, 0.61772954, 5.3904233, -2.9240746
739, 1775834755, 151.4671173095703, -38.58821105957031, -83.0484848022461, 0.78822166, 4.832357, -3.1651154
740, 1775851422, 151.1027069091797, -41.63082504272461, -82.29236602783203, 0.36861593, 4.4861064, -3.3750935
741, 1775868089, 150.54385375976562, -44.91893768310547, -81.35865783691406, 0.2704457, 4.130182, -3.4519424
742, 1775884756, 149.50035095214844, -48.477508544921875, -80.12230682373047, 0.42631555, 3.9181168, -3.6381998
743, 1775901423, 147.964111328125, -52.251502990722656, -78.50965881347656, 0.37229815, 3.5079398, -3.8731084
744, 1775918090, 146.064697265625, -56.20394515991211, -76.40773010253906, 0.7266444, 2.8845832, -3.9962687
745, 1775934757, 143.5472412109375, -60.358062744140625, -73.5639419555664, 0.62867427, 2.3810515, -4.1044936
746, 1775951424, 139.90682983398438, -64.69459533691406, -69.59951782226562, 0.5783835, 2.2804854, -4.5275364
747, 1775968091, 134.3175811767578, -69.07357025146484, -63.76016616821289, 0.5049811, 1.9758384, -4.866444
748, 1775984758, 125.35570526123047, -73.23403930664062, -54.644126892089844, 0.69480443, 1.2039319, -4.375619
749, 1776001425, 110.64107513427734, -76.77650451660156, -39.938480377197266, 0.68708014, 0.8597095, -3.6801958
750, 1776018092, 87.1260986328125, -79.03486633300781, -16.452301025390625, 0.49733958, 0.17717771, -3.9979591
751, 1776034759, 57.732425689697266, -78.7816390991211, 12.95559024810791, 1.1809409, -0.51113254, -4.027845
752, 1776051426, 35.3012809753418, -75.92503356933594, 35.55216979980469, 1.6938668, -1.2144563, -3.5264363
753, 1776068093, 22.466968536376953, -71.61595153808594, 48.90904235839844, 1.8555315, -1.9711299, -3.3228812
754, 1776084760, 15.205751419067383, -66.52049255371094, 56.93728256225586, 1.9976238, -2.0168803, -3.5953627
755, 1776101427, 10.855911254882812, -60.87855529785156, 61.99960708618164, 2.0005414, -0.7725156, -2.7869
756, 1776118094, 7.92801570892334, -55.07603073120117, 65.27548217773438, 0.90446955, -0.5079525, -2.7111564
757, 1776134761, 5.608480930328369, -49.3145751953125, 67.68592071533203, -0.36541507, -2.0012865, -2.9019022
758, 1776151428, 3.5520713329315186, -43.49345016479492, 69.70635986328125, 0.04517398, -3.5293736, -2.640141
759, 1776168095, 1.6983203887939453, -37.58958053588867, 71.4905014038086, 0.7172863, -3.5735643, -2.2414813
760, 1776184762, 0.18601053953170776, -31.68343162536621, 72.9833984375, 1.3462915, -2.8432646, -1.5873003
761, 1776201429, -1.2396655082702637, -25.849857330322266, 74.2199935913086, 0.20512913, -2.3860314, -0.857234
762, 1776218096, -2.7923085689544678, -20.088823318481445, 75.41497039794922, -0.5618416, -2.6909611, -0.39618397
763, 1776234763, -4.471682071685791, -14.422627449035645, 76.57428741455078, -0.0810876, -4.286282, 0.1150074
764, 1776251430, -5.990585803985596, -8.772098541259766, 77.5735092163086, 1.2993041, -4.5841446, 0.3820219
765, 1776268097, -7.0752363204956055, -3.2829747200012207, 78.1868667602539, 1.464271, -4.440502, 1.3384361
766, 1776284764, -8.06269359588623, 2.1776137351989746, 78.49256134033203, 1.0435492, -3.263477, 1.4986029
767, 1776301431, -9.056556701660156, 7.768702507019043, 78.70034790039062, 0.6270419, -2.382532, 1.2553282
768, 1776318098, -9.985013008117676, 13.558953285217285, 78.87393188476562, 0.5300765, -2.2134967, 1.2940559
769, 1776334765, -11.003809928894043, 19.53693962097168, 78.88939666748047, -0.18222252, -2.674136, 1.2903824
770, 1776351432, -12.14950942993164, 25.61637306213379, 78.67304229736328, -0.2610271, -4.28985, 3.2127695
771, 1776368099, -13.01579761505127, 31.711223602294922, 78.3219223022461, 0.34167242, -5.5093646, 5.4532833
772, 1776384766, -13.517578125, 37.707550048828125, 77.87775421142578, 0.46409392, -5.0087414, 6.259701
773, 1776401433, -14.140677452087402, 43.383888244628906, 77.30647277832031, -0.43856528, -3.737552, 6.449682
774, 1776418100, -15.218609809875488, 48.50320816040039, 76.59636688232422, -1.1984271, -1.5260944, 6.5954323
775, 1776434767, -16.711713790893555, 52.92280197143555, 75.86146545410156, -0.7704438, 0.21008117, 6.084098
776, 1776451434, -18.667579650878906, 56.86441421508789, 75.10596466064453, 0.33795473, 1.4942534, 5.352454
777, 1776468101, -20.800777435302734, 60.3582878112793, 74.25186157226562, 1.0475534, 4.185005, 5.0664434
778, 1776484768, -22.56709098815918, 63.393795013427734, 73.36553192138672, 1.4712912, 6.130049, 5.577507
779, 1776501435, -23.89338493347168, 65.85455322265625, 72.45064544677734, 2.1240852, 7.6108985, 5.387249
780, 1776518102, -24.827800750732422, 67.60507202148438, 71.71768951416016, 1.7977293, 7.7560697, 4.379243
781, 1776534769, -25.385791778564453, 68.59402465820312, 71.46656036376953, 1.1649554, 7.98232, 4.977888
782, 1776551436, -24.898412704467773, 68.84504699707031, 71.98243713378906, 2.9599118, 9.134985, 4.501357
783, 1776568103, -24.01702117919922, 68.5158462524414, 72.89921569824219, 2.422395, 8.087906, 3.3913746
784, 1776584770, -23.141273498535156, 67.71796417236328, 74.14424896240234, 0.83154577, 7.834993, 3.2074041
785, 1776601437, -22.432851791381836, 66.55780029296875, 75.4541015625, 2.697096, 8.185706, 4.2070637
786, 1776618104, -21.50040054321289, 65.20478820800781, 76.60977935791016, 3.793873, 7.296836, 4.463731
787, 1776634771, -20.20304298400879, 63.66393280029297, 77.60385131835938, 3.8379633, 5.9959254, 4.198902
788, 1776651438, -18.751529693603516, 61.86556625366211, 78.47464752197266, 3.370467, 5.342923, 3.6736946
789, 1776668105, -17.641965866088867, 59.7696533203125, 79.15884399414062, 2.2130282, 5.135489, 3.6339512
790, 1776684772, -16.608919143676758, 57.244808197021484, 79.73291778564453, 2.9263704, 4.906098, 4.23133
791, 1776701439, -15.399911880493164, 54.220916748046875, 80.19246673583984, 3.5958242, 4.0522566, 4.827937
792, 1776718106, -14.16623592376709, 50.82468795776367, 80.53484344482422, 3.1781397, 2.635882, 4.6284122
793, 1776734773, -13.304144859313965, 47.172149658203125, 80.74639892578125, 1.8728468, 2.1002808, 4.5299196
794, 1776751440, -12.7688570022583, 43.24859619140625, 80.89189910888672, 1.6603175, 1.7530999, 4.882081
795, 1776768107, -12.20604419708252, 39.09676742553711, 80.91231536865234, 2.5348542, 0.77634674, 5.3212576
796, 1776784774, -11.437088966369629, 34.858642578125, 80.77657318115234, 2.9064617, -0.46072546, 5.171793
797, 1776801441, -10.586099624633789, 30.602230072021484, 80.56285858154297, 1.8841232, -1.2143229, 4.1947985
798, 1776818108, -9.976997375488281, 26.279069900512695, 80.32825469970703, 0.7664628, -1.463057, 3.5330286
799, 1776834775, -9.532217979431152, 21.808969497680664, 80.0108871459961, 0.86708397, -2.2587585, 3.2895231
800, 1776851442, -9.218924522399902, 17.24161148071289, 79.59069061279297, 0.95286816, -3.1784446, 2.9141426
801, 1776868109, -8.826743125915527, 12.55678939819336, 79.16443634033203, 0.46392003, -3.426727, 3.0177326
802, 1776884776, -8.266674995422363, 7.75074577331543, 78.69802856445312, 0.40576342, -3.7715273, 2.437849
803, 1776901443, -7.576347351074219, 2.913856267929077, 78.15748596191406, 0.31239554, -4.2395244, 1.1961098
804, 1776918110, -6.929805278778076, -2.021061420440674, 77.57259368896484, -0.7263427, -4.41124, -0.020453453
805, 1776934777, -6.6600518226623535, -7.010594844818115, 76.97242736816406, -1.9188391, -3.807363, -1.2807312
806, 1776951444, -6.641746520996094, -12.049156188964844, 76.45036315917969, -1.9277706, -3.758006, -0.8064356
807, 1776968111, -6.498327732086182, -17.017520904541016, 75.98284912109375, -0.5463271, -3.5547554, -1.5111094
808, 1776984778, -6.168448448181152, -21.813438415527344, 75.44589233398438, -0.4981535, -2.5881047, -2.4694657
809, 1777001445, -5.609650611877441, -26.499950408935547, 74.8121109008789, -0.89453214, -2.1634188, -2.3414116
810, 1777018112, -4.765701770782471, -31.1895751953125, 74.10613250732422, -0.6611274, -2.1521182, -2.5720572
811, 1777034779, -3.825124502182007, -35.703590393066406, 73.28255462646484, -0.14596368, -1.0043592, -2.6278648
812, 1777051446, -2.9014601707458496, -40.067665100097656, 72.34028625488281, -0.1257114, -0.58090377, -2.302599
813, 1777068113, -1.8322503566741943, -44.340858459472656, 71.18698120117188, 0.04837748, -0.7071198, -2.308116
814, 1777084780, -0.4055034816265106, -48.61713790893555, 69.73828887939453, -0.007395038, -0.81793356, -2.5848246
815, 1777101447, 1.4259322881698608, -52.89414596557617, 67.90119171142578, 0.2459074, -1.5032587, -2.4835258
816, 1777118114, 3.9330782890319824, -57.14844512939453, 65.59911346435547, 1.0935365, -2.2289991, -2.4249992
817, 1777134781, 7.547828674316406, -61.33229064941406, 62.5289421081543, 1.4598345, -1.5427758, -2.9675188
818, 1777151448, 12.262040138244629, -65.28864288330078, 58.34575271606445, 1.0761045, 0.26613855, -3.0924
819, 1777168115, 18.220558166503906, -69.10509490966797, 52.50007247924805, -0.5944594, 0.35187924, -2.994586
820, 1777184782, 26.458587646484375, -72.75371551513672, 44.16011047363281, -0.67032206, -0.48681277, -3.4950514
821, 1777201449, 39.010833740234375, -75.9178695678711, 31.743471145629883, 0.77694076, -1.4085631, -4.4591546
822, 1777218116, 57.46577835083008, -78.04086303710938, 13.95305347442627, 1.717527, -0.78734356, -5.0764623
823, 1777234783, 80.14056396484375, -78.5916519165039, -7.897120952606201, 0.97037077, 0.6338474, -4.945257
824, 1777251450, 101.05863189697266, -77.44574737548828, -28.340404510498047, -0.49602106, 2.2445564, -4.540659
825, 1777268117, 116.73751068115234, -75.05718994140625, -43.89979553222656, -1.020891, 1.917591, -4.9092903
826, 1777284784, 127.72540283203125, -71.91928100585938, -54.64948272705078, 0.5432928, 1.5530516, -5.5611453
827, 1777301451, 135.39437866210938, -68.45103454589844, -61.75031280517578, 1.6481545, 2.5267634, -5.0660157
828, 1777318118, 140.84544372558594, -64.8457260131836, -66.53117370605469, 1.4416047, 3.3635142, -4.204552
829, 1777334785, 144.768310546875, -61.11016845703125, -69.98149871826172, 0.4164501, 3.9234364, -3.6604495
830, 1777351452, 147.70936584472656, -57.27971649169922, -72.54527282714844, 0.18775272, 4.20437, -3.3621278
831, 1777368119, 149.91720581054688, -53.484893798828125, -74.40894317626953, 0.8258052, 4.2981944, -3.0190125
832, 1777384786, 151.69317626953125, -49.86338424682617, -75.82594299316406, 1.4715841, 4.2602367, -2.8302712
833, 1777401453, 153.33555603027344, -46.389198303222656, -76.92875671386719, 1.5292466, 4.794375, -2.4063692
834, 1777418120, 154.97305297851562, -43.14678192138672, -77.78352355957031, 0.9137962, 4.9637346, -1.3500471
835, 1777434787, 156.63604736328125, -40.26033020019531, -78.43025207519531, 1.6298105, 5.6698494, 0.34728432
836, 1777451454, 157.8119659423828, -38.041099548339844, -78.70155334472656, 1.7512023, 6.8311005, 3.4766388
837, 1777468121, 157.97760009765625, -36.5366096496582, -78.72499084472656, -0.6424606, 7.405239, 5.1121254
838, 1777484788, 157.65330505371094, -35.88703536987305, -78.596435546875, 0.062953256, 7.213442, 5.4997454
839, 1777501455, 157.2470703125, -36.30162048339844, -78.24888610839844, 2.5909922, 7.285436, 6.002738
840, 1777518122, 156.69635009765625, -37.70948028564453, -77.6578140258789, 1.8084027, 7.025024, 4.991639
841, 1777534789, 156.10809326171875, -39.81066131591797, -76.98046875, 0.41270238, 6.4559493, 2.587823
842, 1777551456, 155.1021270751953, -42.32451248168945, -76.08570861816406, 1.1495714, 5.843394, 0.23743534
843, 1777568123, 153.78094482421875, -45.124961853027344, -74.98741912841797, 1.7357348, 5.678828, -0.46365452
844, 1777584790, 152.25762939453125, -48.17784118652344, -73.77020263671875, 1.0434101, 5.2020245, -0.6617136
845, 1777601457, 150.5789337158203, -51.41672897338867, -72.50391387939453, 0.21843639, 4.634025, -0.68860245
846, 1777618124, 148.7407989501953, -54.82555389404297, -71.13026428222656, 0.58334905, 4.177437, -1.2441072
847, 1777634791, 146.72573852539062, -58.35526657104492, -69.49356842041016, 1.1344668, 3.6101663, -2.4749022
848, 1777651458, 144.3767852783203, -61.967689514160156, -67.384033203125, 1.5658181, 3.7439578, -2.7511153
849, 1777668125, 141.17262268066406, -65.65872192382812, -64.41520690917969, 1.4538803, 3.9142036, -2.3743443
850, 1777684792, 136.8242645263672, -69.30730438232422, -60.403160095214844, 0.39760357, 3.539309, -2.698254
851, 1777701459, 130.68247985839844, -72.84098815917969, -54.71764373779297, 0.28823906, 3.2977273, -2.9042573
852, 1777718126, 121.21533966064453, -76.11181640625, -45.94283676147461, 0.57843745, 2.5671787, -3.8865652
853, 1777734793, 106.7619400024414, -78.87129211425781, -32.21992874145508, 1.0753568, 1.8067739, -4.6913652
854, 1777751460, 84.89208221435547, -80.5404052734375, -10.994207382202148, 1.6105374, 1.6608845, -4.5717416
855, 1777768127, 58.854122161865234, -80.49103546142578, 14.612152099609375, 1.2554293, 1.1699998, -4.700514
856, 1777784794, 37.24716567993164, -78.74026489257812, 35.993587493896484, 0.9032307, 0.54944503, -4.9301124
857, 1777801461, 22.964004516601562, -75.86904907226562, 50.29731369018555, 0.7028907, 0.22106068, -5.0939875
858, 1777818128, 13.957499504089355, -72.36067962646484, 59.42380905151367, 0.54064155, 0.4481122, -5.0699368
859, 1777834795, 8.100174903869629, -68.47565460205078, 65.27044677734375, 0.23378147, 0.6621856, -5.0307517
860, 1777851462, 3.923701763153076, -64.39082336425781, 69.2375259399414, 0.0107463915, 0.57068413, -5.087947
861, 1777868129, 0.7093666791915894, -60.13957214355469, 72.12208557128906, -0.17413704, 0.019961495, -5.007781
862, 1777884796, -1.7657102346420288, -55.72837829589844, 74.3646011352539, 0.2575276, -0.85723174, -4.7232428
863, 1777901463, -3.6245744228363037, -51.180137634277344, 76.15985870361328, 0.5364004, -1.149423, -4.6412463
864, 1777918130, -5.010105609893799, -46.523292541503906, 77.58859252929688, 0.24439499, -1.3378524, -4.514374
865, 1777934797, -6.182191371917725, -41.759437561035156, 78.73485565185547, -0.16513562, -1.5187247, -4.4393425
866, 1777951464, -7.22361946105957, -36.97659683227539, 79.70028686523438, -0.20817785, -2.6672618, -3.935143
867, 1777968131, -8.042574882507324, -32.305397033691406, 80.52424621582031, 0.32824174, -4.6899323, -3.3623075
868, 1777984798, -8.583486557006836, -27.66189193725586, 81.13330078125, 1.3989093, -4.6187086, -2.8925214
869, 1778001465, -9.35468578338623, -22.91570472717285, 81.38157653808594, 0.99621266, -2.0968618, -3.2610207
870, 1778018132, -10.59134292602539, -18.05971336364746, 81.45994567871094, -0.9028168, -0.9811886, -2.5354233
871, 1778034799, -11.870328903198242, -13.365775108337402, 81.73133850097656, -1.1139169, -4.027047, 0.2224884
872, 1778051466, -12.251632690429688, -8.765268325805664, 82.23617553710938, 1.0121571, -6.1695166, 0.8195009
873, 1778068133, -11.625744819641113, -4.161341190338135, 82.74280548095703, 2.7841945, -6.1940436, 0.5001774
874, 1778084800, -10.974507331848145, 0.36967843770980835, 83.1300277709961, 0.42232287, -4.1055727, 0.7139845
875, 1778101467, -10.914636611938477, 4.819668769836426, 83.61090087890625, -2.1662652, -2.026742, 0.78619385
876, 1778118134, -11.342750549316406, 9.139398574829102, 84.33257293701172, -0.987073, -2.552828, 1.8672171
877, 1778134801, -11.777199745178223, 13.348404884338379, 85.109375, 1.1103371, -3.3385854, 2.6726112
878, 1778151468, -11.893980026245117, 17.44465446472168, 85.75816345214844, 2.1654205, -2.9901245, 3.3896742
879, 1778168135, -11.907544136047363, 21.561077117919922, 86.29238891601562, 2.0343783, -1.7727814, 3.274271
880, 1778184802, -11.885936737060547, 25.713815689086914, 86.73710632324219, 1.7170926, -0.7264524, 3.828618
881, 1778201469, -11.74026107788086, 29.863147735595703, 87.10442352294922, 1.5687159, 0.13661246, 3.867363
882, 1778218136, -11.732640266418457, 34.041847229003906, 87.51705932617188, 0.89782083, 0.5195371, 3.5729046
883, 1778234803, -12.217142105102539, 38.20957946777344, 88.06403350830078, -0.0072261738, 0.2185152, 3.2671938
884, 1778251470, -13.454705238342285, 42.18342590332031, 88.50306701660156, 0.33629715, 0.53170335, 4.2045975
885, 1778268137, -14.924098014831543, 45.903141021728516, 88.71989440917969, 1.7925668, 2.0093184, 5.692631
886, 1778284804, -16.085613250732422, 49.255733489990234, 88.77356719970703, 2.955228, 3.3155038, 7.1572647
887, 1778301471, -16.864078521728516, 52.2568359375, 88.8393325805664, 2.7507944, 4.0707316, 6.4356174
888, 1778318138, -17.60555076599121, 54.68129348754883, 88.86717224121094, 1.6340978, 5.1478148, 5.4643803
889, 1778334805, -18.58897590637207, 56.506500244140625, 88.92692565917969, 1.1681714, 7.008387, 5.518714
890, 1778351472, -19.580839157104492, 57.6427001953125, 89.03203582763672, 2.0505342, 9.474697, 6.015546
891, 1778368139, -20.03322982788086, 58.180419921875, 89.17068481445312, 3.0603945, 11.287322, 5.903596
892, 1778384806, -19.85782814025879, 58.17595291137695, 89.20500946044922, 3.845526, 11.227578, 5.8342104
893, 1778401473, -19.35061264038086, 57.63430404663086, 89.12019348144531, 3.238643, 10.795511, 6.2419167
894, 1778418140, -18.734968185424805, 56.49903869628906, 89.02119445800781, 2.5380833, 9.568441, 5.9842577
895, 1778434807, -18.201059341430664, 54.81748580932617, 88.93115234375, 2.1507206, 8.290777, 5.7510443
896, 1778451474, -17.608530044555664, 52.669227600097656, 88.83820343017578, 2.743175, 7.2041473, 5.8603563
897, 1778468141, -16.8978328704834, 50.14285659790039, 88.67717742919922, 2.9100742, 5.5671186, 5.8418064
898, 1778484808, -16.046897888183594, 47.275489807128906, 88.48484802246094, 2.5740993, 4.0420423, 5.5812435
899, 1778501475, -15.209134101867676, 44.02894973754883, 88.25257873535156, 2.3422053, 2.5553796, 5.557616
900, 1778518142, -14.448753356933594, 40.418827056884766, 87.97008514404297, 2.2767227, 1.0912898, 5.4181137
901, 1778534809, -13.816646575927734, 36.467315673828125, 87.68120574951172, 1.8089488, -0.1855989, 5.083377
902, 1778551476, -13.421339988708496, 32.27678680419922, 87.36653900146484, 1.7092031, -1.0212984, 4.6227455
903, 1778568143, -13.166897773742676, 27.920589447021484, 87.0214614868164, 1.879201, -1.5869205, 4.4911594
904, 1778584810, -12.876660346984863, 23.45914649963379, 86.62223815917969, 2.193072, -1.9706042, 4.1955976
905, 1778601477, -12.698710441589355, 18.91050148010254, 86.1631851196289, 1.4831402, -1.9562538, 3.4684486
906, 1778618144, -12.62878704071045, 14.331995964050293, 85.64704132080078, 0.7857756, -1.2900366, 3.0137758
907, 1778634811, -12.56513500213623, 9.618401527404785, 85.04776763916016, 0.70834315, -1.248493, 3.6075811
908, 1778651478, -12.095403671264648, 4.824398994445801, 84.31217956542969, 1.5050352, -1.8315823, 3.725047
909, 1778668145, -11.095026016235352, 0.01895206980407238, 83.4654769897461, 1.548623, -2.4071465, 3.135952
910, 1778684812, -9.881180763244629, -4.81339168548584, 82.60720825195312, 0.42608437, -2.731624, 2.1740866
911, 1778701479, -8.741500854492188, -9.76159954071045, 81.72319793701172, -0.7198872, -3.8537586, 1.2919588
912, 1778718146, -7.781280517578125, -14.758435249328613, 80.77888488769531, -0.5852188, -4.296955, 0.47743607
913, 1778734813, -6.966150760650635, -19.748287200927734, 79.78330993652344, -0.26851583, -3.89344, -0.0086193085
914, 1778751480, -6.170968055725098, -24.66609764099121, 78.72754669189453, -0.13354765, -3.0241067, -0.68078136
915, 1778768147, -5.201058387756348, -29.529191970825195, 77.55178833007812, 0.122449, -3.3177218, -0.9469843
916, 1778784814, -3.8450844287872314, -34.39259338378906, 76.1753158569336, 0.49541792, -4.1244946, -1.683981
917, 1778801481, -2.1281931400299072, -39.179996490478516, 74.51850128173828, 0.45252767, -3.8610384, -2.5859394
918, 1778818148, -0.1794997751712799, -43.89469528198242, 72.58037567138672, -0.21907018, -3.4154732, -3.1168833
919, 1778834815, 1.9642542600631714, -48.57941436767578, 70.36585235595703, -0.5931874, -3.0803862, -3.5820484
920, 1778851482, 4.40564489364624, -53.19120407104492, 67.79306030273438, -0.41247952, -2.4722373, -4.3052697
921, 1778868149, 7.296689510345459, -57.718502044677734, 64.657470703125, -0.38093224, -2.6006525, -4.6625576
922, 1778884816, 11.039761543273926, -62.172889709472656, 60.75469207763672, -0.20418993, -2.9166715, -5.0979743
923, 1778901483, 16.13979721069336, -66.43707275390625, 55.58330154418945, 0.08579925, -2.0132027, -5.5292068
924, 1778918150, 23.15769386291504, -70.38821411132812, 48.413936614990234, 0.10410932, -0.9517083, -5.4460683
925, 1778934817, 33.188987731933594, -73.88334655761719, 38.098392486572266, -0.16989689, -0.5585689, -5.5417595
926, 1778951484, 48.016544342041016, -76.6131362915039, 22.963171005249023, 0.14941126, -0.45056546, -6.091667
927, 1778968151, 68.1202621459961, -77.98741149902344, 2.5848278999328613, 0.3906079, -0.1284315, -6.4809523
928, 1778984818, 90.16300964355469, -77.64170837402344, -19.547454833984375, 0.357233, 0.11843074, -6.659565
929, 1779001485, 108.50096130371094, -75.69549560546875, -37.807132720947266, 0.89139026, 0.94516474, -5.7366295
930, 1779018152, 121.34516906738281, -72.73477172851562, -50.48005676269531, 0.77757275, 1.9464698, -5.1312814
931, 1779034819, 130.16053771972656, -69.1351089477539, -59.24378967285156, -0.25513422, 2.1534343, -5.8942494
932, 1779051486, 136.3929901123047, -65.15827941894531, -65.38911437988281, 0.21569638, 2.878791, -6.573077
933, 1779068153, 140.5340118408203, -61.08286666870117, -69.4786376953125, 1.1360399, 3.4761722, -5.387445
934, 1779084820, 143.5658416748047, -56.993499755859375, -72.41698455810547, 0.81340784, 3.80527, -4.777482
935, 1779101487, 146.01341247558594, -52.83574676513672, -74.57843017578125, 0.61938244, 4.3636603, -5.031197
936, 1779118154, 148.0032501220703, -48.61839294433594, -76.146728515625, 0.3266633, 5.0452847, -5.477598
937, 1779134821, 149.63047790527344, -44.47523498535156, -77.27529907226562, 0.59155035, 5.5344443, -4.607762
938, 1779151488, 150.9394989013672, -40.55155563354492, -78.0863265991211, 0.5502945, 6.2052903, -2.7420058
939, 1779168155, 151.65606689453125, -37.01237487792969, -78.59922790527344, -0.06581049, 7.2218404, -0.59377
940, 1779184822, 151.88612365722656, -33.88172149658203, -78.92652893066406, -0.4425329, 7.9484606, 0.55032635
941, 1779201489, 151.97593688964844, -31.284643173217773, -79.10001373291016, 0.5274912, 8.300558, 1.571598
942, 1779218156, 152.22181701660156, -29.563505172729492, -79.0836410522461, 1.9730521, 7.966078, 3.4861374
943, 1779234823, 152.3195037841797, -28.916412353515625, -78.83393859863281, 1.7516408, 8.038251, 6.2021713
944, 1779251490, 151.66494750976562, -29.356719970703125, -78.35545349121094, -0.20285377, 8.611631, 8.161236
945, 1779268157, 150.30311584472656, -30.866174697875977, -77.72349548339844, -1.0622339, 8.483517, 6.9996567
946, 1779284824, 149.0164031982422, -33.27032470703125, -77.02122497558594, 0.40687874, 7.7270646, 3.5122824
947, 1779301491, 148.25653076171875, -36.40562057495117, -76.22726440429688, 1.2727791, 6.65906, 0.7647629
948, 1779318158, 147.6226043701172, -40.05751419067383, -75.23714447021484, 0.68248224, 6.286155, -0.13001156
949, 1779334825, 146.57931518554688, -43.996158599853516, -74.03893280029297, -0.65332484, 5.991141, -1.0294924
950, 1779351492, 145.07276916503906, -48.070674896240234, -72.64134216308594, -1.2949245, 5.0974836, -2.4322376
951, 1779368159, 143.24429321289062, -52.27131652832031, -71.00296020507812, -0.5130057, 4.082719, -3.548849
952, 1779384826, 141.24734497070312, -56.60872268676758, -69.04106140136719, 0.45611745, 3.276314, -3.9613223
953, 1779401493, 138.78665161132812, -61.038936614990234, -66.38825988769531, 0.70345086, 2.8229926, -3.612537
954, 1779418160, 135.5906219482422, -65.46149444580078, -62.74031448364258, 0.18763444, 2.4703097, -3.7021704
955, 1779434827, 130.744384765625, -69.76400756835938, -57.36082458496094, 0.22425234, 2.1656258, -3.7042618
956, 1779451494, 122.96160125732422, -73.76750183105469, -49.171085357666016, 0.30299315, 1.9098223, -3.3150616
957, 1779468161, 110.38627624511719, -77.17928314208984, -36.4279899597168, 0.10239598, 1.7369962, -3.1177592
958, 1779484828, 90.71859741210938, -79.56245422363281, -16.694915771484375, 0.10997709, 1.0774732, -3.4854589
959, 1779501495, 64.43793487548828, -80.16300964355469, 9.659284591674805, 0.89238864, 0.7849877, -3.7261295
960, 1779518162, 40.23439407348633, -78.60089874267578, 33.81766128540039, 1.1195656, 0.9288291, -3.551467
961, 1779534829, 24.12590789794922, -75.55503845214844, 49.6748046875, 0.92175424, 0.98829687, -3.595234
962, 1779551496, 14.168607711791992, -71.81866455078125, 59.23286819458008, 0.6323655, 0.23922502, -4.359035
963, 1779568163, 7.6635823249816895, -67.70315551757812, 65.3784408569336, 0.9731897, -0.5396578, -5.104027
964, 1779584830, 3.153233528137207, -63.25617980957031, 69.68145751953125, 1.6257421, -1.0889944, -5.0733557
965, 1779601497, 0.11126783490180969, -58.565223693847656, 72.76872253417969, 1.9344367, -1.2255077, -4.2989597
966, 1779618164, -1.8299452066421509, -53.691471099853516, 75.055908203125, 1.7015734, -0.5163195, -4.099888
967, 1779634831, -3.0648233890533447, -48.70233154296875, 76.762451171875, 1.6364092, -0.88881725, -4.0593376
968, 1779651498, -4.12833833694458, -43.660648345947266, 78.15545654296875, 0.56505704, -2.398193, -4.1977954
969, 1779668165, -5.027075290679932, -38.64588165283203, 79.4826889038086, 0.05978804, -4.6328983, -3.9504294
970, 1779684832, -5.567419052124023, -33.73483657836914, 80.69286346435547, 1.1439537, -5.4731665, -2.6634464
971, 1779701499, -5.621284008026123, -28.961395263671875, 81.6178207397461, 1.376913, -4.3777933, -2.1866484
972, 1779718166, -5.867018222808838, -24.257394790649414, 82.35933685302734, 0.34466055, -3.125511, -2.4588518
973, 1779734833, -6.749521255493164, -19.642189025878906, 83.0884017944336, -0.78766763, -3.412752, -1.6802197
974, 1779751500, -7.976871490478516, -15.097795486450195, 83.86090850830078, -0.16686627, -3.9220207, -0.6668253
975, 1779768167, -9.099087715148926, -10.697285652160645, 84.57643127441406, 1.1778314, -4.5837674, 0.63605785
976, 1779784834, -9.812782287597656, -6.308950424194336, 85.2190933227539, 1.331531, -3.9395657, 0.9160061
977, 1779801501, -10.369959831237793, -1.8263254165649414, 85.773681640625, 0.8168452, -2.6594012, 0.86449814
978, 1779818168, -11.082666397094727, 2.754798412322998, 86.19361114501953, 0.32085654, -0.935716, 0.82036114
979, 1779834835, -11.9259033203125, 7.425445556640625, 86.54581451416016, -0.097358726, -0.18380097, 1.024169
980, 1779851502, -12.864935874938965, 12.334334373474121, 86.905029296875, 0.024365399, -0.32249248, 1.0326242
981, 1779868169, -13.892915725708008, 17.488054275512695, 87.2385482788086, 0.13679619, -1.0633088, 1.4616966
982, 1779884836, -14.884051322937012, 22.872726440429688, 87.48796844482422, 0.7424321, -1.8205206, 2.1684618
983, 1779901503, -15.6954927444458, 28.437522888183594, 87.56761932373047, 1.5572708, -2.129026, 3.1412573
984, 1779918170, -16.160242080688477, 34.01611328125, 87.51667022705078, 1.5259849, -2.2551837, 4.7690525
985, 1779934837, -16.432952880859375, 39.49646759033203, 87.43740844726562, 1.0652984, -3.0196369, 5.624566
986, 1779951504, -16.970073699951172, 44.62748336791992, 87.3409652709961, 0.16191469, -3.3172069, 5.818881
987, 1779968171, -17.86181640625, 49.14984893798828, 87.21731567382812, 0.17624454, -1.7573984, 5.677108
988, 1779984838, -18.89517593383789, 52.90945816040039, 87.11246490478516, 0.6027286, 0.6726904, 5.9940367
989, 1780001505, -19.61815071105957, 55.91677474975586, 87.19590759277344, 1.2257761, 3.1264846, 5.040777
990, 1780018172, -20.098716735839844, 58.213661193847656, 87.43245697021484, 1.352675, 3.9579947, 3.8729172
991, 1780034839, -20.463329315185547, 59.94053268432617, 87.8171615600586, 1.332314, 4.807528, 3.2319813
992, 1780051506, -21.17108154296875, 61.419002532958984, 88.28726196289062, 1.3533139, 5.289611, 3.2644205
993, 1780068173, -22.254505157470703, 62.85504913330078, 88.63985443115234, 1.9625852, 7.2263517, 3.940013
994, 1780084840, -22.881750106811523, 64.14151000976562, 88.77896881103516, 3.285657, 9.260404, 4.9654465
995, 1780101507, -22.918014526367188, 65.15386199951172, 88.68241119384766, 4.06968, 8.87953, 4.912369
996, 1780118174, -22.868228912353516, 65.68914031982422, 88.41180419921875, 2.7070656, 7.7168813, 4.15592
997, 1780134841, -23.09827423095703, 65.58434295654297, 88.22945404052734, 1.6791869, 6.9561186, 3.606081
998, 1780151508, -23.62125015258789, 64.88233947753906, 88.25276184082031, 1.9996202, 7.2616186, 3.4782982
999, 1780168175, -23.961397171020508, 63.70520782470703, 88.369140625, 2.9148648, 7.582788, 3.3703365
1000, 1780184842, -23.98697280883789, 62.23772430419922, 88.43448638916016, 3.2416205, 7.4103394, 3.7606163
1001, 1780201509, -23.71734046936035, 60.58953094482422, 88.38939666748047, 2.5426714, 6.871819, 3.8231592
1002, 1780218176, -23.303436279296875, 58.717533111572266, 88.22756958007812, 2.1554942, 6.621585, 4.2898207
1003, 1780234843, -22.46813201904297, 56.41541290283203, 88.03904724121094, 2.520773, 6.063311, 5.2488823
1004, 1780251510, -21.242618560791016, 53.75421142578125, 87.86478424072266, 3.1337526, 4.9676685, 5.577585
1005, 1780268177, -20.05511474609375, 50.84906005859375, 87.625732421875, 2.3769805, 3.8811357, 4.745282
1006, 1780284844, -19.093647003173828, 47.73534393310547, 87.34601593017578, 1.6868905, 2.9134495, 4.464781
1007, 1780301511, -18.308372497558594, 44.35645294189453, 87.03663635253906, 1.6046528, 2.2912796, 4.6715555
1008, 1780318178, -17.496456146240234, 40.785308837890625, 86.65779876708984, 1.8421276, 1.6197885, 4.869257
1009, 1780334845, -16.52775764465332, 37.05864715576172, 86.17333221435547, 2.3643665, 0.45261285, 4.612194
1010, 1780351512, -15.450736999511719, 33.22690963745117, 85.62968444824219, 2.2491245, -0.90471184, 4.1926413
1011, 1780368179, -14.305196762084961, 29.248140335083008, 85.09117126464844, 1.4909532, -2.128654, 3.2845592
1012, 1780384846, -13.361982345581055, 25.04849624633789, 84.53797149658203, 0.7696758, -3.1077175, 2.8615599
1013, 1780401513, -12.643596649169922, 20.581077575683594, 83.98433685302734, 0.5098864, -3.8364036, 2.2417269
1014, 1780418180, -12.094226837158203, 15.887506484985352, 83.3987808227539, 0.513364, -4.0722, 2.0283766
1015, 1780434847, -11.623469352722168, 11.077131271362305, 82.7692642211914, 0.583074, -4.138083, 1.3055563
1016, 1780451514, -11.302873611450195, 6.291644096374512, 82.03527069091797, 0.452131, -3.3970551, 0.94273186
1017, 1780468181, -10.809858322143555, 1.4893821477890015, 81.26937866210938, 0.679162, -3.2709732, 1.421998
1018, 1780484848, -9.75747013092041, -3.3259658813476562, 80.44309997558594, 1.2272394, -3.587602, 1.1513567
1019, 1780501515, -8.235969543457031, -8.162407875061035, 79.55958557128906, 0.89065415, -3.4889884, 0.7309036
1020, 1780518182, -6.6904120445251465, -12.931662559509277, 78.61192321777344, -0.053445246, -2.7244968, -0.076171875
1021, 1780534849, -5.3477373123168945, -17.646312713623047, 77.57014465332031, -0.5838803, -2.005863, -0.69255733
1022, 1780551516, -4.224785327911377, -22.27987289428711, 76.36571502685547, -0.6718984, -1.2648832, -1.0608215
1023, 1780568183, -3.3086509704589844, -26.775251388549805, 75.07041931152344, -0.8627988, -0.71049905, -1.101346
1024, 1780584850, -2.411341428756714, -31.2153377532959, 73.72573852539062, -0.8184396, -1.1263003, -0.9935036
1025, 1780601517, -1.2902607917785645, -35.582191467285156, 72.28243255615234, -0.3859518, -1.5729002, -1.2372675
1026, 1780618184, 0.2776424288749695, -39.85738754272461, 70.613525390625, -0.10709903, -2.0150385, -1.8460002
1027, 1780634851, 2.129258632659912, -44.02378845214844, 68.6564712524414, -0.6134331, -1.8058257, -2.3005266
1028, 1780651518, 4.123128890991211, -48.18983840942383, 66.41336059570312, -1.2395246, -2.2177272, -2.4714422
1029, 1780668185, 6.52705192565918, -52.38785171508789, 63.75909423828125, -0.9279978, -2.95959, -3.010241
1030, 1780684852, 9.809189796447754, -56.514312744140625, 60.485408782958984, -0.032890826, -2.9946387, -3.5973425
1031, 1780701519, 14.194069862365723, -60.4625358581543, 56.33978271484375, 0.11334822, -1.8555092, -4.013686
1032, 1780718186, 19.60378646850586, -64.25601959228516, 51.045623779296875, -0.9217386, -1.060927, -4.2115664
1033, 1780734853, 26.386886596679688, -67.83600616455078, 44.06375503540039, -1.0536951, -0.9838933, -4.5599833
1034, 1780751520, 35.531044006347656, -71.00048065185547, 34.6551513671875, -0.19161576, -0.83033866, -4.8956747
1035, 1780768187, 47.795536041259766, -73.41221618652344, 22.240779876708984, 0.56706923, -0.27981967, -4.9506507
1036, 1780784854, 63.16733169555664, -74.82527923583984, 6.849301338195801, 0.42236227, 0.5284034, -5.1076994
1037, 1780801521, 79.9421157836914, -75.013916015625, -9.915643692016602, 0.19927198, 1.3064827, -5.0841603
1038, 1780818188, 95.46742248535156, -74.06597900390625, -25.466535568237305, 0.06334111, 2.2031791, -4.7782183
1039, 1780834855, 108.13945007324219, -72.1960220336914, -38.221923828125, 0.31879753, 2.1436446, -4.5991306
1040, 1780851522, 118.40716552734375, -69.73021697998047, -48.240760803222656, 0.728875, 1.816192, -4.893233
1041, 1780868189, 126.5673828125, -66.87671661376953, -55.76539611816406, 1.3218642, 2.5812125, -4.8962026
1042, 1780884856, 132.69021606445312, -63.86138153076172, -61.30369567871094, 0.95235777, 3.904867, -3.9095554
1043, 1780901523, 137.0294647216797, -60.68449020385742, -65.59591674804688, -0.3090865, 4.6546564, -2.9917793
1044, 1780918190, 140.25184631347656, -57.409080505371094, -69.14425659179688, -0.68741196, 4.0544143, -3.327653
1045, 1780934857, 143.1209716796875, -54.118106842041016, -72.13025665283203, 1.0415754, 3.0294993, -4.1691775
1046, 1780951524, 146.02633666992188, -50.83772277832031, -74.59613037109375, 2.4872522, 2.8240044, -4.427696
1047, 1780968191, 148.704833984375, -47.59880447387695, -76.55754089355469, 1.9322047, 4.018243, -3.3260336
1048, 1780984858, 150.70848083496094, -44.22395324707031, -78.27410888671875, -0.83849543, 4.431692, -3.2765632
1049, 1781001525, 152.20468139648438, -40.71466827392578, -79.82001495361328, -0.92345506, 3.7034762, -4.098495
1050, 1781018192, 153.79867553710938, -37.235172271728516, -81.20995330810547, 2.017859, 3.2977614, -4.634405
1051, 1781034859, 156.03573608398438, -33.92274856567383, -82.32991790771484, 3.913437, 5.599442, -0.8521948
1052, 1781051526, 157.90997314453125, -31.379884719848633, -82.93543243408203, 2.130066, 7.2172494, 6.107295
1053, 1781068193, 158.16416931152344, -29.844440460205078, -83.25282287597656, -1.1092654, 8.633334, 11.171698
1054, 1781084860, 157.154541015625, -29.643035888671875, -83.08262634277344, 1.455933, 9.094977, 11.390785
1055, 1781101527, 156.36709594726562, -30.82670021057129, -82.77112579345703, 2.5232797, 8.470072, 9.507275
1056, 1781118194, 155.9613037109375, -33.18197250366211, -82.20463562011719, 2.5739286, 7.6510158, 5.8759785
1057, 1781134861, 155.3555450439453, -36.08292770385742, -81.45948791503906, 0.6153103, 6.4911823, 2.1409807
1058, 1781151528, 154.305908203125, -39.182762145996094, -80.59584045410156, 0.017622055, 4.571714, -0.77120304
1059, 1781168195, 152.93849182128906, -42.33626174926758, -79.69746398925781, -0.22088125, 4.34083, -1.1364498
1060, 1781184862, 151.2330322265625, -45.61343002319336, -78.68734741210938, 0.071321726, 4.0426893, -1.6290636
1061, 1781201529, 149.65582275390625, -48.92325210571289, -77.68120574951172, -0.0132352635, 3.6682208, -2.2538953
1062, 1781218196, 148.47337341308594, -52.35066223144531, -76.57897186279297, 0.70178205, 2.8494487, -2.337648
1063, 1781234863, 147.5493621826172, -55.8182258605957, -75.305419921875, 1.0557518, 2.8426828, -2.435689
1064, 1781251530, 146.1229248046875, -59.32575988769531, -73.58612060546875, 0.008491257, 3.1899805, -2.0075521
1065, 1781268197, 143.90452575683594, -62.81953048706055, -71.42217254638672, -0.9727635, 3.0333962, -2.1917562
1066, 1781284864, 140.84652709960938, -66.25520324707031, -68.70596313476562, -0.56968325, 2.6726506, -2.7156372
1067, 1781301531, 137.17124938964844, -69.60823059082031, -65.24520111083984, 0.339676, 1.8250574, -3.4359999
1068, 1781318198, 132.5890655517578, -72.83616638183594, -60.48851776123047, 1.1041873, 1.1304233, -3.4091897
1069, 1781334865, 126.1102066040039, -75.88080596923828, -53.61165237426758, 1.0776931, 1.3134345, -2.8317304
1070, 1781351532, 115.86891174316406, -78.5399398803711, -43.11548614501953, 0.35329854, 2.006755, -2.065576
1071, 1781368199, 100.3182373046875, -80.5592041015625, -27.588890075683594, -0.43303502, 1.6040673, -1.8478875
1072, 1781384866, 79.2881851196289, -81.63116455078125, -6.674646854400635, 0.51406145, 1.3007275, -1.5893106
1073, 1781401533, 55.847408294677734, -81.36339569091797, 16.687843322753906, 1.2643422, 1.4404407, -1.4902716
1074, 1781418200, 36.64421463012695, -79.83109283447266, 35.93592834472656, 0.95365804, 1.3037595, -1.658494
1075, 1781434867, 23.53798484802246, -77.49486541748047, 49.20811462402344, 0.8479337, 1.2707729, -1.6062584
1076, 1781451534, 14.723024368286133, -74.66850280761719, 58.14323425292969, 0.79388785, 1.5481317, -1.5552902
1077, 1781468201, 8.61514949798584, -71.5677261352539, 64.25383758544922, 0.5315782, 1.7005386, -1.7421827
1078, 1781484868, 4.246903896331787, -68.32060241699219, 68.55691528320312, 0.61944157, 1.3414091, -1.8043499
1079, 1781501535, 1.0305228233337402, -64.97895050048828, 71.76517486572266, 0.9170446, 0.59849983, -2.1128907
1080, 1781518202, -1.1954017877578735, -61.592864990234375, 74.1640853881836, 1.321785, -0.19289358, -2.3280153
1081, 1781534869, -2.7479043006896973, -58.229549407958984, 76.04246520996094, 1.2765652, -0.6907524, -2.2037168
1082, 1781551536, -4.01322603225708, -54.85603713989258, 77.4706802368164, 1.447342, -0.30612034, -2.075305
1083, 1781568203, -5.235008716583252, -51.510162353515625, 78.5338134765625, 0.91829205, -0.14822675, -1.8314838
1084, 1781584870, -6.492075443267822, -48.26726150512695, 79.36885070800781, 0.34713864, -0.83869046, -1.5338383
1085, 1781601537, -7.573132038116455, -45.18087387084961, 80.16685485839844, 0.9073193, -1.9542451, -1.2947702
1086, 1781618204, -8.084800720214844, -42.21310806274414, 80.86864471435547, 2.194508, -2.3925164, -1.179306
1087, 1781634871, -8.132747650146484, -39.27130126953125, 81.3822250366211, 2.0391736, -1.6759511, -1.180356
1088, 1781651538, -8.222898483276367, -36.36796951293945, 81.72822570800781, 0.7409346, -0.30186525, -1.1088867
1089, 1781668205, -8.641728401184082, -33.551944732666016, 82.01287078857422, -0.10006608, 0.18340579, -0.9767313
1090, 1781684872, -9.251862525939941, -30.8122615814209, 82.29351043701172, 0.4247324, -0.21407764, -0.9051571
1091, 1781701539, -9.734293937683105, -28.155006408691406, 82.57920837402344, 1.1271274, -1.3586034, -0.7126179
1092, 1781718206, -9.792862892150879, -25.603240966796875, 82.89392852783203, 1.6351845, -2.0716338, -0.6632376
1093, 1781734873, -9.579559326171875, -23.11281394958496, 83.14309692382812, 1.6849952, -1.5539776, -0.54726696
