sep=,
DeviceTag:,FemurR,,,,,,,,,,,,,,,,,
FirmwareVersion:,1.6.0,,,,,,,,,,,,,,,,,
AppVersion:,2020.4,,,,,,,,,,,,,,,,,
SyncStatus:,Synced,,,,,,,,,,,,,,,,,
OutputRate:,60Hz,,,,,,,,,,,,,,,,,
FilterProfile:,General,,,,,,,,,,,,,,,,,
Measurement Mode:,Sensor fusion Mode - Complete (Euler),,,,,,,,,,,,,,,,,
StartTime:,2021-04-09 03:13:32.450 +0800,,,,,,,,,,,,,,,,,
© Xsens Technologies B. V. 2005-2021,,,,,,,,,,,,,,,,,,,

PacketCounter,SampleTimeFine,Euler_X,Euler_Y,Euler_Z,FreeAcc_X,FreeAcc_Y,FreeAcc_Z
1, 1763534509, -2.4393279552459717, 58.252655029296875, 156.02606201171875, -0.07970704, 0.048537795, -0.07056332
2, 1763551176, -2.446054220199585, 58.23381805419922, 156.01718139648438, -0.12266862, 0.08900767, -0.018362045
3, 1763567843, -2.452620506286621, 58.22789764404297, 155.99986267089844, -0.08551229, 0.108101144, -0.018234253
4, 1763584510, -2.4682624340057373, 58.228919982910156, 155.9803924560547, -0.07844001, 0.0520636, -0.08513832
5, 1763601177, -2.4892802238464355, 58.23265075683594, 155.96234130859375, -0.13923402, -0.008261262, -0.094285965
6, 1763617844, -2.5057694911956787, 58.22744369506836, 155.94354248046875, -0.23284137, 0.00930518, -0.030835152
7, 1763634511, -2.5186209678649902, 58.22398376464844, 155.9232177734375, -0.27883476, 0.056091525, 0.031933784
8, 1763651178, -2.5409111976623535, 58.22411346435547, 155.9050750732422, -0.20549576, 0.05035825, 0.03620529
9, 1763667845, -2.569577932357788, 58.2234001159668, 155.8906707763672, -0.12823807, 0.063734606, 0.027049065
10, 1763684512, -2.573899984359741, 58.21168899536133, 155.8882293701172, -0.16411194, 0.069325395, 0.07026291
11, 1763701179, -2.56305193901062, 58.195133209228516, 155.8902130126953, -0.15044786, 0.12279215, 0.029583931
12, 1763717846, -2.553548574447632, 58.18971633911133, 155.88299560546875, -0.12426753, 0.060366154, 0.033704758
13, 1763734513, -2.5461318492889404, 58.17744064331055, 155.87843322753906, -0.15319023, 9.79769E-4, -0.0046014786
14, 1763751180, -2.5740442276000977, 58.16878890991211, 155.85113525390625, -0.09556562, 0.01630812, -0.055667877
15, 1763767847, -2.610535144805908, 58.15861129760742, 155.82937622070312, -0.15918206, 0.08120444, -0.10698414
16, 1763784514, -2.624319314956665, 58.15396499633789, 155.82740783691406, -0.15201011, 0.13578089, -0.10331154
17, 1763801181, -2.6352245807647705, 58.152313232421875, 155.8123779296875, -0.20146555, 0.10767569, 0.0042743683
18, 1763817848, -2.6539299488067627, 58.14620590209961, 155.78091430664062, -0.22101852, 0.06425327, 0.036049843
19, 1763834515, -2.665226936340332, 58.13984298706055, 155.75416564941406, -0.13899407, 0.01891171, 0.062464714
20, 1763851182, -2.684239387512207, 58.130523681640625, 155.75059509277344, -0.04901491, 0.044035796, 0.025639534
21, 1763867849, -2.7083852291107178, 58.1214485168457, 155.74049377441406, -0.055185392, 0.12857476, -0.019115448
22, 1763884516, -2.7215967178344727, 58.11835861206055, 155.724365234375, -0.06682666, 0.12158814, -0.04798031
23, 1763901183, -2.718920946121216, 58.11842727661133, 155.70750427246094, -0.14184308, 0.023746965, -0.02991867
24, 1763917850, -2.709113836288452, 58.11058044433594, 155.6909942626953, -0.24753654, -0.016252521, 0.071894646
25, 1763934517, -2.6992759704589844, 58.092994689941406, 155.69503784179688, -0.2965472, 0.0706149, 0.10112858
26, 1763951184, -2.6934542655944824, 58.07717514038086, 155.69082641601562, -0.232668, 0.087193914, 0.08349037
27, 1763967851, -2.6809303760528564, 58.059574127197266, 155.67593383789062, -0.15151924, 0.079173766, 0.02498436
28, 1763984518, -2.6676552295684814, 58.04019546508789, 155.64791870117188, -0.11981607, 0.011694142, -0.062459946
29, 1764001185, -2.6656696796417236, 58.027565002441406, 155.6358642578125, -0.10559266, -0.04731786, -0.089941025
30, 1764017852, -2.6945011615753174, 58.01820755004883, 155.62399291992188, -0.12860526, 0.046802998, -0.02598095
31, 1764034519, -2.694772720336914, 58.00106430053711, 155.6204833984375, -0.18987581, 0.16569318, 0.04182625
32, 1764051186, -2.669517755508423, 57.98845672607422, 155.62091064453125, -0.23370206, 0.11519902, -0.013940811
33, 1764067853, -2.6307895183563232, 57.97966766357422, 155.66067504882812, -0.17261103, -0.0021441039, -0.02543354
34, 1764084520, -2.617044687271118, 57.97138977050781, 155.68832397460938, -0.085764855, -0.04579518, -0.022315979
35, 1764101187, -2.6267783641815186, 57.96015167236328, 155.74024963378906, -0.11409086, 0.026107486, 0.050971985
36, 1764117854, -2.6425940990448, 57.93113708496094, 155.7301025390625, -0.20686308, 0.09623144, 0.14230442
37, 1764134521, -2.6265385150909424, 57.91024398803711, 155.75320434570312, -0.17784132, 0.07968762, 0.012253761
38, 1764151188, -2.603647232055664, 57.89842224121094, 155.78233337402344, -0.14336765, -0.069575004, -0.097914696
39, 1764167855, -2.58937668800354, 57.88425064086914, 155.829345703125, -0.1885139, -0.07488801, -0.124240875
40, 1764184522, -2.6138551235198975, 57.85820388793945, 155.87600708007812, -0.19230816, -0.025788702, -0.014650345
41, 1764201189, -2.6412513256073, 57.835453033447266, 155.92137145996094, -0.15960419, 0.14799681, -0.018371582
42, 1764217856, -2.6355860233306885, 57.82419967651367, 155.9413604736328, -0.13525036, 0.03216603, -0.026129723
43, 1764234523, -2.6227385997772217, 57.81665802001953, 155.90150451660156, -0.16027166, -0.022845203, -0.033011436
44, 1764251190, -2.6195859909057617, 57.80988693237305, 155.9207000732422, -0.1667901, 0.0012208278, -0.006114006
45, 1764267857, -2.6519434452056885, 57.7880744934082, 155.83221435546875, -0.12556447, 0.06209771, -0.012108803
46, 1764284524, -2.6489803791046143, 57.773475646972656, 155.86111450195312, -0.102719106, 0.15973845, -0.048838615
47, 1764301191, -2.654356002807617, 57.76434326171875, 155.82077026367188, -0.13714713, 0.07646959, 0.007329941
48, 1764317858, -2.634169340133667, 57.75, 155.8229522705078, -0.23515278, 0.107474975, 0.13101482
49, 1764334525, -2.5914816856384277, 57.73052215576172, 155.78614807128906, -0.24987382, 0.039409135, 0.097332954
50, 1764351192, -2.572843551635742, 57.71134948730469, 155.80929565429688, -0.20072041, -0.059859283, 0.052371025
51, 1764367859, -2.578523874282837, 57.68329620361328, 155.774169921875, -0.13305879, -0.047667883, 0.0399065
52, 1764384526, -2.607682943344116, 57.64372253417969, 155.5813751220703, -0.09499943, 0.11607542, 0.040110588
53, 1764401193, -2.599982261657715, 57.61486053466797, 155.58026123046875, -0.04250624, 0.21319191, 0.014555931
54, 1764417860, -2.5635790824890137, 57.58176040649414, 155.51162719726562, -0.098104164, 0.2306784, 0.021590233
55, 1764434527, -2.4655418395996094, 57.55385208129883, 155.5030975341797, -0.087900534, 0.18531598, -0.08258724
56, 1764451194, -2.350015878677368, 57.535423278808594, 155.51913452148438, -0.022254389, 0.069413066, -0.17645645
57, 1764467861, -2.2641773223876953, 57.519134521484375, 155.5276641845703, -0.053693175, 0.042967014, -0.16462517
58, 1764484528, -2.2184903621673584, 57.50522232055664, 155.50315856933594, -0.11270465, 0.11994778, -0.098649025
59, 1764501195, -2.198453426361084, 57.49945068359375, 155.4370880126953, -0.14671803, 0.19449209, -0.021255493
60, 1764517862, -2.192800521850586, 57.49932098388672, 155.3400115966797, -0.14407867, 0.10285116, 0.002688408
61, 1764534529, -2.1965219974517822, 57.50216293334961, 155.2730255126953, -0.10431418, 0.05084104, -9.050369E-4
62, 1764551196, -2.2177062034606934, 57.501060485839844, 155.17539978027344, -0.114194624, 0.108706534, 0.021755219
63, 1764567863, -2.2310330867767334, 57.50238037109375, 155.08221435546875, -0.1605634, 0.11915275, 0.0094099045
64, 1764584530, -2.210360050201416, 57.5058479309082, 155.02159118652344, -0.13205817, 0.09692131, -0.06712818
65, 1764601197, -2.1783556938171387, 57.50542449951172, 154.9972381591797, -0.12705734, -0.009333957, 0.008770943
66, 1764617864, -2.1702616214752197, 57.502708435058594, 154.90011596679688, -0.10521013, 0.0036514753, 0.012516022
67, 1764634531, -2.1579554080963135, 57.51028060913086, 154.8387451171875, -0.07986945, -0.059501328, -0.02178955
68, 1764651198, -2.1616597175598145, 57.5258903503418, 154.78460693359375, -0.100701794, -0.061777975, -0.010504723
69, 1764667865, -2.1599056720733643, 57.53311538696289, 154.73388671875, -0.164249, -0.07384572, 0.03000164
70, 1764684532, -2.1383321285247803, 57.53084945678711, 154.6844940185547, -0.24004984, -0.08681992, -0.0020017624
71, 1764701199, -2.1473326683044434, 57.530677795410156, 154.64947509765625, -0.2672736, -0.07414098, 0.023975372
72, 1764717866, -2.1696481704711914, 57.53125, 154.6212158203125, -0.23076215, 0.007904033, 0.056447983
73, 1764734533, -2.1640405654907227, 57.5296745300293, 154.6087188720703, -0.17707478, 0.005814969, 0.020290375
74, 1764751200, -2.148230791091919, 57.527748107910156, 154.59939575195312, -0.15157509, -0.026517913, 9.994507E-4
75, 1764767867, -2.1262505054473877, 57.51940155029297, 154.6020050048828, -0.19755225, -0.04509748, -0.0075731277
76, 1764784534, -2.090771436691284, 57.507598876953125, 154.61451721191406, -0.21706364, -0.015538062, 0.007162094
77, 1764801201, -2.065542697906494, 57.49576187133789, 154.62356567382812, -0.19382323, -0.026000367, 0.03204727
78, 1764817868, -2.0498616695404053, 57.487003326416016, 154.64474487304688, -0.14216395, -0.04795638, -0.034941673
79, 1764834535, -2.045781135559082, 57.47930145263672, 154.6642303466797, -0.15329503, -0.019361362, -0.009140015
80, 1764851202, -2.0355944633483887, 57.467708587646484, 154.68055725097656, -0.19331715, 0.049818803, 0.039936066
81, 1764867869, -2.0139453411102295, 57.4546012878418, 154.70745849609375, -0.18489781, 0.041806646, -0.00996685
82, 1764884536, -1.9696991443634033, 57.43967819213867, 154.740966796875, -0.1442145, 0.055687808, -0.054683685
83, 1764901203, -1.9015097618103027, 57.42182540893555, 154.7688446044922, -0.15340771, 0.07120179, 0.0051469803
84, 1764917870, -1.8311476707458496, 57.39744567871094, 154.7982177734375, -0.10839392, 0.09582442, 0.0032567978
85, 1764934537, -1.794151782989502, 57.377994537353516, 154.82388305664062, -0.045356885, 0.054750394, -0.0045986176
86, 1764951204, -1.7704657316207886, 57.3607063293457, 154.86009216308594, -0.09279611, -0.015594052, 0.019695282
87, 1764967871, -1.7071729898452759, 57.345123291015625, 154.90354919433594, -0.10141654, -0.0039362866, -0.029506683
88, 1764984538, -1.6388980150222778, 57.33077621459961, 154.94374084472656, -0.17099322, 0.04594147, -0.0021944046
89, 1765001205, -1.6078879833221436, 57.31079864501953, 154.958251953125, -0.17357428, 0.095009655, 0.03354931
90, 1765017872, -1.5977197885513306, 57.28960037231445, 154.95701599121094, -0.15160649, 0.041774627, 0.02225113
91, 1765034539, -1.5980030298233032, 57.27916717529297, 154.96347045898438, -0.09206013, -0.012387032, -0.094192505
92, 1765051206, -1.6125153303146362, 57.27595138549805, 154.9655303955078, -0.097444005, 0.024456844, -0.075366974
93, 1765067873, -1.627009630203247, 57.26847457885742, 154.95399475097656, -0.12557821, 0.060301952, -0.042497635
94, 1765084540, -1.6509720087051392, 57.266143798828125, 154.92120361328125, -0.13267034, 0.10684925, -0.031244278
95, 1765101207, -1.6840986013412476, 57.26685333251953, 154.88514709472656, -0.13550746, 0.081810325, 0.011042595
96, 1765117874, -1.7127742767333984, 57.265560150146484, 154.8459014892578, -0.16162081, 0.072519675, 0.023018837
97, 1765134541, -1.7248059511184692, 57.26522445678711, 154.80691528320312, -0.12996686, 0.040868394, -0.08982849
98, 1765151208, -1.7506293058395386, 57.267730712890625, 154.7627410888672, -0.07793866, 0.054151993, -0.04344845
99, 1765167875, -1.8000000715255737, 57.26974105834961, 154.7098846435547, -0.057454746, 0.057852305, -0.020430565
100, 1765184542, -1.8273755311965942, 57.279197692871094, 154.67315673828125, -0.035066444, 0.100275956, 0.011569023
101, 1765201209, -1.821407437324524, 57.288509368896484, 154.64776611328125, -0.08742467, 0.12974732, 0.012261391
102, 1765217876, -1.8138351440429688, 57.30018615722656, 154.61477661132812, -0.13574675, 0.025688177, -0.014208794
103, 1765234543, -1.8156813383102417, 57.30887222290039, 154.58026123046875, -0.1959423, 0.007101286, -0.036872864
104, 1765251210, -1.8302206993103027, 57.319007873535156, 154.53916931152344, -0.21935359, -0.06568749, -0.0341053
105, 1765267877, -1.8545693159103394, 57.33055877685547, 154.49790954589844, -0.16499251, -0.02026145, -0.018458366
106, 1765284544, -1.8849802017211914, 57.34303283691406, 154.45599365234375, -0.13882732, 0.02733731, -0.008393288
107, 1765301211, -1.901553750038147, 57.35428237915039, 154.42201232910156, -0.13494873, -0.0069261077, -0.005214691
108, 1765317878, -1.9063529968261719, 57.3612060546875, 154.3931427001953, -0.14348622, 0.008899503, -0.027168274
109, 1765334545, -1.8995170593261719, 57.36881637573242, 154.3655242919922, -0.16477008, 0.050372947, -0.017102242
110, 1765351212, -1.8842977285385132, 57.37334442138672, 154.3416290283203, -0.13562126, 0.058322296, 0.023179054
111, 1765367879, -1.851900577545166, 57.37056350708008, 154.34104919433594, -0.13456506, 0.059812568, 0.016284943
112, 1765384546, -1.7895803451538086, 57.37354278564453, 154.3590087890625, -0.14321041, 0.032710284, -0.04282856
113, 1765401213, -1.7303346395492554, 57.37178039550781, 154.38343811035156, -0.21351723, -0.059495404, -0.020715714
114, 1765417880, -1.6838548183441162, 57.3707160949707, 154.40977478027344, -0.2540396, -0.08594677, 0.01932621
115, 1765434547, -1.645654320716858, 57.36909484863281, 154.44561767578125, -0.25783634, -0.12880246, 0.10020542
116, 1765451214, -1.6283706426620483, 57.36359786987305, 154.47576904296875, -0.22598325, -0.10866322, 0.15424919
117, 1765467881, -1.6370048522949219, 57.35171127319336, 154.51634216308594, -0.18989684, -0.14256227, 0.15561867
118, 1765484548, -1.6812547445297241, 57.33176040649414, 154.5580291748047, -0.14456755, -0.06506429, 0.12625313
119, 1765501215, -1.6978029012680054, 57.308380126953125, 154.60726928710938, -0.1422757, 0.1313598, 0.04637432
120, 1765517882, -1.6621190309524536, 57.286582946777344, 154.66738891601562, -0.083357275, 0.12383556, -0.058836937
121, 1765534549, -1.6241384744644165, 57.2680549621582, 154.70706176757812, -0.04547339, 0.05375481, -0.1231575
122, 1765551216, -1.6034648418426514, 57.2508659362793, 154.75758361816406, -0.06414224, 0.014279852, -0.10630894
123, 1765567883, -1.6062982082366943, 57.240699768066406, 154.79306030273438, -0.093651734, 0.007248469, -0.103012085
124, 1765584550, -1.621021032333374, 57.23355484008789, 154.81983947753906, -0.13747004, 0.059419133, -0.066363335
125, 1765601217, -1.6439677476882935, 57.22701644897461, 154.8268280029297, -0.174767, 0.122796506, 0.0023641586
126, 1765617884, -1.654773473739624, 57.221458435058594, 154.81874084472656, -0.17547344, 0.14190754, 0.019978523
127, 1765634551, -1.6731938123703003, 57.217403411865234, 154.80824279785156, -0.12682708, 0.09336477, 0.029405594
128, 1765651218, -1.6787338256835938, 57.214195251464844, 154.79632568359375, -0.06368834, 0.07827211, -0.019508362
129, 1765667885, -1.6853817701339722, 57.217166900634766, 154.7771453857422, -0.047212977, 0.04867542, -0.10757351
130, 1765684552, -1.7098455429077148, 57.226158142089844, 154.7483673095703, -0.061169125, 0.090009615, -0.09891319
131, 1765701219, -1.741156816482544, 57.23344039916992, 154.7032470703125, -0.10465958, 0.10519319, -0.02536583
132, 1765717886, -1.7733373641967773, 57.24530029296875, 154.67535400390625, -0.10437941, 0.07074727, 0.02599907
133, 1765734553, -1.7931139469146729, 57.253929138183594, 154.6479034423828, -0.10542446, 0.0578133, 0.07051659
134, 1765751220, -1.7943745851516724, 57.25957489013672, 154.6148681640625, -0.06516329, 0.069897085, 0.026284218
135, 1765767887, -1.8035725355148315, 57.27280044555664, 154.58087158203125, -0.045180812, 0.036000505, -0.067295074
136, 1765784554, -1.8346765041351318, 57.291568756103516, 154.5319366455078, -0.14864059, -0.028586023, -0.041247368
137, 1765801221, -1.848151683807373, 57.30461883544922, 154.50869750976562, -0.22515507, -0.029059926, -0.011306763
138, 1765817888, -1.8698104619979858, 57.32119369506836, 154.46531677246094, -0.14848791, 0.017725639, -0.018723488
139, 1765834555, -1.900085210800171, 57.34093475341797, 154.46726989746094, -0.16673064, 0.06638989, 0.012898445
140, 1765851222, -1.922542929649353, 57.35165786743164, 154.44493103027344, -0.21734056, 0.024884647, 0.058955193
141, 1765867889, -1.9366092681884766, 57.36099624633789, 154.37489318847656, -0.22376981, -0.009698339, 0.062372208
142, 1765884556, -1.9805141687393188, 57.37498474121094, 154.31556701660156, -0.16148742, -0.07844556, 0.03116703
143, 1765901223, -2.03460431098938, 57.374881744384766, 154.279541015625, -0.12755947, -0.018144056, 0.07201862
144, 1765917890, -2.0686521530151367, 57.36933517456055, 154.24737548828125, -0.11657443, 0.12253634, 0.049090385
145, 1765934557, -2.089831590652466, 57.367088317871094, 154.18125915527344, -0.15402699, 0.084903516, 0.037875175
146, 1765951224, -2.101820945739746, 57.36423110961914, 154.16555786132812, -0.18086277, -0.015422841, 0.044535637
147, 1765967891, -2.1046931743621826, 57.34973907470703, 154.14210510253906, -0.15258884, 0.015382385, 0.12194157
148, 1765984558, -2.1346092224121094, 57.31909942626953, 154.10609436035156, -0.112994924, -0.01916227, 0.18104362
149, 1766001225, -2.208191156387329, 57.276790618896484, 154.08001708984375, -0.055398107, 0.10103568, 0.23962307
150, 1766017892, -2.282971143722534, 57.21076583862305, 154.03822326660156, -0.078520074, 0.30796963, 0.45071125
151, 1766034559, -2.2943246364593506, 57.100746154785156, 153.96629333496094, -0.07582701, 0.37531468, 0.6338253
152, 1766051226, -2.2805116176605225, 56.98341369628906, 153.909423828125, 0.124303184, 0.25461432, 0.34475517
153, 1766067893, -2.266469955444336, 56.847984313964844, 153.7330322265625, 0.20072609, 0.20437191, 0.116189
154, 1766084560, -2.219308853149414, 56.68479919433594, 153.6841278076172, 0.051099505, 0.35684258, 0.16902256
155, 1766101227, -2.250379800796509, 56.4857177734375, 153.4829559326172, -0.11678134, 0.45810378, 0.38738728
156, 1766117894, -2.2874484062194824, 56.296199798583984, 153.26150512695312, -0.09249613, 0.27985683, 0.22811413
157, 1766134561, -2.301734209060669, 56.1115837097168, 153.04696655273438, 0.3511745, 0.22949634, 0.16699505
158, 1766151228, -2.4149909019470215, 55.90755081176758, 152.7503204345703, 0.30820236, 0.41577825, 0.20636177
159, 1766167895, -2.6208038330078125, 55.657814025878906, 152.35516357421875, -0.42249358, 0.8460622, 0.6030445
160, 1766184562, -2.6810717582702637, 55.327430725097656, 151.87986755371094, -0.84646714, 1.3974674, 1.2213736
161, 1766201229, -2.4697108268737793, 54.899932861328125, 151.345703125, -0.5827753, 0.91496176, 1.29947
162, 1766217896, -2.266063928604126, 54.34407424926758, 150.79132080078125, -0.21927355, 0.11603619, 1.0620632
163, 1766234563, -2.1836817264556885, 53.63808059692383, 150.24298095703125, -0.46694058, -0.10642916, 0.9316797
164, 1766251230, -2.14450740814209, 52.82830810546875, 149.6715087890625, -0.54322237, 0.42771137, 1.1345377
165, 1766267897, -2.065833806991577, 51.91984176635742, 149.05213928222656, -0.2828346, 0.90072155, 1.5771494
166, 1766284564, -1.8927829265594482, 50.942161560058594, 148.38796997070312, 0.20456637, 0.7442424, 1.3841877
167, 1766301231, -1.6141141653060913, 49.89105987548828, 147.7205810546875, 0.2897494, 0.4177222, 1.3515654
168, 1766317898, -1.1900303363800049, 48.73477554321289, 147.08335876464844, 0.09992538, 0.4003744, 1.5529814
169, 1766334565, -0.5768163204193115, 47.45250701904297, 146.51112365722656, -0.054662608, 0.8027491, 1.9713192
170, 1766351232, 0.3593812882900238, 46.01051712036133, 146.0311279296875, 0.07909475, 0.9048714, 1.579999
171, 1766367899, 1.4564884901046753, 44.496646881103516, 145.62135314941406, 0.15376104, 0.2622434, 0.8600893
172, 1766384566, 2.6176741123199463, 42.956016540527344, 145.29290771484375, -0.20313576, -0.8673427, 0.11127472
173, 1766401233, 3.699706792831421, 41.447120666503906, 145.0786895751953, -0.18210497, -1.1664178, -0.42655563
174, 1766417900, 4.525571346282959, 39.98849868774414, 144.79583740234375, 0.11759344, -0.51808316, -0.11981201
175, 1766434567, 5.211121082305908, 38.579803466796875, 144.39393615722656, -0.043021634, -0.0025617937, 0.32251358
176, 1766451234, 6.013387203216553, 37.1837272644043, 144.03099060058594, 0.13891914, 0.23972647, 0.25140572
177, 1766467901, 7.009834289550781, 35.79084014892578, 143.780029296875, -0.075641505, 0.21816635, -0.040473938
178, 1766484568, 8.181950569152832, 34.41124725341797, 143.61024475097656, -0.28125912, -0.14188446, -0.47817612
179, 1766501235, 9.383391380310059, 33.046356201171875, 143.50198364257812, -0.23782471, -0.60224336, -1.0371704
180, 1766517902, 10.425253868103027, 31.725341796875, 143.39474487304688, -0.1670373, -0.40507516, -1.4542465
181, 1766534569, 11.489885330200195, 30.52077865600586, 143.29000854492188, -0.69358134, 0.19341186, -0.43571854
182, 1766551236, 12.636662483215332, 29.295146942138672, 143.20350646972656, -1.102434, -0.10948503, 0.30957317
183, 1766567903, 13.711268424987793, 27.977373123168945, 143.12791442871094, -1.0079519, -0.39459962, 0.67397404
184, 1766584570, 14.547481536865234, 26.52666473388672, 143.02597045898438, -0.9991537, -1.2178886, 0.6988058
185, 1766601237, 15.070962905883789, 24.946603775024414, 142.95077514648438, -1.014992, -1.3404083, 1.2167025
186, 1766617904, 15.269379615783691, 23.256610870361328, 142.93307495117188, -0.85218734, -1.3748751, 0.8043089
187, 1766634571, 15.274053573608398, 21.515369415283203, 142.98361206054688, -0.7735275, -1.4568051, 0.74185085
188, 1766651238, 15.339969635009766, 19.745325088500977, 143.14678955078125, -0.4456083, -1.5682237, 1.6566019
189, 1766667905, 15.480095863342285, 17.930021286010742, 143.44134521484375, 0.16080472, -1.2538456, 2.286749
190, 1766684572, 15.674980163574219, 15.880708694458008, 143.74220275878906, 0.6095711, -1.1304575, 1.9814005
191, 1766701239, 15.741277694702148, 13.6318359375, 144.03533935546875, 0.7903807, -0.9291423, 1.4197998
192, 1766717906, 15.752248764038086, 11.248841285705566, 144.2958526611328, 0.6481659, -0.58978766, 1.6316528
193, 1766734573, 15.823134422302246, 8.923646926879883, 144.6483612060547, 0.63478744, -0.56708235, 0.47643375
194, 1766751240, 15.850605010986328, 6.664425373077393, 145.1238250732422, 0.5912684, -0.88982755, -0.86599064
195, 1766767907, 15.858346939086914, 4.492712497711182, 145.5618438720703, 0.53509027, -0.79572386, 0.24803829
196, 1766784574, 15.81270980834961, 2.3096485137939453, 145.94224548339844, 0.8772301, -0.9088468, 1.0319557
197, 1766801241, 15.53719711303711, -0.10384754091501236, 146.3371124267578, 0.98525816, -1.081819, -0.32086658
198, 1766817908, 14.964895248413086, -2.319105625152588, 146.85023498535156, 0.14177904, -1.208101, -2.125733
199, 1766834575, 14.048502922058105, -4.3975043296813965, 147.4406280517578, 0.09659776, -1.1966641, -2.199604
200, 1766851242, 13.191459655761719, -6.504836082458496, 147.95138549804688, 0.78159755, -0.75044274, -0.54765606
201, 1766867909, 12.673674583435059, -8.426912307739258, 148.33340454101562, 1.6311574, 0.19445187, -1.2584505
202, 1766884576, 12.182847023010254, -9.66557502746582, 148.84619140625, 0.85073763, 0.6448953, -5.158675
203, 1766901243, 11.521663665771484, -10.384156227111816, 149.48509216308594, 0.17085879, 0.9060334, -5.7478814
204, 1766917910, 10.964778900146484, -10.389266967773438, 150.1710205078125, 0.6757451, 1.3367331, -3.4811077
205, 1766934577, 10.829936981201172, -9.828741073608398, 150.82081604003906, 1.2756921, 1.6961938, -3.0092664
206, 1766951244, 10.786415100097656, -8.363676071166992, 151.50025939941406, 0.4332535, 1.7003207, -4.4460998
207, 1766967911, 10.50866985321045, -6.255414009094238, 152.43243408203125, -2.8823433, 2.4013913, -3.841167
208, 1766984578, 10.571088790893555, -4.528869152069092, 153.3819580078125, -3.1757076, 1.9478879, -1.1509552
209, 1767001245, 11.321937561035156, -3.8737218379974365, 154.03517150878906, -2.4325757, 1.2881244, 0.27484608
210, 1767017912, 12.327264785766602, -4.051318168640137, 154.2974853515625, -3.60561, 1.3642993, -0.057112694
211, 1767034579, 13.481606483459473, -4.851367473602295, 154.0940704345703, -2.4598222, 2.2406592, 0.6517229
212, 1767051246, 14.461727142333984, -6.0830183029174805, 153.49949645996094, -1.7472242, 2.415983, -0.49771976
213, 1767067913, 14.96506404876709, -7.147737503051758, 152.59912109375, -2.488776, 1.6292804, -2.090622
214, 1767084580, 15.05672550201416, -7.555755138397217, 151.73828125, -2.2097654, 1.1210512, -2.8679981
215, 1767101247, 15.063281059265137, -7.3860249519348145, 150.992919921875, -0.64462453, 0.79460466, -1.3401737
216, 1767117914, 15.173014640808105, -7.097751617431641, 150.3512420654297, 0.060916904, 0.77922344, -1.0931683
217, 1767134581, 15.005585670471191, -6.719484329223633, 149.8524627685547, -0.045520455, 0.34642133, -1.2486525
218, 1767151248, 14.505868911743164, -6.350796222686768, 149.4875946044922, -0.17425242, -0.7151011, -1.7416849
219, 1767167915, 13.771687507629395, -6.000011444091797, 149.2032928466797, -0.32929567, -1.4585074, -1.7757616
220, 1767184582, 13.036518096923828, -5.531989097595215, 148.94647216796875, -0.049350154, -1.3157343, -1.4451694
221, 1767201249, 12.396595001220703, -4.657942295074463, 148.67662048339844, 0.19248934, -0.7142379, -0.912508
222, 1767217916, 11.864410400390625, -3.5512568950653076, 148.444091796875, 0.28435162, -0.1607725, -0.34338856
223, 1767234583, 11.20638656616211, -2.279608726501465, 148.34451293945312, 0.059307963, -0.28874403, -0.37535095
224, 1767251250, 10.820897102355957, -1.0965173244476318, 148.31951904296875, 0.15520826, -0.7637122, -0.86386585
225, 1767267917, 10.744128227233887, 0.15055632591247559, 148.33383178710938, 0.41344988, -0.46248016, -1.5304604
226, 1767284584, 10.804235458374023, 1.5103132724761963, 148.3483428955078, 0.5462356, -0.086703636, -1.1535025
227, 1767301251, 10.975481033325195, 2.880518674850464, 148.3327178955078, 0.58380896, -0.04305895, -0.16627693
228, 1767317918, 11.334134101867676, 4.208836078643799, 148.2350616455078, 0.6416128, 0.04416763, 1.0346193
229, 1767334585, 11.995731353759766, 5.617180347442627, 147.98193359375, 0.3471894, 0.55089706, 1.9323168
230, 1767351252, 12.770636558532715, 7.070477485656738, 147.67140197753906, -0.03999094, 0.5101927, 1.6562386
231, 1767367919, 13.42143726348877, 8.595989227294922, 147.546875, -0.7417308, -0.5005115, -0.4012394
232, 1767384586, 13.853389739990234, 10.128989219665527, 147.68385314941406, -0.65112454, -1.1602865, -1.1409664
233, 1767401253, 14.053728103637695, 11.62228012084961, 147.88160705566406, -0.09099875, -0.5534453, 0.07114601
234, 1767417920, 14.042089462280273, 13.201536178588867, 147.93942260742188, 0.050505433, 0.17471564, -0.12162781
235, 1767434587, 13.952821731567383, 15.005980491638184, 147.9547119140625, -0.121009886, 0.04770922, -1.4798021
236, 1767451254, 13.840594291687012, 16.879499435424805, 147.99058532714844, 0.18915284, -0.19659373, -1.6494188
237, 1767467921, 13.742803573608398, 18.630542755126953, 148.07496643066406, 0.70380574, -0.8362473, -0.25325775
238, 1767484588, 13.830270767211914, 20.197431564331055, 148.22454833984375, 0.95277816, -0.989383, 1.867774
239, 1767501255, 14.070544242858887, 21.631803512573242, 148.35377502441406, 0.6545798, -0.59886855, 1.5744076
240, 1767517922, 13.88915729522705, 23.12787628173828, 148.48965454101562, 0.23568623, -0.16117309, -0.2372837
241, 1767534589, 13.517528533935547, 24.740711212158203, 148.68624877929688, 0.03498897, 0.3851175, -0.9275856
242, 1767551256, 13.252349853515625, 26.44671058654785, 148.90966796875, 0.34534326, 0.6815327, -0.8722267
243, 1767567923, 13.087324142456055, 28.111968994140625, 149.07823181152344, 0.90191334, 0.89962995, 0.6514168
244, 1767584590, 13.187006950378418, 29.679893493652344, 149.1251678466797, 0.83702034, 0.5033639, 2.2136602
245, 1767601257, 13.332061767578125, 31.129261016845703, 149.08956909179688, 0.24558447, -0.73245263, 1.7326412
246, 1767617924, 13.08790111541748, 32.4802360534668, 149.25204467773438, -0.97775316, -1.8446821, 0.7103319
247, 1767634591, 12.65703296661377, 33.805908203125, 149.7303466796875, -1.2788303, -1.8604581, -0.01790905
248, 1767651258, 11.96241569519043, 35.246788024902344, 150.24412536621094, -0.6601556, -1.1633918, -0.23921394
249, 1767667925, 11.18602466583252, 36.73664474487305, 150.6681671142578, -0.2644979, -0.7947042, 0.39014435
250, 1767684592, 10.463116645812988, 38.17982864379883, 151.14566040039062, -0.5315271, -0.92847466, 0.7905235
251, 1767701259, 9.948003768920898, 39.56342697143555, 151.76263427734375, -0.23907426, -0.285084, 0.53045845
252, 1767717926, 9.64340591430664, 40.945945739746094, 152.28335571289062, 0.33495772, 0.97493535, -0.889246
253, 1767734593, 9.412354469299316, 42.50701904296875, 152.76654052734375, -0.37189075, 0.32231513, -0.28478146
254, 1767751260, 9.835055351257324, 43.88042449951172, 153.40005493164062, -0.50161815, -0.32176483, 1.6366034
255, 1767767927, 10.116425514221191, 45.129417419433594, 154.02809143066406, 0.05555001, -1.3445665, 1.4025421
256, 1767784594, 9.957361221313477, 46.33108139038086, 154.7505645751953, -0.73532254, -1.5075061, 0.3937664
257, 1767801261, 9.675116539001465, 47.68765640258789, 155.46737670898438, 0.29593003, -1.0558488, -0.9022846
258, 1767817928, 9.45348834991455, 49.09287643432617, 156.1664581298828, 1.0777138, -0.7230148, -0.9884987
259, 1767834595, 9.480464935302734, 50.520809173583984, 157.0416717529297, 1.1070082, 0.118737124, -1.5628624
260, 1767851262, 9.637371063232422, 51.926231384277344, 158.01368713378906, 1.1291689, 0.07393697, -0.25236225
261, 1767867929, 9.666648864746094, 53.16297912597656, 159.02078247070312, 0.35386002, 0.14774519, 1.8414755
262, 1767884596, 9.363031387329102, 54.20918273925781, 159.9797821044922, -0.9019744, 1.5539588, 2.6692286
263, 1767901263, 9.042242050170898, 55.00004196166992, 160.72317504882812, -1.3967644, 3.3322866, 3.4556084
264, 1767917930, 9.116781234741211, 55.42243576049805, 161.29689025878906, -0.95991683, 3.8230755, 3.8009539
265, 1767934597, 9.489230155944824, 55.51206970214844, 161.78152465820312, -1.0589141, 3.0289934, 3.6750574
266, 1767951264, 9.778822898864746, 55.33382034301758, 162.00604248046875, -1.1910994, 2.8088765, 3.188507
267, 1767967931, 9.876752853393555, 54.948158264160156, 161.9650421142578, -0.9840855, 2.1966012, 2.974825
268, 1767984598, 9.925296783447266, 54.34140396118164, 161.81634521484375, -0.8220012, 1.1645463, 2.4889927
269, 1768001265, 9.78590202331543, 53.539878845214844, 161.5353546142578, -0.45710158, 0.9580182, 1.8228455
270, 1768017932, 9.357504844665527, 52.57759475708008, 161.0853271484375, -0.20290627, 1.1817904, 1.3586044
271, 1768034599, 8.817692756652832, 51.51824951171875, 160.51235961914062, -0.15517291, 1.4246527, 1.0662212
272, 1768051266, 8.361967086791992, 50.450927734375, 159.8262176513672, 0.25679946, 1.5784279, 0.6925564
273, 1768067933, 8.04459285736084, 49.37164306640625, 158.9918670654297, 0.6181058, 1.5373452, 1.0650301
274, 1768084600, 7.902517795562744, 48.181304931640625, 158.0567169189453, 0.46967784, 1.225785, 1.6058216
275, 1768101267, 7.929530620574951, 46.86135482788086, 157.12591552734375, 0.1368529, 0.7933542, 1.7997437
276, 1768117934, 8.085206985473633, 45.41419219970703, 156.20896911621094, -0.11155185, 0.5656528, 1.6528015
277, 1768134601, 8.286953926086426, 43.890785217285156, 155.26402282714844, -0.10557383, 0.4576803, 1.363203
278, 1768151268, 8.557459831237793, 42.3255615234375, 154.31057739257812, 0.02534609, 0.7906884, 1.416153
279, 1768167935, 8.93854808807373, 40.655250549316406, 153.31008911132812, 0.23716538, 1.167291, 1.6806297
280, 1768184602, 9.639567375183105, 38.894874572753906, 152.34176635742188, 0.463897, 0.6989454, 1.2846117
281, 1768201269, 10.67453670501709, 37.0505485534668, 151.51097106933594, 0.52194834, -0.5262315, 0.41388798
282, 1768217936, 11.781112670898438, 35.21147918701172, 150.819091796875, 0.4555713, -1.4939963, -0.5511055
283, 1768234603, 12.823590278625488, 33.49187469482422, 150.24374389648438, 0.80758315, -1.6791244, -1.1849613
284, 1768251270, 13.797947883605957, 31.934518814086914, 149.7379608154297, 1.2821394, -1.5054176, -2.3940983
285, 1768267937, 14.565916061401367, 30.613304138183594, 149.24583435058594, 0.9250363, -0.7991105, -2.9972167
286, 1768284604, 15.354451179504395, 29.557411193847656, 148.7451171875, 0.14521028, -0.5096301, -2.7549233
287, 1768301271, 16.06099510192871, 28.7095947265625, 148.2481231689453, -0.21053053, -0.61894727, -2.8983636
288, 1768317938, 16.558456420898438, 27.978673934936523, 147.77806091308594, -0.7472276, -0.39299768, -1.4007835
289, 1768334605, 16.98046875, 27.215776443481445, 147.3081817626953, -0.8227181, -0.17564815, 0.096476555
290, 1768351272, 17.367374420166016, 26.320613861083984, 146.80503845214844, -0.7008714, 0.13533156, 1.352808
291, 1768367939, 17.761411666870117, 25.210939407348633, 146.3021697998047, -0.78100836, -0.1655076, 1.5469456
292, 1768384606, 18.22087287902832, 23.903562545776367, 145.9091796875, -0.8455324, -0.6495816, 2.4983435
293, 1768401273, 18.6092529296875, 22.264986038208008, 145.7010040283203, -0.16769864, -1.8140497, 2.8330984
294, 1768417940, 18.849712371826172, 20.33989715576172, 145.6390838623047, -0.09441752, -1.7599157, 3.6581059
295, 1768434607, 18.92061424255371, 18.271520614624023, 145.56260681152344, -5.4419815E-4, -0.56271726, 3.871214
296, 1768451274, 18.820411682128906, 16.0959529876709, 145.38290405273438, 0.3921651, -0.18469727, 3.5345745
297, 1768467941, 18.753049850463867, 13.818775177001953, 145.30819702148438, 0.79685724, -0.5052156, 1.9555922
298, 1768484608, 18.971298217773438, 11.456121444702148, 145.26206970214844, 0.7495616, -1.0280697, 0.35075188
299, 1768501275, 19.265377044677734, 9.078316688537598, 145.199462890625, 0.941184, -0.5838931, 1.0843105
300, 1768517942, 19.687091827392578, 6.609662055969238, 145.11891174316406, 1.2527776, -0.4270258, 1.1585999
301, 1768534609, 20.021482467651367, 4.134066581726074, 145.107177734375, 1.3459772, -1.3431427, -0.48036003
302, 1768551276, 20.381498336791992, 1.6095632314682007, 145.06919860839844, 1.3128031, -1.5622177, 1.2490072
303, 1768567943, 20.796892166137695, -0.8985286951065063, 145.06838989257812, 1.664638, -1.3265142, 2.0870981
304, 1768584610, 21.059656143188477, -3.4715821743011475, 145.21165466308594, 1.2839514, -2.127427, 0.25264168
305, 1768601277, 21.015853881835938, -6.018762588500977, 145.51341247558594, 0.5450483, -2.1264505, -0.9703798
306, 1768617944, 20.71543312072754, -8.53770637512207, 145.87220764160156, -0.13821413, -1.5628859, -1.4154158
307, 1768634611, 20.210752487182617, -10.826455116271973, 146.39434814453125, -0.043319017, -0.53807545, -1.6766491
308, 1768651278, 20.023881912231445, -12.937838554382324, 146.94305419921875, 1.8461381, -0.12757343, -0.07172108
309, 1768667945, 19.799776077270508, -14.803425788879395, 147.55606079101562, 2.1788054, -0.86265385, -3.4267912
310, 1768684612, 19.477394104003906, -15.966878890991211, 148.4151611328125, 0.4939209, -0.48765206, -7.222928
311, 1768701279, 19.17547607421875, -16.269855499267578, 149.53793334960938, -1.5276531, 2.3427622, -6.497196
312, 1768717946, 19.11720085144043, -16.041915893554688, 150.7720489501953, -1.7015396, 2.5327327, -4.064201
313, 1768734613, 19.063573837280273, -15.638834953308105, 152.07286071777344, -2.5017886, 1.1802632, -3.475882
314, 1768751280, 18.944351196289062, -15.349259376525879, 153.2633514404297, -3.7584481, 1.329226, -2.705501
315, 1768767947, 18.99400520324707, -15.557320594787598, 154.05068969726562, -3.682581, 1.9510522, -2.0159526
316, 1768784614, 19.29676628112793, -16.230995178222656, 154.31045532226562, -3.0944757, 2.183609, -1.2211514
317, 1768801281, 19.90390396118164, -17.161489486694336, 154.05836486816406, -3.4384556, 2.653202, -1.3176527
318, 1768817948, 20.596542358398438, -17.996999740600586, 153.46530151367188, -3.7519453, 2.8572252, -2.6106668
319, 1768834615, 21.08319091796875, -18.349552154541016, 152.7715301513672, -3.7939165, 2.352029, -3.3380914
320, 1768851282, 21.349769592285156, -18.208086013793945, 152.1334686279297, -2.8340461, 2.2476773, -3.5567427
321, 1768867949, 21.267370223999023, -17.70623016357422, 151.51405334472656, -1.8487357, 1.8810468, -3.3558187
322, 1768884616, 20.79665184020996, -16.969209671020508, 150.91571044921875, -1.1635512, 1.0117003, -3.170578
323, 1768901283, 19.7904052734375, -16.03179931640625, 150.38076782226562, -0.8516066, 0.31062555, -2.3731403
324, 1768917950, 18.66187858581543, -14.922539710998535, 149.84222412109375, -0.7350335, -0.56233966, -2.1295872
325, 1768934617, 17.68096160888672, -13.807533264160156, 149.34783935546875, -0.4329861, -0.4580626, -2.1925268
326, 1768951284, 16.599449157714844, -12.642592430114746, 149.01144409179688, 0.15198702, -0.46813917, -1.4504519
327, 1768967951, 15.314022064208984, -11.333773612976074, 148.8530731201172, 0.08467501, -0.5423567, -0.8255844
328, 1768984618, 14.150224685668945, -9.90282154083252, 148.7310333251953, -0.3383677, -0.7978618, -0.9537964
329, 1769001285, 13.137330055236816, -8.436568260192871, 148.63755798339844, -0.27543545, -0.76923347, -1.4072762
330, 1769017952, 12.116910934448242, -6.881785869598389, 148.64125061035156, 0.34427193, -0.9363302, -1.1801424
331, 1769034619, 11.168600082397461, -5.119710445404053, 148.69894409179688, 1.0758817, -1.2044103, -0.3233385
332, 1769051286, 10.481061935424805, -3.351188898086548, 148.7030487060547, 0.8394349, -0.8058194, 0.13315296
333, 1769067953, 9.952751159667969, -1.3804728984832764, 148.7520294189453, 0.11942187, -0.38136065, -0.06813145
334, 1769084620, 9.596644401550293, 0.5677151679992676, 148.92649841308594, 0.5492932, -0.54292804, 0.13941383
335, 1769101287, 9.507706642150879, 2.383124828338623, 149.17236328125, 1.5856769, -0.759788, 0.6869488
336, 1769117954, 9.73526382446289, 4.136966705322266, 149.3361358642578, 1.975421, -0.2188713, 1.2472649
337, 1769134621, 10.175350189208984, 5.891517639160156, 149.3474578857422, 1.301967, 0.34062454, 1.3855581
338, 1769151288, 10.63222599029541, 7.682828426361084, 149.28756713867188, 0.2107564, 0.1329051, 0.4496727
339, 1769167955, 11.011150360107422, 9.52070140838623, 149.31756591796875, -0.33582124, -0.77140695, 0.44444275
340, 1769184622, 11.508077621459961, 11.249519348144531, 149.46701049804688, 0.35767865, -1.038939, 1.8799429
341, 1769201289, 11.86759090423584, 13.027419090270996, 149.66427612304688, 0.62354314, -0.32190207, 2.4501038
342, 1769217956, 12.025547981262207, 14.776178359985352, 149.80758666992188, -0.16920772, 0.41954064, 1.6133957
343, 1769234623, 11.809185981750488, 16.560726165771484, 149.98953247070312, -0.8079241, -0.52042514, -2.2882662
344, 1769251290, 11.172353744506836, 18.4458065032959, 150.28692626953125, -0.25834543, -0.7529088, -2.0362377
345, 1769267957, 10.435400009155273, 20.292171478271484, 150.61851501464844, 0.9328723, -0.17887507, -0.18474674
346, 1769284624, 9.70619010925293, 22.013044357299805, 150.81094360351562, 1.0779396, 0.20752253, 1.1087723
347, 1769301291, 9.086173057556152, 23.54328155517578, 150.93759155273438, 0.5485719, 0.49047527, 3.6702442
348, 1769317958, 8.774693489074707, 24.772600173950195, 151.01467895507812, 0.34782633, 0.402635, 3.559308
349, 1769334625, 8.428179740905762, 26.061481475830078, 151.2069549560547, -0.050990403, -0.09772042, -0.20464706
350, 1769351292, 8.158429145812988, 27.514385223388672, 151.6182403564453, -0.9706966, 0.4431792, -1.482707
351, 1769367959, 8.017510414123535, 29.037525177001953, 152.1605224609375, -1.1762654, 0.35457844, -1.0404558
352, 1769384626, 8.121960639953613, 30.405385971069336, 152.77105712890625, 0.11030512, 0.051926922, 1.2002888
353, 1769401293, 8.295753479003906, 31.56365394592285, 153.2228240966797, 1.4961014, -0.1892326, 2.0757065
354, 1769417960, 8.163775444030762, 32.750736236572266, 153.530517578125, 1.0200899, -0.24425183, 0.81960773
355, 1769434627, 7.893350124359131, 34.09334945678711, 153.8878173828125, 0.1516038, 0.12526275, -1.1636343
356, 1769451294, 7.668964862823486, 35.63432312011719, 154.27841186523438, 0.7846298, 0.45702067, -1.7778425
357, 1769467961, 7.638884544372559, 37.20499801635742, 154.6673126220703, 1.3006058, 0.33281425, -1.3362808
358, 1769484628, 7.657787799835205, 38.81599426269531, 155.1322021484375, 0.7725646, -0.65009284, -2.1080337
359, 1769501295, 7.450917720794678, 40.80720901489258, 155.6527557373047, 0.46640792, -0.90487957, -2.86865
360, 1769517962, 6.909359455108643, 43.211631774902344, 156.1348114013672, 0.8747245, -1.37195, -1.5064774
361, 1769534629, 6.02808141708374, 45.51710510253906, 156.4347686767578, 1.3096123, -1.8707696, 3.304268
362, 1769551296, 5.286489963531494, 47.023292541503906, 156.7144775390625, -1.3298475, -0.7064897, 4.796815
363, 1769567963, 5.439637184143066, 48.304718017578125, 157.06057739257812, -1.264198, 1.5403568, 1.5589123
364, 1769584630, 5.861976623535156, 49.90017318725586, 157.46006774902344, -0.32882088, 0.72533196, 0.27005863
365, 1769601297, 6.37847375869751, 51.510841369628906, 158.09254455566406, 0.9310277, -0.8453095, 0.6240988
366, 1769617964, 6.636744976043701, 52.79575729370117, 158.7683563232422, 0.94003916, -1.0820298, 0.29829502
367, 1769634631, 6.645761966705322, 54.03651809692383, 159.4249725341797, 0.37944838, 0.28042406, 0.57579803
368, 1769651298, 6.748109817504883, 55.15026092529297, 160.01351928710938, -0.2824311, 1.4743941, 1.5379286
369, 1769667965, 7.152416706085205, 55.975502014160156, 160.6509246826172, -1.3777354, 2.2831428, 2.9059572
370, 1769684632, 7.335107803344727, 56.46316146850586, 161.30369567871094, -2.8291502, 1.7842315, 3.740552
371, 1769701299, 7.1476054191589355, 56.683753967285156, 161.73397827148438, -2.891701, 1.3772273, 4.210451
372, 1769717966, 7.116583347320557, 56.53732681274414, 161.99600219726562, -1.9567243, 1.836667, 2.9785862
373, 1769734633, 7.42044734954834, 56.19767379760742, 162.22134399414062, -0.48623154, 1.7694042, 2.077219
374, 1769751300, 7.761810779571533, 55.70866012573242, 162.29795837402344, -0.17546403, 1.6238333, 0.9362297
375, 1769767967, 8.008757591247559, 55.1606330871582, 162.274169921875, 0.05977706, 0.9005655, 0.13630009
376, 1769784634, 8.073909759521484, 54.615962982177734, 162.1857147216797, 0.17847928, 0.74053216, -0.41684055
377, 1769801301, 7.94854736328125, 54.130977630615234, 162.0296630859375, 0.20397566, 0.6018985, -0.59648037
378, 1769817968, 7.661839008331299, 53.680335998535156, 161.77947998046875, -0.15269533, 0.6511016, -0.04573822
379, 1769834635, 7.31076717376709, 53.21059036254883, 161.4498748779297, -0.4719494, 0.3864562, 0.23474216
380, 1769851302, 6.876147747039795, 52.71010208129883, 161.04515075683594, -0.40505677, 0.24092764, 0.32874584
381, 1769867969, 6.419824123382568, 52.197654724121094, 160.58721923828125, 0.18934028, 0.13276525, 0.13859558
382, 1769884636, 6.0172438621521, 51.70451736450195, 160.11053466796875, 0.6306238, 0.46660838, -0.044934273
383, 1769901303, 5.62341833114624, 51.213558197021484, 159.6054229736328, 0.66755086, 0.9036797, -0.12723827
384, 1769917970, 5.372032165527344, 50.79407501220703, 159.09280395507812, 0.77458495, 0.85128313, -0.3125887
385, 1769934637, 5.205923557281494, 50.4422607421875, 158.51759338378906, 0.6007228, 0.7320274, -0.26905537
386, 1769951304, 5.208841800689697, 50.082340240478516, 157.9073486328125, 0.3162869, 0.36217815, 0.14736748
387, 1769967971, 5.3502583503723145, 49.606693267822266, 157.29611206054688, 0.12145786, -0.118194826, 0.71708775
388, 1769984638, 5.44113302230835, 49.01777267456055, 156.6228790283203, -0.17340375, 0.0052372995, 1.6185417
389, 1770001305, 5.614097595214844, 48.241188049316406, 155.96896362304688, -0.8627392, 0.293201, 2.7346916
390, 1770017972, 6.019489288330078, 47.223533630371094, 155.3859100341797, -1.6013765, 1.0858088, 3.0793676
391, 1770034639, 6.858950138092041, 46.03596115112305, 154.9191436767578, -1.1720023, 0.58279073, 2.117158
392, 1770051306, 7.815534591674805, 44.6291389465332, 154.59072875976562, -0.79526895, -0.045121007, 1.2557869
393, 1770067973, 8.820178031921387, 42.95078659057617, 154.26963806152344, -1.1020023, -0.16665657, 2.0520868
394, 1770084640, 9.640135765075684, 41.0789909362793, 153.8778076171875, -1.0160592, -0.03930721, 2.9107733
395, 1770101307, 10.500945091247559, 39.027671813964844, 153.4375762939453, -1.0885693, 0.34204432, 4.308099
396, 1770117974, 11.693583488464355, 36.76533508300781, 153.07037353515625, -1.0351347, 0.2376801, 4.260029
397, 1770134641, 12.862174034118652, 34.31291580200195, 152.88748168945312, -0.3412759, -0.50000685, 2.8225765
398, 1770151308, 13.875898361206055, 31.606407165527344, 152.8124237060547, -0.30809867, -1.6538591, 1.5762558
399, 1770167975, 14.611781120300293, 28.796422958374023, 152.87222290039062, 0.22408037, -1.6265365, 1.2886009
400, 1770184642, 15.148037910461426, 26.05408477783203, 152.94705200195312, 0.48725304, -0.90713024, 2.0875435
401, 1770201309, 15.569513320922852, 23.341760635375977, 153.0351104736328, 1.0273399, -0.82555765, 1.8627787
402, 1770217976, 15.774969100952148, 20.583454132080078, 153.15670776367188, 1.1132854, -0.8106522, 1.1665344
403, 1770234643, 15.835100173950195, 17.749832153320312, 153.31613159179688, 0.87565976, -0.97235847, 1.1707277
404, 1770251310, 15.66146469116211, 14.762591361999512, 153.55665588378906, 1.2594819, -1.7739923, -1.1146564
405, 1770267977, 15.318169593811035, 11.72382926940918, 153.84286499023438, 1.4728245, -1.4389212, -1.101718
406, 1770284644, 15.01220989227295, 8.848549842834473, 154.1157989501953, 1.8028257, -0.71570116, -0.6897173
407, 1770301311, 14.933513641357422, 5.947657585144043, 154.24896240234375, 2.2300618, -0.5404745, -0.33980465
408, 1770317978, 14.80908489227295, 3.1868703365325928, 154.5038299560547, 2.1599758, -1.4038725, -2.365049
409, 1770334645, 14.473881721496582, 0.6022265553474426, 154.8512420654297, 1.3567488, -1.3057954, -2.6401277
410, 1770351312, 14.046001434326172, -1.756534457206726, 155.2021484375, 1.0862257, -0.8310293, -1.9949279
411, 1770367979, 13.677177429199219, -3.9331512451171875, 155.49081420898438, 1.3072999, -0.1347183, -1.7070465
412, 1770384646, 13.51885986328125, -6.061670303344727, 155.68299865722656, 1.5388682, -0.05549839, -1.2025604
413, 1770401313, 13.381976127624512, -8.00440788269043, 155.85134887695312, 0.72180086, -0.1134528, -2.377059
414, 1770417980, 13.16661548614502, -9.716516494750977, 156.0885467529297, -0.10049141, -0.30344993, -3.508109
415, 1770434647, 12.962053298950195, -11.193166732788086, 156.3313446044922, 0.063874446, 0.3066828, -1.7894268
416, 1770451314, 13.03275203704834, -12.419480323791504, 156.54037475585938, -0.0055118157, 0.88193566, -2.0494246
417, 1770467981, 13.259317398071289, -13.481271743774414, 156.71636962890625, 0.12138173, 1.0438755, -1.9927797
418, 1770484648, 13.434469223022461, -14.394627571105957, 156.89186096191406, -1.0207187, 0.46601927, -3.5683136
419, 1770501315, 13.59043025970459, -14.89282512664795, 157.15977478027344, -2.1888409, 0.8884109, -3.1398692
420, 1770517982, 13.862724304199219, -14.923324584960938, 157.4866180419922, -2.6844902, 1.1187396, -3.411129
421, 1770534649, 14.038368225097656, -14.691262245178223, 157.88877868652344, -2.1788077, 0.8320002, -3.6957026
422, 1770551316, 14.153554916381836, -14.291471481323242, 158.28466796875, -2.49761, 0.9025452, -2.8065586
423, 1770567983, 14.297829627990723, -13.925070762634277, 158.62841796875, -2.010718, 0.6051237, -1.0861588
424, 1770584650, 14.642480850219727, -13.658329010009766, 158.88623046875, -1.6033088, 0.48770443, -0.8478441
425, 1770601317, 14.982519149780273, -13.375785827636719, 159.0586395263672, -2.4815173, 0.80061924, -1.7907343
426, 1770617984, 15.288774490356445, -13.027006149291992, 159.1524200439453, -2.761699, 1.2173347, -1.4583683
427, 1770634651, 15.41627025604248, -12.723773956298828, 159.17807006835938, -1.9967251, 1.1270593, -0.6615696
428, 1770651318, 15.287325859069824, -12.3812255859375, 159.1086883544922, -1.6552292, 0.48528793, -0.6324539
429, 1770667985, 15.220630645751953, -11.912188529968262, 159.0126953125, -1.6090138, 0.45475695, -1.0951204
430, 1770684652, 15.284249305725098, -11.389068603515625, 158.91432189941406, -1.0126091, 1.0884329, -1.3367872
431, 1770701319, 15.424127578735352, -10.851024627685547, 158.81301879882812, -0.19089857, 1.2126838, -0.6374674
432, 1770717986, 15.56899642944336, -10.286242485046387, 158.73509216308594, -0.014995792, 0.6491936, -0.5874138
433, 1770734653, 15.704070091247559, -9.688836097717285, 158.71705627441406, -0.102257915, 0.024590407, -0.7145138
434, 1770751320, 15.815712928771973, -9.087054252624512, 158.71556091308594, 0.012837467, -0.07715649, -1.0973549
435, 1770767987, 15.80942440032959, -8.45982837677002, 158.69515991210938, 0.39000317, -0.041978255, -1.1054535
436, 1770784654, 15.673271179199219, -7.734836578369141, 158.65493774414062, 0.7183057, 0.0826209, -0.7028923
437, 1770801321, 15.592109680175781, -6.960232257843018, 158.5586395263672, 0.7380184, 0.0529315, -0.35577202
438, 1770817988, 15.528271675109863, -6.11747407913208, 158.49220275878906, 0.5211008, -0.33662665, -0.7212877
439, 1770834655, 15.467463493347168, -5.1893696784973145, 158.49790954589844, 0.4655589, -0.52429175, -0.63374615
440, 1770851322, 15.486251831054688, -4.1999006271362305, 158.52359008789062, 0.47018734, -0.3427451, -0.66125965
441, 1770867989, 15.497590065002441, -3.0953519344329834, 158.49696350097656, 0.46101534, 0.23752812, -0.5934582
442, 1770884656, 15.53418254852295, -1.8335685729980469, 158.4034423828125, 0.44145212, 0.71534956, -0.5636921
443, 1770901323, 15.617581367492676, -0.44616395235061646, 158.31158447265625, 0.4233516, 0.5622364, -0.7270155
444, 1770917990, 15.819828033447266, 0.9514368176460266, 158.20956420898438, 0.5924497, 0.19364351, -0.6816616
445, 1770934657, 16.058095932006836, 2.3275725841522217, 158.07974243164062, 0.7305567, -0.081440255, -0.7409563
446, 1770951324, 16.25141716003418, 3.7815206050872803, 157.90032958984375, 0.62065, 0.23065172, -0.7500801
447, 1770967991, 16.437402725219727, 5.2784552574157715, 157.60067749023438, 0.6237511, 0.70306706, -0.19719505
448, 1770984658, 16.58776092529297, 6.756463050842285, 157.18136596679688, 0.6185226, 0.93852186, 0.26942062
449, 1771001325, 16.646072387695312, 8.314260482788086, 156.752197265625, 0.35096383, 0.37981772, -0.42352104
450, 1771017992, 16.687931060791016, 10.026252746582031, 156.433837890625, 0.17076479, -0.23382531, -1.0835648
451, 1771034659, 16.650836944580078, 11.872284889221191, 156.18223571777344, 0.27681527, 0.1025381, -0.9233036
452, 1771051326, 16.52933692932129, 13.76731014251709, 155.8666229248047, 0.5902893, 0.90225977, 0.64140415
453, 1771067993, 16.45063018798828, 15.5523099899292, 155.3228759765625, 1.1134793, 1.3117851, 2.045704
454, 1771084660, 16.26225471496582, 17.45549774169922, 154.7153778076172, 0.4412126, -0.76155055, -1.3973475
455, 1771101327, 15.797626495361328, 19.664424896240234, 154.31561279296875, -0.31920782, -1.5637159, -2.3142414
456, 1771117994, 15.058147430419922, 22.002450942993164, 154.12144470214844, -0.059711907, -1.1626694, -1.4955711
457, 1771134661, 14.180866241455078, 24.27556800842285, 153.99136352539062, 0.9304866, -0.5769388, 0.5358076
458, 1771151328, 13.421402931213379, 26.366268157958984, 153.7381134033203, 1.8370333, 0.31587276, 2.2484732
459, 1771167995, 12.817733764648438, 28.31963539123535, 153.25978088378906, 1.4298929, 0.9714491, 2.7658052
460, 1771184662, 12.440699577331543, 30.17597770690918, 152.67185974121094, 0.08050529, 1.9040014, 3.2443476
461, 1771201329, 12.250556945800781, 31.843263626098633, 152.00645446777344, -0.6650446, 1.9176209, 2.8543692
462, 1771217996, 12.176717758178711, 33.41095733642578, 151.42527770996094, -1.0432857, -0.13217634, 1.7788029
463, 1771234663, 12.5711088180542, 34.73637390136719, 151.20025634765625, -1.6645106, -2.1893833, 3.2146864
464, 1771251330, 13.091232299804688, 35.454551696777344, 151.26458740234375, -2.6252692, -3.43762, 3.2149334
465, 1771267997, 12.983489036560059, 35.86726760864258, 151.53460693359375, -3.0754583, -2.283027, 2.0234985
466, 1771284664, 12.432000160217285, 36.39210510253906, 151.90451049804688, -2.7761824, -0.04250328, 0.3001938
467, 1771301331, 11.95916748046875, 37.17169952392578, 152.30767822265625, -1.124702, 0.59889483, -2.574686
468, 1771317998, 11.838005065917969, 38.4913330078125, 152.84536743164062, 0.9863378, -1.5331652, -5.144212
469, 1771334665, 11.68666934967041, 40.25052261352539, 153.47349548339844, 2.3871665, -4.165766, -5.2837706
470, 1771351332, 11.257131576538086, 42.447120666503906, 154.11607360839844, 2.8771658, -4.3078537, -4.8566427
471, 1771367999, 10.966768264770508, 44.91468811035156, 154.7547149658203, 3.8733208, -2.9874127, -4.969402
472, 1771384666, 10.610300064086914, 47.58338165283203, 155.34877014160156, 3.077873, -1.5378683, -3.7259817
473, 1771401333, 10.307924270629883, 50.21455383300781, 156.1505584716797, 0.22024462, 0.8462618, 0.7619791
474, 1771418000, 10.233314514160156, 52.565731048583984, 157.022705078125, -2.1402004, 3.0911272, 5.17704
475, 1771434667, 10.472330093383789, 54.424781799316406, 158.0028839111328, -3.4894824, 2.758245, 6.5946846
476, 1771451334, 10.77173900604248, 55.73341751098633, 159.1544647216797, -3.4501178, 1.384087, 6.0378704
477, 1771468001, 10.964045524597168, 56.535037994384766, 160.14590454101562, -2.1313314, 1.536701, 5.0037985
478, 1771484668, 11.221623420715332, 56.92815399169922, 160.891357421875, -0.2347271, 2.232709, 3.8391
479, 1771501335, 11.629315376281738, 56.96527099609375, 161.48202514648438, 0.214149, 2.5565608, 3.1475096
480, 1771518002, 11.898050308227539, 56.78200912475586, 161.95504760742188, -0.33118686, 2.1911383, 2.2622404
481, 1771534669, 11.86899185180664, 56.489906311035156, 162.27256774902344, -0.5217318, 2.1810935, 2.0857687
482, 1771551336, 11.74972152709961, 56.0116081237793, 162.3870086669922, -0.48490945, 2.3443356, 2.2083168
483, 1771568003, 11.709897994995117, 55.27960968017578, 162.25416564941406, -0.65748197, 2.7925513, 2.290944
484, 1771584670, 11.847643852233887, 54.30443572998047, 161.95883178710938, -0.3865449, 2.150595, 1.8039322
485, 1771601337, 11.965402603149414, 53.21014404296875, 161.53823852539062, -0.10445236, 1.7500117, 1.0893049
486, 1771618004, 12.069101333618164, 52.10426712036133, 160.96572875976562, 0.28641918, 0.71709627, 0.583436
487, 1771634671, 12.030279159545898, 50.968624114990234, 160.2943878173828, 0.09242431, 0.28933522, 0.7607527
488, 1771651338, 11.859944343566895, 49.78099822998047, 159.54139709472656, -0.21650915, 0.6392081, 1.0533457
489, 1771668005, 11.616887092590332, 48.5218620300293, 158.7041015625, -0.017506987, 1.1972932, 1.1477633
490, 1771684672, 11.502143859863281, 47.17314529418945, 157.7714385986328, -0.13257442, 1.5225385, 1.299511
491, 1771701339, 11.490633964538574, 45.79281997680664, 156.85122680664062, 0.29628837, 1.3729826, 0.6740465
492, 1771718006, 11.639786720275879, 44.430641174316406, 155.9656524658203, 0.7272461, 0.7446168, 0.10949898
493, 1771734673, 12.0244722366333, 43.08218002319336, 155.0914306640625, 0.6495975, 0.5565495, 0.41095448
494, 1771751340, 12.67833137512207, 41.688716888427734, 154.18060302734375, 0.49883795, 0.43190527, 1.045907
495, 1771768007, 13.422194480895996, 40.17631530761719, 153.21371459960938, 0.42360175, 0.11571176, 1.2837152
496, 1771784674, 14.218255996704102, 38.6220588684082, 152.28126525878906, 0.20330252, 0.08892474, 1.0824966
497, 1771801341, 15.048218727111816, 37.089839935302734, 151.4583740234375, 0.33487016, -0.4379418, -0.26846504
498, 1771818008, 15.779726028442383, 35.547523498535156, 150.68858337402344, -0.008401684, -0.24427575, 0.10368538
499, 1771834675, 16.379093170166016, 34.06031799316406, 149.8711395263672, -0.0019422717, 0.17230429, 0.67989826
500, 1771851342, 16.823463439941406, 32.546443939208984, 149.06997680664062, 0.0872475, -0.5415769, 1.389534
501, 1771868009, 17.32372283935547, 30.827655792236328, 148.40283203125, -0.09251626, -1.500622, 1.5012798
502, 1771884676, 17.792367935180664, 28.85723876953125, 147.8951873779297, -0.24128939, -1.6716079, 1.7442923
503, 1771901343, 18.052648544311523, 26.76647186279297, 147.44349670410156, -0.07550217, -1.5727357, 1.6038666
504, 1771918010, 18.083751678466797, 24.636228561401367, 147.03170776367188, -4.7440626E-5, -1.3853662, 1.8975096
505, 1771934677, 18.01995086669922, 22.473899841308594, 146.79490661621094, 0.18172419, -1.6836871, 0.7022352
506, 1771951344, 18.042272567749023, 20.350460052490234, 146.75326538085938, 0.40500632, -1.1604843, 0.7751579
507, 1771968011, 18.14851951599121, 18.181638717651367, 146.77728271484375, 0.8957198, -0.86853313, 0.47823524
508, 1771984678, 18.230789184570312, 15.992158889770508, 146.74703979492188, 0.9620925, -0.6855858, 0.40949154
509, 1772001345, 18.398563385009766, 13.816770553588867, 146.6993408203125, 0.7520589, -0.7196003, -0.41533375
510, 1772018012, 18.575580596923828, 11.693657875061035, 146.68307495117188, 0.6175784, -1.0458353, -1.1082716
511, 1772034679, 18.73308563232422, 9.617147445678711, 146.73516845703125, 0.79520357, -0.65122026, -0.785758
512, 1772051346, 18.96038055419922, 7.581570625305176, 146.72593688964844, 0.69840866, -0.22041546, -0.25176716
513, 1772068013, 19.033002853393555, 5.658351898193359, 146.7718963623047, 0.4053126, -0.8509421, -2.3693972
514, 1772084680, 18.834829330444336, 3.747995138168335, 146.9015350341797, 0.27174622, -1.2075945, -2.0474768
515, 1772101347, 18.736310958862305, 1.7577317953109741, 146.9935760498047, 0.86796606, -0.46610203, -0.23993683
516, 1772118014, 18.68686866760254, -0.2760184407234192, 147.0479736328125, 0.88209486, -0.3870151, -1.1733484
517, 1772134681, 18.389724731445312, -2.1217684745788574, 147.13824462890625, 0.41168237, -0.413438, -1.493022
518, 1772151348, 18.048995971679688, -3.7639055252075195, 147.185791015625, -0.37873575, -0.63545626, -1.2404451
519, 1772168015, 17.544090270996094, -5.120623588562012, 147.3948211669922, -0.32853034, -0.52431834, -1.5589428
520, 1772184682, 16.912996292114258, -6.184564113616943, 147.7080535888672, -0.13063474, -0.151159, -2.5259852
521, 1772201349, 16.04385757446289, -6.774635314941406, 148.11741638183594, -0.11819454, -0.64107496, -3.7789187
522, 1772218016, 14.928715705871582, -6.991671562194824, 148.52487182617188, -0.23320362, -0.07112009, -3.4842615
523, 1772234683, 13.867270469665527, -6.797307014465332, 148.94496154785156, -0.069420844, 0.4660814, -2.9781404
524, 1772251350, 13.201425552368164, -6.093749046325684, 149.44741821289062, 0.6110637, 0.44279492, -1.5913115
525, 1772268017, 12.733319282531738, -4.7363762855529785, 150.0596466064453, -0.14746846, 0.9047522, -3.4528131
526, 1772284684, 12.429797172546387, -2.868722915649414, 150.74429321289062, -2.5645404, 2.3305905, -2.9700117
527, 1772301351, 12.490690231323242, -1.1234532594680786, 151.4539337158203, -3.2612553, 1.7848378, -1.9766507
528, 1772318018, 12.868611335754395, 0.20675474405288696, 152.1580047607422, -2.7444973, 1.0027086, -0.96314144
529, 1772334685, 13.491849899291992, 0.8324097990989685, 152.627685546875, -2.9689553, 0.8483511, -0.19110966
530, 1772351352, 14.157146453857422, 0.7970902919769287, 152.72079467773438, -2.561905, 1.025577, 0.74089813
531, 1772368019, 14.803053855895996, 0.2326095700263977, 152.48773193359375, -1.5624213, 1.258665, 0.9735594
532, 1772384686, 15.168972969055176, -0.5151248574256897, 152.06942749023438, -1.3457966, 1.0339416, -0.11159229
533, 1772401353, 15.366767883300781, -1.0598689317703247, 151.65814208984375, -1.2460107, 0.73570275, -1.2343016
534, 1772418020, 15.44777774810791, -1.2308883666992188, 151.3338623046875, -0.18212685, 0.85281014, -0.49854374
535, 1772434687, 15.294339179992676, -1.2105211019515991, 151.0377655029297, 0.35329846, 0.60859925, -0.21683407
536, 1772451354, 15.163653373718262, -1.227224588394165, 150.7333984375, 0.47827005, 0.29289255, -0.90682125
537, 1772468021, 15.011601448059082, -1.3036139011383057, 150.4142303466797, 0.5993118, 0.39977062, -1.1066341
538, 1772484688, 14.625810623168945, -1.333838701248169, 150.0950164794922, 0.37301832, 0.28032544, -0.19386578
539, 1772501355, 14.319113731384277, -1.2957051992416382, 149.80819702148438, 0.4701798, 0.11242798, 0.012527466
540, 1772518022, 14.030488967895508, -1.1090279817581177, 149.5828094482422, 0.5916024, 0.4563933, -0.53722477
541, 1772534689, 13.589980125427246, -0.5616686940193176, 149.4474639892578, 0.7467928, 0.22280204, -0.8024883
542, 1772551356, 13.343071937561035, 0.011651449836790562, 149.2412872314453, 0.70906913, 0.13451636, -0.874074
543, 1772568023, 13.23427963256836, 0.6054796576499939, 149.0019989013672, 0.68236303, 0.29631203, -0.85877514
544, 1772584690, 13.292710304260254, 1.2565202713012695, 148.71607971191406, 0.48794818, 0.4294001, -0.3871851
545, 1772601357, 13.48831558227539, 2.0004804134368896, 148.4312286376953, 0.2629544, 0.29526785, -0.13703251
546, 1772618024, 13.760788917541504, 2.873844861984253, 148.21119689941406, 0.1639599, 0.18102765, -0.087563515
547, 1772634691, 14.060281753540039, 3.7873382568359375, 148.02337646484375, 0.2621981, 0.15253094, 0.07342148
548, 1772651358, 14.289482116699219, 4.665388584136963, 147.8185577392578, 0.18708906, 0.025466193, 0.03534031
549, 1772668025, 14.543445587158203, 5.416044235229492, 147.54376220703125, 0.23917504, -0.015186615, 0.89263535
550, 1772684692, 14.877663612365723, 6.145793914794922, 147.23036193847656, -0.018244663, -0.087686054, 0.5666485
551, 1772701359, 15.235953330993652, 7.022881507873535, 146.99977111816406, -0.606643, -0.29230788, 0.045310974
552, 1772718026, 15.685041427612305, 8.062796592712402, 146.8919219970703, -0.7181127, -0.21704312, 0.11658859
553, 1772734693, 16.194778442382812, 9.129934310913086, 146.80841064453125, -0.57625, -0.037675902, 0.8491316
554, 1772751360, 16.7657413482666, 10.270874977111816, 146.80404663085938, -0.6920681, -0.43145707, 0.2923031
555, 1772768027, 17.111528396606445, 11.39210319519043, 146.92701721191406, -0.5379529, -0.8959097, -0.63360214
556, 1772784694, 17.08959197998047, 12.500578880310059, 147.11204528808594, -0.38537762, -0.86924124, -0.56880665
557, 1772801361, 16.900022506713867, 13.543636322021484, 147.34979248046875, -0.3469297, -0.9491168, -0.31087017
558, 1772818028, 16.92217254638672, 14.652239799499512, 147.64724731445312, -0.22793041, -0.72549254, -0.59366035
559, 1772834695, 16.87360191345215, 15.86607837677002, 147.93142700195312, -0.05182606, -0.56351125, -1.9999204
560, 1772851362, 16.505775451660156, 17.236217498779297, 148.2162322998047, 0.05518208, -0.2229262, -2.044157
561, 1772868029, 16.099803924560547, 18.64617156982422, 148.56809997558594, 0.0049614846, -0.52927494, -1.338377
562, 1772884696, 15.85081672668457, 20.06435775756836, 149.02102661132812, 0.46698278, -0.67648053, -0.5379219
563, 1772901363, 15.775431632995605, 21.506452560424805, 149.49411010742188, 1.1063788, -0.22756918, -0.5382652
564, 1772918030, 15.701579093933105, 23.08881950378418, 149.90625, 1.0963655, 0.017337285, -1.8485503
565, 1772934697, 15.564589500427246, 24.849382400512695, 150.2920379638672, 0.7312911, -0.20608887, -2.4928112
566, 1772951364, 15.40388298034668, 26.745223999023438, 150.72537231445312, 0.89315116, -0.7791385, -2.1441674
567, 1772968031, 15.254886627197266, 28.748191833496094, 151.2330322265625, 1.6463935, -0.9492724, -0.84159946
568, 1772984698, 15.031926155090332, 30.77865219116211, 151.68301391601562, 1.6826156, -0.6313418, -0.0023698807
569, 1773001365, 14.631694793701172, 32.858665466308594, 152.1204833984375, 0.9266195, -0.62978053, 0.21427822
570, 1773018032, 14.147515296936035, 34.99025344848633, 152.64627075195312, 0.053379532, -0.9681792, 0.61634827
571, 1773034699, 13.588081359863281, 37.11176681518555, 153.29779052734375, -0.19937213, -1.1091074, 1.0830002
572, 1773051366, 12.825721740722656, 39.16556930541992, 154.05398559570312, -0.07392551, -0.65272593, 1.6230078
573, 1773068033, 11.831679344177246, 41.15520095825195, 154.90496826171875, 0.051164854, -0.1180962, 1.4013758
574, 1773084700, 10.756546974182129, 43.1814079284668, 155.7638397216797, -0.17754425, 0.6668952, 1.0028687
575, 1773101367, 9.780787467956543, 45.19413757324219, 156.5338134765625, -0.34789982, 0.5564928, 0.904233
576, 1773118034, 9.343340873718262, 46.99637222290039, 157.32374572753906, -0.6989498, 0.43470582, 1.5344105
577, 1773134701, 9.443833351135254, 48.61937713623047, 158.0884246826172, -0.21230479, 1.1023715, 1.0316267
578, 1773151368, 9.863401412963867, 50.17300033569336, 158.82212829589844, -0.14374954, 1.4141535, 0.8291359
579, 1773168035, 10.189208030700684, 51.7225341796875, 159.5467529296875, -0.23093686, 0.37963971, 0.6783829
580, 1773184702, 10.079727172851562, 53.26897048950195, 160.30906677246094, -0.6012273, -1.0279489, 0.98067
581, 1773201369, 9.773122787475586, 54.63813781738281, 161.0989227294922, 0.07448583, -0.6141262, 1.7868099
582, 1773218036, 9.406394958496094, 55.72931671142578, 161.7813720703125, 0.17320852, 0.7463035, 2.4451838
583, 1773234703, 8.906559944152832, 56.6258430480957, 162.33465576171875, -0.47692034, 1.8978094, 2.5790377
584, 1773251370, 8.483720779418945, 57.378536224365234, 162.91458129882812, -1.1596267, 2.1530497, 2.8154154
585, 1773268037, 8.240256309509277, 57.735939025878906, 163.3445587158203, -0.6533059, 2.945931, 2.9022083
586, 1773284704, 8.243053436279297, 57.861114501953125, 163.57315063476562, -0.91157144, 2.4661508, 2.3186646
587, 1773301371, 8.4246826171875, 57.738033294677734, 163.61550903320312, -0.5777411, 2.5395386, 2.5021267
588, 1773318038, 8.622320175170898, 57.35294723510742, 163.45877075195312, -0.41087043, 2.277817, 2.4653673
589, 1773334705, 8.797304153442383, 56.756980895996094, 163.16989135742188, -0.26660603, 1.4336711, 1.8770552
590, 1773351372, 8.845281600952148, 56.00115966796875, 162.81321716308594, -0.42697325, 1.2241013, 1.695673
591, 1773368039, 8.701644897460938, 55.042625427246094, 162.2799530029297, -0.9706343, 1.4282802, 2.2228336
592, 1773384706, 8.495711326599121, 53.836124420166016, 161.64175415039062, -1.0084093, 1.2998687, 2.776802
593, 1773401373, 8.250771522521973, 52.42305374145508, 160.93601989746094, -0.6333369, 0.87224233, 2.659686
594, 1773418040, 8.074612617492676, 50.91746139526367, 160.25393676757812, -0.12789157, 0.82380044, 1.8070011
595, 1773434707, 8.04516887664795, 49.341983795166016, 159.57073974609375, 0.44619715, 0.96954757, 0.9263687
596, 1773451374, 8.222761154174805, 47.74536895751953, 158.82693481445312, 0.6870852, 1.6528573, 0.76237583
597, 1773468041, 8.560359954833984, 46.142333984375, 157.9501953125, 1.4880147, 1.4196341, 0.4883814
598, 1773484708, 9.072498321533203, 44.58749008178711, 157.0554962158203, 1.3383216, 0.1791239, -0.74943924
599, 1773501375, 9.594949722290039, 43.13570022583008, 156.20803833007812, 0.64415896, 0.037067723, -1.1826525
600, 1773518042, 10.138840675354004, 41.74965286254883, 155.28750610351562, 0.28057748, 0.5842238, 0.04842949
601, 1773534709, 10.69333267211914, 40.355445861816406, 154.32102966308594, 0.30315784, 1.0922601, 1.0410519
602, 1773551376, 11.473124504089355, 38.94056701660156, 153.45294189453125, 0.33681747, 1.1384429, 1.3108158
603, 1773568043, 12.617533683776855, 37.46143341064453, 152.6625518798828, 0.28103033, 0.5393147, 1.0100594
604, 1773584710, 13.957414627075195, 35.78388977050781, 151.83358764648438, -0.3095422, 0.25547904, 1.9418211
605, 1773601377, 15.234882354736328, 33.821231842041016, 150.89627075195312, -0.5357003, 0.90483534, 3.6433668
606, 1773618044, 16.384920120239258, 31.624691009521484, 149.849853515625, -0.18118921, 0.50517046, 3.956276
607, 1773634711, 17.24691390991211, 29.17282485961914, 148.88194274902344, -0.5438472, -0.79056925, 2.9618444
608, 1773651378, 17.813106536865234, 26.513078689575195, 148.1157684326172, -1.0425239, -1.9475315, 2.0796432
609, 1773668045, 18.14261245727539, 23.694475173950195, 147.5542449951172, -0.81820136, -2.4751236, 2.427907
610, 1773684712, 18.32617950439453, 20.865989685058594, 147.14515686035156, 0.19083542, -1.6606029, 2.4128456
611, 1773701379, 18.3687801361084, 18.0316219329834, 146.77630615234375, 1.1278173, -1.3791919, 0.67650986
612, 1773718046, 18.382965087890625, 15.16752815246582, 146.40907287597656, 1.4275633, -1.1358287, -0.79954624
613, 1773734713, 18.567039489746094, 12.331562995910645, 146.06394958496094, 1.1185751, -1.7079984, -1.4743137
614, 1773751380, 18.76878547668457, 9.523740768432617, 145.7874755859375, 1.3501935, -1.9408443, -1.3423796
615, 1773768047, 18.924787521362305, 6.854784965515137, 145.55520629882812, 1.4971535, -1.4593055, -0.629302
616, 1773784714, 19.115955352783203, 4.252080917358398, 145.3222198486328, 1.8817832, -1.3321328, -0.7698755
617, 1773801381, 19.297286987304688, 1.5784779787063599, 145.0480194091797, 1.4321882, -1.7537102, -1.8529339
618, 1773818048, 19.312101364135742, -0.8973480463027954, 144.8890838623047, 0.94963235, -1.0093621, -1.8700004
619, 1773834715, 19.17501449584961, -3.2998247146606445, 144.7503662109375, 0.86986417, -1.1506805, -1.3572454
620, 1773851382, 19.098670959472656, -5.633179187774658, 144.64320373535156, 0.5061262, -1.4054841, -1.0778284
621, 1773868049, 19.10150909423828, -7.888749122619629, 144.59812927246094, 1.2211298, -0.36163017, -0.6149759
622, 1773884716, 19.11178207397461, -10.126289367675781, 144.515869140625, 1.3551626, -0.13555376, -0.9041853
623, 1773901383, 19.121583938598633, -12.525989532470703, 144.4346466064453, 0.95680845, -0.8633298, -1.1057491
624, 1773918050, 19.227081298828125, -14.83134651184082, 144.3520965576172, 0.7421683, -0.44993305, -0.79653835
625, 1773934717, 19.244098663330078, -17.13089942932129, 144.1948699951172, 1.4171278, -0.01481835, -0.05066967
626, 1773951384, 19.29131317138672, -19.538389205932617, 143.90419006347656, 1.255018, -0.06715352, -0.6663189
627, 1773968051, 19.495285034179688, -21.498416900634766, 143.74270629882812, 1.5725054, -0.35681134, -1.6502361
628, 1773984718, 19.614402770996094, -23.198413848876953, 143.76177978515625, -0.13000245, 0.18353833, -4.043966
629, 1774001385, 19.467870712280273, -24.360509872436523, 143.9094696044922, -1.6354146, 0.87680453, -4.9578495
630, 1774018052, 19.48702049255371, -24.899795532226562, 144.1551513671875, -1.6441292, 1.6878777, -3.3391562
631, 1774034719, 19.885541915893555, -25.157384872436523, 144.46432495117188, -0.83672243, 1.451456, -2.2482495
632, 1774051386, 20.23593521118164, -25.110429763793945, 144.93263244628906, -2.5443878, 1.2716012, -3.3364258
633, 1774068053, 20.425363540649414, -24.858890533447266, 145.50892639160156, -4.074264, 1.4730463, -2.2765517
634, 1774084720, 20.71269989013672, -24.795820236206055, 145.8883819580078, -3.9889102, 1.2864051, -1.0692863
635, 1774101387, 21.18558692932129, -24.985641479492188, 145.91903686523438, -4.0331297, 1.2164195, -1.6584845
636, 1774118054, 21.617835998535156, -25.333200454711914, 145.71173095703125, -4.0207267, 1.3788188, -1.5790586
637, 1774134721, 21.838024139404297, -25.63581657409668, 145.33242797851562, -3.6097393, 1.2122991, -1.9319019
638, 1774151388, 21.990026473999023, -25.612688064575195, 144.89990234375, -3.6972566, 1.0711309, -3.3996782
639, 1774168055, 21.900381088256836, -25.108211517333984, 144.62220764160156, -3.2135155, 1.3388064, -3.8984227
640, 1774184722, 21.407577514648438, -24.156286239624023, 144.58407592773438, -2.515302, 1.5823095, -3.4900546
641, 1774201389, 20.714223861694336, -22.893192291259766, 144.64195251464844, -2.2053714, 1.1249366, -3.452961
642, 1774218056, 20.027549743652344, -21.507606506347656, 144.7246551513672, -1.831277, 0.47984856, -4.1256742
643, 1774234723, 19.140310287475586, -20.01253890991211, 144.8540802001953, -0.9595734, -0.043720532, -3.9245572
644, 1774251390, 18.044994354248047, -18.328123092651367, 145.02574157714844, -0.22201107, -0.4161396, -3.138359
645, 1774268057, 16.913368225097656, -16.341493606567383, 145.24642944335938, 0.09710234, -0.73024714, -3.0149455
646, 1774284724, 16.039676666259766, -14.038321495056152, 145.47314453125, 0.6226678, 0.050942346, -3.1010895
647, 1774301391, 15.318947792053223, -11.42115592956543, 145.7021484375, 0.9460062, 0.6692589, -3.216651
648, 1774318058, 14.641361236572266, -8.580328941345215, 145.97679138183594, 1.5355257, 0.19311382, -2.964806
649, 1774334725, 14.15112590789795, -5.695014476776123, 146.26177978515625, 2.2219696, -0.60670066, -2.3654408
650, 1774351392, 13.940903663635254, -2.7581193447113037, 146.45220947265625, 2.176024, -0.94180715, -1.6485586
651, 1774368059, 13.94304370880127, 0.28564631938934326, 146.51844787597656, 1.6517184, -0.9969006, -1.1063614
652, 1774384726, 14.033031463623047, 3.4084248542785645, 146.54429626464844, 1.2168669, -1.086378, -0.27135086
653, 1774401393, 14.076069831848145, 6.5359721183776855, 146.66090393066406, 1.0308157, -1.2728497, 0.26873493
654, 1774418060, 14.07401180267334, 9.622222900390625, 146.97265625, 1.2383621, -1.4025453, 1.3650703
655, 1774434727, 14.444351196289062, 12.57938289642334, 147.42247009277344, 1.5158582, -1.5788707, 3.0388298
656, 1774451394, 15.07059097290039, 15.805342674255371, 148.0318603515625, 1.2035546, -1.8173275, 0.9746275
657, 1774468061, 15.415164947509766, 19.290067672729492, 148.59495544433594, 1.5050932, -1.1431785, 0.20462799
658, 1774484728, 15.28899097442627, 22.763927459716797, 149.08319091796875, 1.5388261, -2.2169619, -0.7942114
659, 1774501395, 14.747529029846191, 26.176959991455078, 149.70651245117188, 1.4006456, -2.3591864, -0.1693058
660, 1774518062, 14.106802940368652, 29.50069808959961, 150.34228515625, 1.1756048, -0.19577411, 2.7581778
661, 1774534729, 13.500028610229492, 32.663978576660156, 150.83103942871094, 1.0460136, 0.3346532, 0.518198
662, 1774551396, 12.355888366699219, 36.23181915283203, 151.42694091796875, 1.4318982, 0.7012826, -1.5054636
663, 1774568063, 11.161624908447266, 39.79081344604492, 152.15032958984375, 1.312235, 0.4409709, 1.0887051
664, 1774584730, 10.330522537231445, 42.80927658081055, 152.9410858154297, 1.0700227, -0.97698385, 4.4521646
665, 1774601397, 9.78255558013916, 45.40149688720703, 153.64077758789062, 1.3364421, 0.12375141, 6.9227123
666, 1774618064, 8.92176342010498, 47.546653747558594, 154.0081787109375, -1.2845057, 1.4384816, 7.3746758
667, 1774634731, 8.086943626403809, 49.327396392822266, 154.63902282714844, -2.9708815, 1.8192028, 5.6052704
668, 1774651398, 7.570201873779297, 50.61191940307617, 155.57183837890625, -3.3836675, 2.0691478, 5.3597765
669, 1774668065, 7.29855489730835, 51.3438720703125, 156.35726928710938, -2.2537215, 2.857004, 5.111019
670, 1774684732, 7.439968109130859, 51.506919860839844, 156.8684539794922, -1.3236494, 2.8209844, 3.5130234
671, 1774701399, 8.406579971313477, 51.3515625, 157.36940002441406, -0.63536495, 2.3231792, 0.24322128
672, 1774718066, 9.512325286865234, 51.31724548339844, 157.78366088867188, 0.97075194, 0.91663873, -1.8834229
673, 1774734733, 10.165236473083496, 51.69712448120117, 158.0696258544922, 2.8973703, -1.3965809, -2.6211042
674, 1774751400, 10.484399795532227, 52.49259567260742, 158.3944854736328, 3.1484666, -3.9888783, -3.1859531
675, 1774768067, 10.323914527893066, 53.689517974853516, 158.83004760742188, 3.3083766, -4.430892, -3.3183823
676, 1774784734, 9.67233657836914, 55.253692626953125, 159.46682739257812, 2.5204518, -3.2415757, -2.684329
677, 1774801401, 8.108030319213867, 56.768333435058594, 160.2245635986328, 0.09663734, -1.3115083, -0.5799246
678, 1774818068, 5.865055084228516, 58.15536117553711, 160.86990356445312, -2.7983367, 1.2737749, 1.9250154
679, 1774834735, 3.9001922607421875, 59.216915130615234, 161.1966552734375, -3.8303504, 3.3307073, 4.5677586
680, 1774851402, 3.2303872108459473, 59.765289306640625, 161.56207275390625, -2.3160527, 4.436185, 5.225354
681, 1774868069, 3.3154048919677734, 59.849422454833984, 161.85208129882812, -1.3066835, 3.035002, 4.1826563
682, 1774884736, 3.5620388984680176, 59.62238311767578, 161.99534606933594, -0.5118233, 1.9502753, 2.5801802
683, 1774901403, 3.899517297744751, 59.21279525756836, 162.0547332763672, 0.09575893, 1.5243104, 1.3809175
684, 1774918070, 4.435442924499512, 58.61480712890625, 162.00755310058594, -0.19387232, 2.4543273, 1.7406559
685, 1774934737, 5.159943103790283, 57.821205139160156, 161.80615234375, -0.37231743, 2.5237265, 2.3384857
686, 1774951404, 6.089848041534424, 56.84065246582031, 161.49954223632812, -0.5814866, 2.0638056, 2.2919626
687, 1774968071, 7.261820316314697, 55.7021484375, 161.11538696289062, -0.16766469, 1.4836853, 1.4862452
688, 1774984738, 8.297470092773438, 54.51874923706055, 160.62277221679688, 0.16565152, 0.6800099, 1.3225012
689, 1775001405, 8.88901424407959, 53.22065734863281, 159.96363830566406, -0.09805153, -0.09965716, 1.9602423
690, 1775018072, 9.068289756774902, 51.77741622924805, 159.21905517578125, -0.551845, 0.33479828, 1.7712574
691, 1775034739, 8.811271667480469, 50.27233123779297, 158.34698486328125, -0.20381878, 1.2542297, 1.4950533
692, 1775051406, 8.218496322631836, 48.75152587890625, 157.26284790039062, 0.40142512, 1.4239999, 1.8754063
693, 1775068073, 7.608358860015869, 47.11292266845703, 156.1086883544922, 0.61925626, 1.2330025, 1.7313461
694, 1775084740, 7.285677433013916, 45.356788635253906, 154.9844207763672, 0.554888, 1.3485987, 1.4499769
695, 1775101407, 7.353501319885254, 43.494712829589844, 153.85316467285156, 0.3090729, 1.4467803, 1.5478344
696, 1775118074, 7.813582897186279, 41.53496170043945, 152.8008575439453, 0.44965369, 1.7043703, 1.9665308
697, 1775134741, 8.693197250366211, 39.48017883300781, 151.77130126953125, 0.5549165, 2.5012639, 2.569563
698, 1775151408, 10.259108543395996, 37.30900192260742, 150.74072265625, 0.88276666, 1.979006, 2.2691402
699, 1775168075, 12.309304237365723, 34.77727508544922, 149.709228515625, 0.42966354, 0.7549237, 2.1554966
700, 1775184742, 14.576422691345215, 32.01247024536133, 148.66131591796875, -0.15276283, 0.56013536, 2.985012
701, 1775201409, 16.735145568847656, 29.08034324645996, 147.6023406982422, -0.25643033, -0.47931924, 2.699006
702, 1775218076, 18.495773315429688, 25.91489601135254, 146.6770477294922, -0.37085912, -2.3316252, 2.132988
703, 1775234743, 19.688352584838867, 22.523271560668945, 145.9091033935547, 0.08165258, -3.0667331, 2.3342857
704, 1775251410, 20.273935317993164, 19.065135955810547, 145.1971435546875, 0.9460031, -1.9305755, 2.2799444
705, 1775268077, 20.449403762817383, 15.686463356018066, 144.4312286376953, 1.8273594, -1.135128, 1.7258291
706, 1775284744, 20.553800582885742, 12.307892799377441, 143.70860290527344, 2.3206408, -2.049866, 1.6235828
707, 1775301411, 20.701377868652344, 8.853276252746582, 143.12074279785156, 2.1773376, -3.1900299, 0.7621975
708, 1775318078, 20.755844116210938, 5.369657516479492, 142.72276306152344, 1.692818, -3.6796808, -1.1722536
709, 1775334745, 20.64215660095215, 1.8743627071380615, 142.45159912109375, 1.6382867, -3.205934, -1.6689892
710, 1775351412, 20.547624588012695, -1.3978806734085083, 142.22662353515625, 2.0887263, -2.1676667, -1.6722288
711, 1775368079, 20.57315444946289, -4.57362174987793, 141.95008850097656, 2.7994285, -1.9412775, -1.8048601
712, 1775384746, 20.757856369018555, -7.764841079711914, 141.65272521972656, 2.8474767, -1.6574785, -2.0832405
713, 1775401413, 21.02291488647461, -10.963842391967773, 141.3231201171875, 2.197301, -1.1617005, -2.6398354
714, 1775418080, 21.270410537719727, -13.995368957519531, 140.9320068359375, 0.9780614, -0.76986235, -2.968233
715, 1775434747, 21.53485679626465, -16.775449752807617, 140.53782653808594, 0.20326473, -1.0126212, -2.9406004
716, 1775451414, 21.81746482849121, -19.339282989501953, 140.22377014160156, 0.0948195, -0.95917815, -2.6365404
717, 1775468081, 22.175939559936523, -21.835203170776367, 139.94705200195312, 0.42640644, -0.84840244, -2.1525984
718, 1775484748, 22.360584259033203, -24.336332321166992, 139.69561767578125, -0.26359382, -0.7476123, -3.2219877
719, 1775501415, 22.384807586669922, -26.72401237487793, 139.44686889648438, -1.1016406, -0.27044526, -2.7815185
720, 1775518082, 22.303871154785156, -28.945890426635742, 139.26031494140625, -1.4519937, -0.045563284, -1.9948583
721, 1775534749, 22.240514755249023, -30.986604690551758, 139.10072326660156, -0.20973305, 0.117420465, -0.5628195
722, 1775551416, 22.396753311157227, -33.036712646484375, 138.88348388671875, 0.7868925, 0.45627657, -0.25792694
723, 1775568083, 22.694704055786133, -35.25983428955078, 138.61241149902344, -0.66689396, 0.34840193, -2.2307806
724, 1775584750, 22.891860961914062, -37.269317626953125, 138.5428466796875, -2.6326053, 0.73723185, -3.099382
725, 1775601417, 23.082521438598633, -38.97577667236328, 138.5980682373047, -2.7147346, 1.5903203, -2.1970139
726, 1775618084, 23.53390121459961, -40.3834114074707, 138.5166015625, -1.5567334, 2.024423, -1.2627144
727, 1775634751, 24.241724014282227, -41.729400634765625, 138.30027770996094, -1.3646008, 1.3962479, -1.3059425
728, 1775651418, 24.770475387573242, -42.930702209472656, 138.1831512451172, -2.6854, 0.7450679, -2.0293784
729, 1775668085, 24.920860290527344, -43.80628967285156, 138.2924346923828, -3.4823875, 0.85987985, -2.2545166
730, 1775684752, 24.723098754882812, -44.246944427490234, 138.6219940185547, -3.4642026, 1.7609954, -2.0806708
731, 1775701419, 24.626361846923828, -44.37840270996094, 138.9642791748047, -3.271465, 2.3124437, -2.1280556
732, 1775718086, 24.57815170288086, -44.29713439941406, 139.26390075683594, -3.4573665, 2.563948, -2.4933977
733, 1775734753, 24.37531852722168, -43.97243118286133, 139.67462158203125, -3.9353788, 2.3852084, -2.654962
734, 1775751420, 24.09328842163086, -43.34539794921875, 140.26358032226562, -3.9140315, 1.9975832, -2.7407165
735, 1775768087, 23.710351943969727, -42.43473815917969, 140.8481903076172, -3.47547, 1.4750175, -2.897533
736, 1775784754, 23.204153060913086, -41.25248336791992, 141.38223266601562, -2.93067, 1.1605029, -2.986483
737, 1775801421, 22.61848258972168, -39.80311584472656, 141.88270568847656, -2.463668, 1.0905693, -2.9661427
738, 1775818088, 21.950010299682617, -38.05684280395508, 142.40975952148438, -2.2409585, 1.1727204, -3.218948
739, 1775834755, 21.23093032836914, -35.981040954589844, 142.99240112304688, -1.9223391, 1.2182719, -3.4719486
740, 1775851422, 20.54483985900879, -33.62403106689453, 143.6283416748047, -1.4454855, 0.87994885, -3.4596763
741, 1775868089, 20.015377044677734, -31.052209854125977, 144.23590087890625, -0.82378906, 0.24825752, -3.429325
742, 1775884756, 19.663970947265625, -28.271053314208984, 144.765625, -0.24944554, -0.17116745, -3.4270172
743, 1775901423, 19.434545516967773, -25.2907657623291, 145.25308227539062, 0.16834699, -0.3158818, -3.361353
744, 1775918090, 19.26040267944336, -22.17725944519043, 145.76593017578125, 0.60056525, -0.556537, -3.177588
745, 1775934757, 19.109025955200195, -19.002655029296875, 146.32374572753906, 1.2583776, -0.9093394, -2.888116
746, 1775951424, 19.02490234375, -15.7594633102417, 146.84620666503906, 1.8283838, -1.2374774, -2.3802114
747, 1775968091, 19.033191680908203, -12.383033752441406, 147.24168395996094, 2.1387146, -1.0876777, -1.6728249
748, 1775984758, 19.070499420166016, -8.879378318786621, 147.4774169921875, 2.2909372, -0.63110566, -1.2131405
749, 1776001425, 19.034337997436523, -5.357855319976807, 147.6707305908203, 2.3468943, -0.63171756, -1.0524273
750, 1776018092, 18.967411041259766, -1.9927442073822021, 147.9235382080078, 2.734653, -1.1880329, -0.28337288
751, 1776034759, 19.117652893066406, 1.1246095895767212, 148.14537048339844, 3.4011447, -1.1094762, 1.9957829
752, 1776051426, 19.583898544311523, 4.141895294189453, 148.27772521972656, 2.862395, -0.8087446, 2.1959124
753, 1776068093, 20.055492401123047, 7.29745626449585, 148.57601928710938, 1.8023456, -1.7797948, 0.6031561
754, 1776084760, 20.337379455566406, 10.492403984069824, 149.07406616210938, 1.7933692, -2.24743, 0.45920467
755, 1776101427, 20.38018798828125, 13.68506908416748, 149.61888122558594, 1.7836453, -1.8943847, 1.9340496
756, 1776118094, 20.278879165649414, 16.75307846069336, 150.1093292236328, 1.6512126, -0.64197993, 4.02907
757, 1776134761, 19.887676239013672, 19.489887237548828, 150.42555236816406, 1.7186095, 0.78738797, 4.589201
758, 1776151428, 19.22694206237793, 21.998817443847656, 150.53707885742188, 1.7579004, 1.3242651, 2.8510084
759, 1776168095, 18.44965171813965, 24.652481079101562, 150.6348419189453, 1.1110831, 0.8322641, 0.7865114
760, 1776184762, 17.844715118408203, 27.427135467529297, 150.87684631347656, 0.56161594, 0.86642337, 1.0185671
761, 1776201429, 17.409250259399414, 30.064085006713867, 151.18572998046875, 0.2413917, 1.0552132, 2.5701895
762, 1776218096, 16.830242156982422, 32.273990631103516, 151.3429718017578, 0.26375306, 1.3360872, 3.7890568
763, 1776234763, 15.775558471679688, 34.18370819091797, 151.30606079101562, 0.41689646, 0.27748424, 2.4701347
764, 1776251430, 14.738390922546387, 36.110713958740234, 151.35174560546875, -0.6375247, -0.64241236, 1.2368097
765, 1776268097, 13.951136589050293, 37.99365997314453, 151.65313720703125, -1.2360995, -1.1092373, 1.0884066
766, 1776284764, 13.24129581451416, 39.555503845214844, 152.11105346679688, -0.98351073, -0.6682149, 2.3038635
767, 1776301431, 12.559307098388672, 40.745994567871094, 152.56211853027344, -0.5895557, 0.3179199, 3.4208822
768, 1776318098, 11.90499210357666, 41.684452056884766, 152.80543518066406, -0.5656045, 1.6261587, 3.6763668
769, 1776334765, 11.868303298950195, 42.36747741699219, 152.98968505859375, -1.1546271, 2.6475294, 3.3511028
770, 1776351432, 12.801557540893555, 42.75503921508789, 153.351318359375, -0.9007118, 1.7828345, 1.0597696
771, 1776368099, 13.944865226745605, 43.06947326660156, 153.8006591796875, 0.01573439, 0.29050845, -0.4953537
772, 1776384766, 14.624475479125977, 43.56306838989258, 154.1867218017578, 0.44727337, -1.3766022, -0.8971548
773, 1776401433, 14.901582717895508, 44.36082458496094, 154.58786010742188, 0.31929988, -2.3544238, -1.2009268
774, 1776418100, 14.894600868225098, 45.43868637084961, 154.97303771972656, 0.44241947, -2.300097, -2.3333669
775, 1776434767, 14.593170166015625, 46.83216094970703, 155.4091033935547, 1.0982354, -1.6932427, -1.8880548
776, 1776451434, 14.167731285095215, 48.122222900390625, 155.81106567382812, 0.33429778, -0.059409242, 0.6922312
777, 1776468101, 14.199610710144043, 49.12589645385742, 156.04592895507812, -0.43685892, 0.79985535, 0.7814417
778, 1776484768, 14.540412902832031, 50.110652923583984, 156.42298889160156, -0.16767584, 0.2823167, 0.25696087
779, 1776501435, 14.891942024230957, 51.09145736694336, 156.94012451171875, -0.6597228, -0.844766, 0.17657375
780, 1776518102, 15.18622875213623, 51.943145751953125, 157.4993896484375, 0.055323396, -1.0747175, 0.21505165
781, 1776534769, 15.116042137145996, 52.61932373046875, 158.0048370361328, 1.6097767, -0.5935196, 0.92508316
782, 1776551436, 14.969329833984375, 53.12224578857422, 158.6577606201172, 1.0148556, 0.43653455, 0.4254923
783, 1776568103, 14.524274826049805, 53.44247817993164, 159.31033325195312, -0.9497119, 1.277783, 1.2939672
784, 1776584770, 13.94152545928955, 53.57207489013672, 159.89801025390625, -1.4420896, 2.440835, 2.5098524
785, 1776601437, 13.621270179748535, 53.47828674316406, 160.33013916015625, -0.8651955, 3.2636647, 3.1549416
786, 1776618104, 13.649888038635254, 53.20701217651367, 160.6895294189453, -1.1067103, 2.7925382, 2.8683453
787, 1776634771, 13.72442626953125, 52.81431579589844, 160.9384307861328, -0.72730875, 2.091333, 2.4795942
788, 1776651438, 13.612262725830078, 52.297332763671875, 160.89901733398438, -0.48977187, 1.55662, 1.9698763
789, 1776668105, 13.468792915344238, 51.598262786865234, 160.6737060546875, -0.5213964, 0.93560034, 1.5589914
790, 1776684772, 13.402560234069824, 50.810646057128906, 160.47100830078125, 0.2728927, 1.1117253, 0.3777094
791, 1776701439, 13.432841300964355, 50.04843521118164, 160.23851013183594, 1.1090819, 1.0901619, -0.38266373
792, 1776718106, 13.487688064575195, 49.28952407836914, 159.8134307861328, 0.7798981, 1.7582117, 0.25405025
793, 1776734773, 13.598852157592773, 48.441349029541016, 159.17221069335938, 0.052850924, 1.9151064, 1.4159527
794, 1776751440, 13.677507400512695, 47.43677520751953, 158.41990661621094, -0.24273182, 1.2278708, 1.9297838
795, 1776768107, 13.680523872375488, 46.33934020996094, 157.6566619873047, -0.34026277, 0.69327044, 1.5940123
796, 1776784774, 13.682310104370117, 45.22700500488281, 156.91627502441406, -0.16687338, 0.7584072, 1.7226076
797, 1776801441, 13.740072250366211, 44.010318756103516, 156.1282958984375, 0.36768082, 0.8149857, 1.8769093
798, 1776818108, 13.858718872070312, 42.67381286621094, 155.30642700195312, 0.43196595, 0.6551455, 1.6349182
799, 1776834775, 14.139273643493652, 41.23950958251953, 154.54766845703125, 0.5203334, 0.09227185, 0.7080784
800, 1776851442, 14.506175994873047, 39.75718688964844, 153.85951232910156, 0.49712443, -0.25236925, 0.18295383
801, 1776868109, 14.922983169555664, 38.29539108276367, 153.2190704345703, 0.39754903, -0.10048477, 0.49350262
802, 1776884776, 15.393779754638672, 36.83707809448242, 152.59237670898438, 0.38413966, -0.40897512, 0.5114012
803, 1776901443, 15.871478080749512, 35.341644287109375, 151.99827575683594, 0.15691443, -0.8790105, 0.47577477
804, 1776918110, 16.212793350219727, 33.755985260009766, 151.47494506835938, 0.13707078, -1.1653036, 0.17289352
805, 1776934777, 16.35329246520996, 32.106876373291016, 150.9917755126953, 0.22037417, -0.7180831, 0.5748787
806, 1776951444, 16.402048110961914, 30.40226936340332, 150.4926300048828, 0.4210232, -0.61483914, 0.3403101
807, 1776968111, 16.34743881225586, 28.675071716308594, 150.02731323242188, 0.3656767, -0.86165845, 0.26944256
808, 1776984778, 16.284210205078125, 26.935762405395508, 149.61770629882812, 0.031453747, -1.1039995, 0.5837097
809, 1777001445, 16.33099365234375, 25.24239158630371, 149.36302185058594, -0.28101864, -0.81860584, 1.2339315
810, 1777018112, 16.474292755126953, 23.547494888305664, 149.25279235839844, 0.023349337, -0.7495406, 0.68422127
811, 1777034779, 16.7028865814209, 21.71367073059082, 149.1712188720703, 0.118904084, -0.85026515, 0.65371037
812, 1777051446, 17.013648986816406, 19.79058265686035, 149.0709686279297, 0.41806853, -0.720416, 0.6217861
813, 1777068113, 17.37565040588379, 17.851287841796875, 148.95928955078125, 0.33729792, -0.36698154, 0.8992758
814, 1777084780, 17.732650756835938, 15.902609825134277, 148.92962646484375, 0.24804792, -0.24453546, 0.5159855
815, 1777101447, 18.19955062866211, 14.010446548461914, 148.96359252929688, 0.23245068, 0.055386454, 0.29988384
816, 1777118114, 18.797067642211914, 12.119671821594238, 148.97645568847656, 0.46569103, -0.14854135, 0.05082035
817, 1777134781, 19.30146598815918, 10.209419250488281, 149.00909423828125, 0.32915467, -0.76435465, -1.1810026
818, 1777151448, 19.696514129638672, 8.260173797607422, 149.06651306152344, 0.3598282, -0.4660816, 0.09152126
819, 1777168115, 20.07126235961914, 6.221238136291504, 149.1461639404297, 0.68935704, -0.23580086, 0.8746252
820, 1777184782, 20.362140655517578, 4.108821392059326, 149.22323608398438, 0.84789217, -0.20587838, 0.60341644
821, 1777201449, 20.47493553161621, 2.006805419921875, 149.35931396484375, 0.94198215, -0.54846126, -0.5901003
822, 1777218116, 20.207006454467773, -0.12659209966659546, 149.51890563964844, 0.41276574, -1.311108, -1.9483738
823, 1777234783, 19.721521377563477, -2.1037232875823975, 149.74867248535156, -0.19745037, -1.3855454, -1.5603781
824, 1777251450, 19.114410400390625, -3.8143985271453857, 150.0647430419922, 0.049397454, -0.677964, -0.8123789
825, 1777268117, 18.625234603881836, -5.271065711975098, 150.4291229248047, 0.8646063, 0.1509032, -0.43850803
826, 1777284784, 18.214906692504883, -6.732868671417236, 150.71560668945312, 1.3625149, 0.16701281, -1.542182
827, 1777301451, 17.740463256835938, -8.074653625488281, 150.96681213378906, 0.3675209, -0.19296801, -2.3303175
828, 1777318118, 17.282978057861328, -9.098942756652832, 151.28912353515625, -0.16755736, -0.25171766, -1.800168
829, 1777334785, 17.090595245361328, -9.913980484008789, 151.644775390625, 0.2216958, 0.5344913, -0.69861794
830, 1777351452, 17.098068237304688, -10.579277038574219, 152.0511016845703, 0.31739375, 0.6213894, -1.7049036
831, 1777368119, 17.121915817260742, -11.088166236877441, 152.5351104736328, -0.190176, 0.43040782, -2.4486833
832, 1777384786, 17.154558181762695, -11.305874824523926, 153.1337432861328, -0.015261814, 0.5011868, -1.9867368
833, 1777401453, 17.132761001586914, -11.14765453338623, 153.80508422851562, -0.05714029, 0.6251143, -2.44144
834, 1777418120, 17.051000595092773, -10.560391426086426, 154.5601043701172, -1.2432951, 0.5799374, -3.1911807
835, 1777434787, 16.845415115356445, -9.717777252197266, 155.39585876464844, -2.0734632, 0.7314022, -1.8181701
836, 1777451454, 16.6569766998291, -8.935523986816406, 156.2122039794922, -2.205767, 0.08053633, -0.80990696
837, 1777468121, 16.512392044067383, -8.328383445739746, 156.8909149169922, -2.2028513, 0.40155235, -0.676589
838, 1777484788, 16.506275177001953, -8.286466598510742, 157.2978057861328, -2.2611363, 0.65802157, -0.25846004
839, 1777501455, 16.39666748046875, -8.782808303833008, 157.3459014892578, -2.027116, 0.7563211, 0.270792
840, 1777518122, 16.549053192138672, -9.64781379699707, 157.07740783691406, -1.84932, 0.48909506, -0.18447113
841, 1777534789, 16.83629608154297, -10.582788467407227, 156.70545959472656, -1.7772264, 0.7971413, -1.6360407
842, 1777551456, 16.980241775512695, -11.155975341796875, 156.42022705078125, -1.6921042, 1.2004591, -2.3507433
843, 1777568123, 16.874771118164062, -11.232979774475098, 156.1984100341797, -1.1600994, 1.2674501, -1.9161386
844, 1777584790, 16.672224044799805, -11.125626564025879, 155.97061157226562, -0.34398192, 0.75931495, -1.2618885
845, 1777601457, 16.546598434448242, -11.069502830505371, 155.6900177001953, 0.33948165, 0.45978808, -0.84297943
846, 1777618124, 16.517911911010742, -11.126993179321289, 155.3577423095703, 0.7743197, 0.60700417, -0.96369267
847, 1777634791, 16.36254119873047, -11.199187278747559, 155.0291290283203, 0.61866623, 0.47383344, -0.67066956
848, 1777651458, 15.97565746307373, -11.139628410339355, 154.75912475585938, 0.1688228, 0.46386373, -0.7235346
849, 1777668125, 15.323336601257324, -10.68665885925293, 154.5772247314453, 0.046197977, 0.3547646, -0.72186375
850, 1777684792, 14.769054412841797, -10.069555282592773, 154.4783172607422, 0.29062846, 0.121902175, -0.71538544
851, 1777701459, 14.405664443969727, -9.343659400939941, 154.41421508789062, 0.71812415, 0.4486696, -1.0433722
852, 1777718126, 14.211372375488281, -8.586847305297852, 154.25765991210938, 0.9147644, 0.8196023, -0.9183836
853, 1777734793, 14.183662414550781, -7.744685173034668, 154.0211944580078, 0.51212096, 0.6028731, -1.1565933
854, 1777751460, 14.299805641174316, -6.7405219078063965, 153.78465270996094, 0.024854766, 0.27219236, -1.434433
855, 1777768127, 14.468456268310547, -5.579954624176025, 153.63314819335938, -0.07927707, -0.04475755, -1.2715664
856, 1777784794, 14.706276893615723, -4.313512325286865, 153.57737731933594, 0.11411954, -0.15586685, -1.106924
857, 1777801461, 15.003993034362793, -2.9727623462677, 153.50279235839844, 0.52587926, -0.0013239511, -0.5551996
858, 1777818128, 15.265337944030762, -1.598766565322876, 153.3290252685547, 0.51212496, -0.02337687, -0.6450281
859, 1777834795, 15.52132511138916, -0.05184605345129967, 153.13475036621094, 0.10565114, -0.10058941, -1.0339813
860, 1777851462, 15.871806144714355, 1.689273476600647, 153.0468292236328, 0.0015025937, -0.32597047, -0.78021145
861, 1777868129, 16.480405807495117, 3.4468350410461426, 153.06063842773438, 0.38750827, -0.1395662, 0.27669907
862, 1777884796, 17.246273040771484, 5.2745161056518555, 153.13937377929688, 0.41795668, -0.16076918, -0.07575703
863, 1777901463, 17.8873233795166, 7.165153503417969, 153.23876953125, 0.22670375, -0.6908391, -0.8454237
864, 1777918130, 18.176536560058594, 9.068098068237305, 153.32156372070312, -0.13800083, -1.2749096, -0.86761665
865, 1777934797, 18.243309020996094, 10.973348617553711, 153.4833984375, -0.3949977, -1.2974006, -0.36007595
866, 1777951464, 18.390480041503906, 12.995025634765625, 153.73277282714844, -0.4922675, -0.9607338, -0.15778637
867, 1777968131, 18.389352798461914, 15.113258361816406, 153.99102783203125, -0.18727896, -1.1343696, -1.9603586
868, 1777984798, 17.494678497314453, 17.38353157043457, 154.22023010253906, 0.14970942, -1.4657786, -2.6101909
869, 1778001465, 15.944581985473633, 19.599302291870117, 154.68446350097656, -0.33072942, -1.9533975, 0.28218555
870, 1778018132, 14.777324676513672, 21.6412296295166, 155.3078155517578, 0.20520939, -1.7353802, 1.7512722
871, 1778034799, 14.36842155456543, 23.668094635009766, 155.7202911376953, 2.028469, 0.5706004, 0.20399666
872, 1778051466, 14.116339683532715, 25.855941772460938, 155.87319946289062, 2.2394, 2.6545622, -1.3724813
873, 1778068133, 14.352415084838867, 28.290327072143555, 156.16798400878906, 0.8131045, 1.4062897, -2.055129
874, 1778084800, 14.903501510620117, 30.809419631958008, 156.70782470703125, 0.678148, -0.16890441, -0.7480879
875, 1778101467, 15.16585636138916, 33.14817428588867, 157.36351013183594, 1.9638389, -1.1266161, 1.680273
876, 1778118134, 14.968653678894043, 35.198673248291016, 157.93109130859375, 1.7207925, -1.031662, 3.1653624
877, 1778134801, 14.38587760925293, 37.08275604248047, 158.44625854492188, -0.21313393, -1.0530182, 1.576087
878, 1778151468, 13.49855899810791, 39.12200927734375, 159.08843994140625, -0.8168736, -1.0022268, -0.24797535
879, 1778168135, 12.469902992248535, 41.28963088989258, 159.90908813476562, 0.22877412, -0.847067, 0.8073921
880, 1778184802, 11.627625465393066, 43.306785583496094, 160.89468383789062, 0.7267475, 0.040908627, 3.0953293
881, 1778201469, 11.223283767700195, 44.97697448730469, 161.89120483398438, 0.05793769, 1.7436008, 3.2002907
882, 1778218136, 11.118438720703125, 46.422061920166016, 162.58514404296875, -0.5154442, 2.8139007, 1.9703598
883, 1778234803, 11.14056396484375, 47.77006912231445, 162.9381103515625, -0.47696275, 2.1258385, 1.7341986
884, 1778251470, 11.334175109863281, 48.99734878540039, 163.2789306640625, -0.7928084, 0.38611478, 1.9888258
885, 1778268137, 11.683900833129883, 50.1312141418457, 163.9563751220703, -0.99728173, -1.7269323, 0.9961529
886, 1778284804, 11.87414264678955, 51.15512466430664, 164.79359436035156, 0.03136476, -1.7567647, 0.78932476
887, 1778301471, 11.645525932312012, 52.078948974609375, 165.38604736328125, 0.6683994, -0.1038135, 0.49594212
888, 1778318138, 11.178874969482422, 53.006771087646484, 165.79884338378906, 0.45309567, 1.3587905, 0.8415365
889, 1778334805, 10.89072322845459, 53.89973831176758, 166.24041748046875, -0.060015015, 1.5062822, 1.2760887
890, 1778351472, 10.938981056213379, 54.63874816894531, 166.6748504638672, -0.4724209, 1.5505937, 1.6283932
891, 1778368139, 11.095617294311523, 55.12245178222656, 166.92660522460938, -1.1321663, 2.4369378, 2.1355858
892, 1778384806, 11.407709121704102, 55.28648376464844, 167.0050811767578, -1.4698294, 2.4503698, 2.9219456
893, 1778401473, 11.740880966186523, 55.15718078613281, 166.94532775878906, -1.3323524, 2.0332284, 2.9382772
894, 1778418140, 11.944292068481445, 54.78558349609375, 166.73446655273438, -0.9117294, 1.8321513, 2.4876022
895, 1778434807, 12.01225757598877, 54.1690673828125, 166.33226013183594, -0.80527633, 1.8868378, 2.5387049
896, 1778451474, 12.025875091552734, 53.332698822021484, 165.80084228515625, -0.6626199, 1.796834, 2.5531693
897, 1778468141, 11.996712684631348, 52.30584716796875, 165.17276000976562, -0.4522095, 1.3717029, 2.1591463
898, 1778484808, 11.959851264953613, 51.17115020751953, 164.4663848876953, -0.10444062, 1.1808579, 1.4817514
899, 1778501475, 11.992203712463379, 50.00758743286133, 163.7379608154297, 0.49200064, 0.7274152, 0.7945528
900, 1778518142, 12.102855682373047, 48.8419303894043, 162.97604370117188, 0.8681119, 0.5474173, 0.47394657
901, 1778534809, 12.085725784301758, 47.67613220214844, 162.0852813720703, 0.85412693, 0.66714656, 0.50999355
902, 1778551476, 11.918648719787598, 46.4730339050293, 161.0913848876953, 0.29128817, 0.43500102, 1.1846533
903, 1778568143, 11.679140090942383, 45.23906326293945, 160.10963439941406, 0.2136289, 0.12069119, 1.4551487
904, 1778584810, 11.365951538085938, 43.933677673339844, 159.19583129882812, -0.02525227, 0.18589349, 2.3051462
905, 1778601477, 11.064004898071289, 42.465293884277344, 158.41970825195312, 0.096106015, 0.086955145, 1.9266233
906, 1778618144, 10.812424659729004, 40.90038299560547, 157.7528839111328, -0.15417832, 0.42658308, 1.5119505
907, 1778634811, 10.759672164916992, 39.220279693603516, 157.1333465576172, -0.33640897, 0.24714236, 1.3163595
908, 1778651478, 10.98336124420166, 37.35491943359375, 156.5401153564453, -0.385565, -0.18777373, 1.4801083
909, 1778668145, 11.39754581451416, 35.2810173034668, 155.96556091308594, -0.4329665, -0.018652435, 1.8681803
910, 1778684812, 11.972699165344238, 33.05373764038086, 155.38046264648438, -0.015917195, 0.6316542, 1.9063959
911, 1778701479, 12.834505081176758, 30.739734649658203, 154.76260375976562, 0.70802945, 0.17218745, 1.3424215
912, 1778718146, 13.997621536254883, 28.303802490234375, 154.1450653076172, 0.87892455, -0.6188602, 1.1850338
913, 1778734813, 15.353269577026367, 25.774112701416016, 153.58953857421875, 0.98961455, -1.0585676, 1.6970444
914, 1778751480, 16.688648223876953, 23.22576904296875, 153.0784912109375, 0.93940216, -1.059754, 1.8928633
915, 1778768147, 17.878904342651367, 20.678813934326172, 152.6050262451172, 0.67157537, -1.1560905, 1.5871763
916, 1778784814, 18.838340759277344, 18.049274444580078, 152.27200317382812, 0.48564583, -1.7545599, 0.7437048
917, 1778801481, 19.59716796875, 15.290963172912598, 152.0948944091797, 0.4961434, -1.6979564, 0.3639717
918, 1778818148, 20.1033878326416, 12.47735595703125, 151.98934936523438, 1.1100397, -1.0200398, -0.15971088
919, 1778834815, 20.398530960083008, 9.67572021484375, 151.84629821777344, 1.4651754, -0.55457497, -0.3969488
920, 1778851482, 20.571853637695312, 6.896571159362793, 151.64483642578125, 1.5645235, -0.50069165, -0.41054916
921, 1778868149, 20.651554107666016, 4.20070743560791, 151.3948211669922, 1.4023268, -0.70881647, -0.62811375
922, 1778884816, 20.544286727905273, 1.5416054725646973, 151.14939880371094, 1.6452838, -0.726888, -0.6164303
923, 1778901483, 20.209186553955078, -1.0084717273712158, 150.939697265625, 1.373526, -0.819168, -2.1210847
924, 1778918150, 19.726985931396484, -3.439478874206543, 150.76568603515625, 1.3781006, -0.7143333, -1.8237028
925, 1778934817, 19.373254776000977, -5.7519211769104, 150.57501220703125, 1.2149891, -0.55670667, -1.2290688
926, 1778951484, 19.16962242126465, -7.98344612121582, 150.3717498779297, 1.109746, -0.28411922, -1.0997047
927, 1778968151, 19.16585922241211, -10.15812873840332, 150.12295532226562, 0.9462053, -0.2229505, -1.1068001
928, 1778984818, 19.029701232910156, -12.170588493347168, 149.936767578125, 0.12034545, -0.37349233, -3.0555835
929, 1779001485, 18.71837615966797, -14.052855491638184, 149.8179931640625, -0.04153054, -0.27225313, -2.7765503
930, 1779018152, 18.576736450195312, -15.831260681152344, 149.64511108398438, 0.17839569, 0.06338894, -1.35186
931, 1779034819, 18.74451446533203, -17.552282333374023, 149.3409881591797, 0.91118973, 0.24495466, 0.33914375
932, 1779051486, 18.848129272460938, -19.378787994384766, 149.0289306640625, 0.049499024, -0.18043773, -2.0254064
933, 1779068153, 18.760581970214844, -21.050947189331055, 148.8258819580078, -1.0563798, -0.39015684, -2.9112
934, 1779084820, 18.648021697998047, -22.492502212524414, 148.74169921875, -0.9952158, 0.10320121, -2.1608977
935, 1779101487, 18.6831111907959, -23.59471893310547, 148.70362854003906, -0.6663671, 0.81034535, -1.9291444
936, 1779118154, 18.950851440429688, -24.300626754760742, 148.6630096435547, -0.7732156, 0.7887221, -2.744215
937, 1779134821, 19.056882858276367, -24.78998565673828, 148.72669982910156, -1.6148862, 0.3447975, -3.6821132
938, 1779151488, 18.85042953491211, -24.803604125976562, 149.0615692138672, -2.402958, 0.4318616, -4.229342
939, 1779168155, 18.7557315826416, -24.332435607910156, 149.53335571289062, -1.9909195, 0.97908396, -3.1600542
940, 1779184822, 18.904369354248047, -23.41108512878418, 150.083251953125, -1.6268936, 1.3673972, -2.26859
941, 1779201489, 19.11488914489746, -22.111146926879883, 150.7012481689453, -2.7959738, 1.4016422, -2.8389368
942, 1779218156, 19.258691787719727, -20.689533233642578, 151.3562774658203, -3.7266493, 1.2273444, -1.8935924
943, 1779234823, 19.656261444091797, -19.681316375732422, 151.79672241210938, -3.3944383, 0.9663655, -0.5179157
944, 1779251490, 20.16004753112793, -19.128108978271484, 151.87220764160156, -2.9805117, 0.6985673, -0.5707531
945, 1779268157, 20.62743377685547, -18.905101776123047, 151.62820434570312, -2.8509402, 0.3880312, -0.22143269
946, 1779284824, 20.895057678222656, -18.805652618408203, 151.2574005126953, -2.6548462, 0.114365295, -1.019002
947, 1779301491, 20.912324905395508, -18.513851165771484, 150.87123107910156, -2.3243856, -0.11763691, -2.1464028
948, 1779318158, 20.555389404296875, -17.897592544555664, 150.56968688964844, -1.7100662, -0.23798819, -2.1942291
949, 1779334825, 19.811397552490234, -17.01597023010254, 150.42364501953125, -0.9872269, -0.19192708, -1.5287323
950, 1779351492, 18.996231079101562, -15.994317054748535, 150.40963745117188, -0.17349336, -0.24954034, -1.348196
951, 1779368159, 18.21853256225586, -14.887097358703613, 150.45362854003906, 0.62628776, -0.07182899, -1.6449308
952, 1779384826, 17.47174072265625, -13.702997207641602, 150.491943359375, 0.91707736, 0.22475033, -1.6631756
953, 1779401493, 16.667198181152344, -12.362664222717285, 150.53256225585938, 0.6086825, 0.08263327, -1.6506357
954, 1779418160, 15.900157928466797, -10.742958068847656, 150.72486877441406, 0.8123457, -0.12278512, -1.3828535
955, 1779434827, 15.383795738220215, -8.993014335632324, 151.03912353515625, 1.1642984, -0.3156365, -0.8992243
956, 1779451494, 15.21590805053711, -7.19389009475708, 151.34902954101562, 1.4184994, -0.08225584, -0.1603384
957, 1779468161, 15.238332748413086, -5.441366195678711, 151.57470703125, 1.1400094, 0.025434824, 0.18957138
958, 1779484828, 15.295151710510254, -3.7687408924102783, 151.74720764160156, 0.8316798, -0.14688647, 0.40261173
959, 1779501495, 15.442280769348145, -2.1448352336883545, 151.91883850097656, 0.77884895, -0.38809702, 0.49911213
960, 1779518162, 15.734231948852539, -0.5410281419754028, 152.0590057373047, 0.8076935, -0.25126824, 0.9230766
961, 1779534829, 16.083192825317383, 1.0437220335006714, 152.1552276611328, 0.63009506, -0.07762717, 1.2181969
962, 1779551496, 16.377138137817383, 2.639272451400757, 152.29727172851562, 0.43318933, -0.10065392, 1.2655287
963, 1779568163, 16.558685302734375, 4.170830249786377, 152.53363037109375, 0.48891044, -0.6824288, -0.005206108
964, 1779584830, 16.567163467407227, 5.8510966300964355, 152.82012939453125, 0.43242866, -0.8294596, -1.0428572
965, 1779601497, 16.44863510131836, 7.747568130493164, 153.09829711914062, 0.5373031, -0.5195625, -0.88177395
966, 1779618164, 16.330575942993164, 9.820140838623047, 153.36570739746094, 0.55481356, -0.19946483, -0.6547022
967, 1779634831, 16.22358512878418, 11.990939140319824, 153.64833068847656, 0.9023471, 0.4168995, 0.25698185
968, 1779651498, 16.32097816467285, 13.923019409179688, 153.88192749023438, 1.4589838, 1.125138, 2.1925087
969, 1779668165, 16.430131912231445, 15.824273109436035, 154.06541442871094, 1.5015723, 0.27531102, -1.3298197
970, 1779684832, 16.293275833129883, 18.04703712463379, 154.3096923828125, 0.7996582, 0.18924902, -2.8907962
971, 1779701499, 16.1687068939209, 20.490482330322266, 154.67074584960938, 0.34106886, -0.115102075, -2.4205403
972, 1779718166, 16.037620544433594, 22.91702651977539, 155.064208984375, 0.69498706, -0.43574739, -0.657712
973, 1779734833, 15.854665756225586, 25.184194564819336, 155.3263702392578, 1.5812956, -0.82892483, 1.1919508
974, 1779751500, 15.39944076538086, 27.340408325195312, 155.47640991210938, 1.6669972, -0.8485597, 1.4626856
975, 1779768167, 14.637261390686035, 29.552425384521484, 155.66070556640625, 0.73043126, -0.93892974, 0.4876423
976, 1779784834, 13.789299964904785, 31.89192008972168, 156.00807189941406, 0.26026034, -0.9914391, 0.43697166
977, 1779801501, 12.927322387695312, 34.17607498168945, 156.4627227783203, 0.38626602, -1.0668681, 1.6968985
978, 1779818168, 12.26224422454834, 36.16086196899414, 157.0800018310547, 0.02955998, -0.6064403, 3.0517902
979, 1779834835, 11.823086738586426, 37.80206298828125, 157.82012939453125, -0.9364104, 0.3558766, 3.4666157
980, 1779851502, 11.534587860107422, 39.2180290222168, 158.45883178710938, -1.5539083, 1.6190774, 3.7909946
981, 1779868169, 11.531388282775879, 40.35268783569336, 158.91912841796875, -1.7751474, 1.9183198, 3.6944675
982, 1779884836, 11.882089614868164, 41.23098373413086, 159.3836212158203, -1.4676129, 1.0273772, 2.564207
983, 1779901503, 12.509119033813477, 41.8720703125, 160.02471923828125, -1.5095416, 0.05330784, 1.2340136
984, 1779918170, 13.182965278625488, 42.370513916015625, 160.73345947265625, -1.0900097, -0.04632563, -0.100889206
985, 1779934837, 13.615254402160645, 42.96467208862305, 161.34701538085938, 0.2656989, 0.08610892, -0.7681656
986, 1779951504, 13.808813095092773, 43.73530960083008, 161.8917236328125, 1.521922, -0.9727188, -1.2251968
987, 1779968171, 13.815116882324219, 44.746429443359375, 162.5458526611328, 1.7316685, -2.3981457, -2.1203794
988, 1779984838, 13.706114768981934, 46.0482177734375, 163.4097900390625, 2.052772, -2.7279363, -2.8896208
989, 1780001505, 13.208114624023438, 47.66730499267578, 164.32098388671875, 2.24325, -1.8259327, -2.516852
990, 1780018172, 12.446015357971191, 49.52570343017578, 165.1871337890625, 1.4811642, -0.51131177, -1.5746689
991, 1780034839, 11.82262897491455, 51.42053985595703, 165.9860076904297, 0.5683928, 1.8714848, 0.47974014
992, 1780051506, 11.761216163635254, 52.88142013549805, 166.65065002441406, -1.1058277, 3.5362105, 3.6858244
993, 1780068173, 12.413993835449219, 53.790802001953125, 167.27273559570312, -2.5874283, 3.0623739, 4.4612675
994, 1780084840, 12.944281578063965, 54.361392974853516, 167.8463592529297, -2.1248643, 1.6787841, 3.4129448
995, 1780101507, 12.850770950317383, 54.73868179321289, 168.17730712890625, -1.1269568, -0.010256004, 2.3068237
996, 1780118174, 12.413246154785156, 54.981201171875, 168.26673889160156, 0.622654, 0.6659519, 1.5894928
997, 1780134841, 12.056406021118164, 55.0793342590332, 168.14356994628906, 1.3660904, 2.0063963, 1.1007404
998, 1780151508, 11.892142295837402, 55.08278274536133, 167.93646240234375, 0.6564338, 1.6716595, 0.93039894
999, 1780168175, 11.536852836608887, 55.00810241699219, 167.6785125732422, -0.29690602, 1.7516944, 1.3797512
1000, 1780184842, 10.961987495422363, 54.742000579833984, 167.20265197753906, -0.9987855, 1.9690855, 2.3714771
1001, 1780201509, 10.45775032043457, 54.18165969848633, 166.62083435058594, -1.2926805, 2.2680683, 2.982174
1002, 1780218176, 10.337523460388184, 53.32984161376953, 166.04840087890625, -0.6343997, 2.0832922, 2.417406
1003, 1780234843, 10.373939514160156, 52.40195083618164, 165.43711853027344, 0.8632929, 1.2026821, 1.0307102
1004, 1780251510, 10.45672607421875, 51.44044876098633, 164.6436309814453, 0.45083287, 1.3488835, 1.1628227
1005, 1780268177, 10.613658905029297, 50.33157730102539, 163.6989288330078, -0.39888328, 1.6219798, 1.9485741
1006, 1780284844, 10.802783966064453, 49.05259704589844, 162.64637756347656, -0.542323, 1.5038178, 2.1289558
1007, 1780301511, 11.021353721618652, 47.65576171875, 161.5961456298828, -0.42986125, 0.7099332, 1.6332865
1008, 1780318178, 11.291482925415039, 46.17005920410156, 160.6131591796875, -0.42495784, 0.18990582, 1.3709869
1009, 1780334845, 11.538093566894531, 44.61927032470703, 159.65292358398438, -0.026072871, 0.021014465, 1.237277
1010, 1780351512, 11.80398178100586, 42.99250411987305, 158.68150329589844, 0.35398507, 0.0011085125, 1.0405483
1011, 1780368179, 12.097954750061035, 41.363346099853516, 157.7208251953125, 0.7353734, -0.07031287, 0.14971638
1012, 1780384846, 12.45561408996582, 39.81718063354492, 156.81961059570312, 0.93489313, -0.42071837, -1.0332642
1013, 1780401513, 12.735142707824707, 38.42665481567383, 155.98863220214844, 0.85098445, -0.4372474, -1.7741137
1014, 1780418180, 12.929882049560547, 37.212303161621094, 155.19825744628906, 0.6197659, -0.41961747, -1.3257456
1015, 1780434847, 13.087138175964355, 36.05397415161133, 154.38702392578125, 0.46495345, -0.51689243, -0.13634968
1016, 1780451514, 13.229758262634277, 34.80232238769531, 153.59144592285156, 0.15441434, -0.22502033, 1.2975454
1017, 1780468181, 13.383139610290527, 33.48152160644531, 152.88702392578125, 0.14281298, 0.21125087, 0.8777456
1018, 1780484848, 13.718755722045898, 32.16970443725586, 152.29505920410156, -0.12043454, 0.740383, 0.75527763
1019, 1780501515, 14.563995361328125, 30.794790267944336, 151.70985412597656, 0.1516289, 0.33210573, 0.8783665
1020, 1780518182, 15.711947441101074, 29.298250198364258, 151.097412109375, 0.5695437, -0.27964142, 1.2915792
1021, 1780534849, 16.99333381652832, 27.558198928833008, 150.48728942871094, 0.37133208, -1.0120468, 1.8035355
1022, 1780551516, 18.181201934814453, 25.57000160217285, 149.9492645263672, -0.15374859, -1.252633, 2.073656
1023, 1780568183, 19.154294967651367, 23.470436096191406, 149.5036163330078, -0.39361385, -0.9265927, 2.2145195
1024, 1780584850, 19.824308395385742, 21.254322052001953, 149.10171508789062, -0.063219525, -0.8023179, 1.9848948
1025, 1780601517, 20.243078231811523, 18.900062561035156, 148.70013427734375, 0.2018174, -1.0165883, 1.5271778
1026, 1780618184, 20.517623901367188, 16.513259887695312, 148.35520935058594, 0.073318675, -1.3277724, 0.7651968
1027, 1780634851, 20.657066345214844, 14.126900672912598, 148.12615966796875, 0.094274245, -1.2326514, 0.3110361
1028, 1780651518, 20.7565975189209, 11.805517196655273, 148.00149536132812, 0.30040103, -0.84193027, 0.005355835
1029, 1780668185, 20.866296768188477, 9.635740280151367, 147.9853057861328, 0.8232885, -0.5701208, -0.6323137
1030, 1780684852, 21.000551223754883, 7.502705097198486, 147.97816467285156, 1.1140743, -0.760493, -1.2069626
1031, 1780701519, 21.2216739654541, 5.291172981262207, 147.9306640625, 1.0137365, -1.1656017, -0.9344492
1032, 1780718186, 21.510478973388672, 3.0978879928588867, 147.85047912597656, 0.7710337, -1.046311, -0.7401066
1033, 1780734853, 21.603769302368164, 0.9938722848892212, 147.8005828857422, 1.0997499, -0.54914594, -0.78960323
1034, 1780751520, 21.587318420410156, -1.1423125267028809, 147.71694946289062, 1.040941, -0.8120254, -1.1779327
1035, 1780768187, 21.586790084838867, -3.1909375190734863, 147.60572814941406, 0.83366317, -0.835958, -0.8182268
1036, 1780784854, 21.53437042236328, -5.107920169830322, 147.5670928955078, 0.45396358, -0.6763838, -1.2011747
1037, 1780801521, 21.399005889892578, -6.895099639892578, 147.6062469482422, 0.63242805, -0.12274773, -0.9524765
1038, 1780818188, 21.21769905090332, -8.658392906188965, 147.5987091064453, 0.75503916, -0.06821554, -1.2751837
1039, 1780834855, 21.01251983642578, -10.260838508605957, 147.5701904296875, 0.39832428, 0.010942831, -1.6592655
1040, 1780851522, 20.773454666137695, -11.726846694946289, 147.56825256347656, 0.560934, 0.34872928, -1.501193
1041, 1780868189, 20.5576229095459, -13.174819946289062, 147.512939453125, 0.33636427, 0.3009956, -1.3150806
1042, 1780884856, 20.359981536865234, -14.518279075622559, 147.43284606933594, -0.24364407, -0.011917963, -1.2276754
1043, 1780901523, 20.201648712158203, -15.667009353637695, 147.37095642089844, -0.01935896, 0.53965193, -0.9151554
1044, 1780918190, 20.19864273071289, -16.680543899536133, 147.2914581298828, 1.0438248, 0.8907835, -0.494318
1045, 1780934857, 20.35063362121582, -17.559070587158203, 147.24794006347656, 0.28892612, 0.60311717, -2.361302
1046, 1780951524, 20.35921287536621, -18.133419036865234, 147.24087524414062, -1.049183, 0.8213087, -3.2714128
1047, 1780968191, 20.289566040039062, -18.38591957092285, 147.3235321044922, -0.61073464, 0.47732455, -1.6482058
1048, 1780984858, 20.227933883666992, -18.46282958984375, 147.48373413085938, 0.34368074, 0.35229445, -2.4129858
1049, 1781001525, 20.046045303344727, -17.81965446472168, 147.85951232910156, -0.26904494, 0.7966801, -4.428376
1050, 1781018192, 19.71181297302246, -16.126039505004883, 148.71144104003906, -0.48763776, 0.31888884, -3.8942246
1051, 1781034859, 19.131427764892578, -13.859745025634766, 149.80067443847656, -2.81727, 1.3665236, -2.93407
1052, 1781051526, 18.619943618774414, -11.608515739440918, 150.94204711914062, -2.4077308, 0.44859412, -0.6907797
1053, 1781068193, 18.524965286254883, -10.391599655151367, 151.74388122558594, -2.9152582, -0.06816402, 1.2906876
1054, 1781084860, 18.957805633544922, -10.441803932189941, 151.84445190429688, -3.111771, 1.0802876, 2.7930946
1055, 1781101527, 19.618745803833008, -11.228989601135254, 151.3878631591797, -2.4671915, 1.2413291, 2.8743687
1056, 1781118194, 20.303686141967773, -12.421454429626465, 150.52203369140625, -2.7709122, 0.8236852, 1.0049887
1057, 1781134861, 21.001874923706055, -13.546004295349121, 149.59146118164062, -3.2116845, 0.5388041, -1.4523716
1058, 1781151528, 21.455341339111328, -14.211915969848633, 148.8492431640625, -1.9541506, 0.20369649, -2.075718
1059, 1781168195, 21.520355224609375, -14.452993392944336, 148.31138610839844, -0.12937583, -0.1531099, -1.3334398
1060, 1781184862, 21.118196487426758, -14.463760375976562, 147.89230346679688, 0.5023851, -0.58778435, -0.50454617
1061, 1781201529, 20.595577239990234, -14.366905212402344, 147.57095336914062, -0.13491951, -0.4598557, -1.2569199
1062, 1781218196, 20.139509201049805, -14.157682418823242, 147.36703491210938, -0.15315762, -0.11670835, -1.902956
1063, 1781234863, 19.687162399291992, -13.932623863220215, 147.22119140625, -0.08530389, -0.046111196, -1.6723204
1064, 1781251530, 19.16766357421875, -13.661521911621094, 147.1396026611328, 0.25771356, -0.45970777, -1.3983936
1065, 1781268197, 18.534921646118164, -13.161249160766602, 147.13546752929688, 0.6119828, -0.7168379, -1.0773029
1066, 1781284864, 17.924741744995117, -12.576959609985352, 147.20758056640625, 0.56043917, -0.5621962, -0.2861662
1067, 1781301531, 17.310237884521484, -11.939598083496094, 147.35130310058594, 0.20181672, -0.27318928, -0.40879726
1068, 1781318198, 16.716157913208008, -11.233685493469238, 147.53004455566406, -0.14064056, 0.11193308, -0.37893772
1069, 1781334865, 16.193923950195312, -10.399148941040039, 147.73568725585938, -0.4164762, 0.3281321, -0.42723083
1070, 1781351532, 15.682356834411621, -9.39553451538086, 147.99671936035156, -0.17277132, 0.15230834, -0.27145863
1071, 1781368199, 15.294557571411133, -8.385958671569824, 148.27452087402344, 0.3956977, -0.117031425, 0.009854317
1072, 1781384866, 15.03364086151123, -7.468815326690674, 148.53060913085938, 0.72342664, -0.07162123, 0.3439579
1073, 1781401533, 14.789155960083008, -6.677648544311523, 148.73475646972656, 0.81181204, -0.04863449, 0.8108549
1074, 1781418200, 14.66322135925293, -5.948822498321533, 148.91041564941406, 0.5608109, 0.09477969, 0.6739187
1075, 1781434867, 14.741527557373047, -5.263339519500732, 149.0773162841797, 0.69192135, 0.24481413, 0.49816418
1076, 1781451534, 14.950355529785156, -4.550642490386963, 149.2444305419922, 0.7438641, 0.45874113, 0.53993034
1077, 1781468201, 15.362174987792969, -3.835752248764038, 149.38031005859375, 0.5762242, 0.6180426, 0.7191782
1078, 1781484868, 16.069644927978516, -3.1107304096221924, 149.4423370361328, 0.5452128, 0.8267707, 1.4965935
1079, 1781501535, 17.03231430053711, -2.302804946899414, 149.4331512451172, 0.46539807, 1.2013084, 1.8105364
