PacketCounter_femur,SampleTimeFine_femur,Quat_W_femur,Quat_X_femur,Quat_Y_femur,Quat_Z_femur,FreeAcc_X_femur,FreeAcc_Y_femur,FreeAcc_Z_femur,PacketCounter_tibia,SampleTimeFine_tibia,Quat_W_tibia,Quat_X_tibia,Quat_Y_tibia,Quat_Z_tibia,FreeAcc_X_tibia,FreeAcc_Y_tibia,FreeAcc_Z_tibia
1,1045143092,0.37589859999999997,-0.4904094,-0.5380111999999999,-0.57336247,0.08087347,0.14304036,0.17845439999999999,1,1045143092,-0.10916858,-0.69218886,0.08556524,-0.70826226,0.22119074,-0.008257407,0.048430443
2,1045159759,0.37614334,-0.49051875,-0.53809124,-0.57303303,0.07860816,0.11156716,0.15138912,2,1045159759,-0.108366184,-0.69220877,0.08566212,-0.7083543000000001,0.22968832,-0.046658777,0.044454575
3,1045176426,0.37661880000000003,-0.49040613,-0.5383069,-0.5726145,0.061489977,0.056159865,0.18634701,3,1045176426,-0.107413776,-0.69211507,0.08581608,-0.70857227,0.16888726,-0.10577796,0.09762955
4,1045193093,0.37721637,-0.49014038,-0.53848493,-0.57228136,0.013107694,0.007577089,0.23904514,4,1045193093,-0.10630989,-0.69191223,0.08602681,-0.70891136,0.16786215,-0.01453365,0.124863625
5,1045209760,0.37823429999999997,-0.48969376,-0.53860384,-0.5718799,-0.1803175,0.04521913,0.17499065,5,1045209760,-0.105257854,-0.69166845,0.08611845,-0.709295,0.18926214,0.21744955,0.01688385
6,1045226427,0.3793272,-0.48941463,-0.5387035,-0.57130075,-0.07320027,-0.020880915,0.09579277,6,1045226427,-0.10438423599999999,-0.69131494,0.08602209,-0.7097803,0.056535136,-0.038777597000000004,0.029259682000000002
7,1045243094,0.38034004,-0.4892103,-0.5386473,-0.5708551,0.1268626,-0.016808735,0.18038177,7,1045243094,-0.10351048,-0.6908678,0.08595898,-0.7103510000000001,0.0021197968,-0.2431593,0.042512894
8,1045259761,0.38124278,-0.48898157,-0.5384698,-0.5706166,0.27052578,-0.008207396,0.2515297,8,1045259761,-0.10287215,-0.69043785,0.08625456,-0.7108257,-0.04141489,-0.3169916,0.05661106
9,1045276428,0.38210732,-0.48862082,-0.5383076,-0.5704999,0.24956205,0.028695486,0.23086739,9,1045276428,-0.10221722,-0.68998766,0.086712256,-0.71130145,0.030780695,-0.24259560000000002,0.06031704
10,1045293095,0.3828829,-0.48823829999999996,-0.5381849,-0.5704233,0.029992757000000002,0.016336786000000002,0.14381695,10,1045293095,-0.10139087599999999,-0.68958193,0.086921506,-0.7117875,0.05115984,0.015878583999999998,-0.01156044
11,1045309762,0.38365728,-0.4878734,-0.5381049,-0.5702906999999999,-0.10722833,-0.056311405999999994,0.11936760000000002,11,1045309762,-0.10059465,-0.6891974000000001,0.086766,-0.7122918,-0.10891051,0.0036550515999999996,0.05247116
12,1045326429,0.3845295,-0.4873839,-0.53822017,-0.57001287,-0.10992255,-0.055294424,0.09768391,12,1045326429,-0.09971564,-0.68880594,0.08634674,-0.7128446999999999,-0.17797907,-0.14426287,0.005115509
13,1045343096,0.38544986,-0.48675618,-0.53850514,-0.5696581999999999,0.025265904,-0.063544735,0.07508278,13,1045343096,-0.09904536,-0.68847823,0.08604725,-0.7132908,-0.17453325,-0.23123929,-0.10418224
14,1045359763,0.38622734,-0.48614126,-0.5387389,-0.5694358,0.16456187,-0.063947506,0.090042114,14,1045359763,-0.09848011,-0.6882060999999999,0.0857679,-0.7136651999999999,-0.11483035,-0.18519747,-0.103723526
15,1045376430,0.3868528,-0.48560572,-0.5388343000000001,-0.5693778,0.13240819,-0.06882087,0.120770454,15,1045376430,-0.09794203,-0.68803,0.08541848,-0.71395093,-0.075570725,-0.07099615,-0.10525036
16,1045393097,0.3873439,-0.48518193,-0.53886783,-0.56937337,-0.010518966999999999,-0.037867452999999995,0.13711548,16,1045393097,-0.09747471,-0.68793386,0.08491063,-0.714168,-0.12690267,-0.0062731705,-0.026664734
17,1045409764,0.38778886,-0.48475516,-0.5390187,-0.5692914000000001,-0.09477396,-0.07681503,0.17917156,17,1045409764,-0.09705879,-0.68787277,0.08432939,-0.71435237,-0.16711569,-0.080975726,0.063316345
18,1045426431,0.38824198,-0.48422962,-0.53932905,-0.5691358,-0.042341175999999994,-0.06868218,0.17840576,18,1045426431,-0.09656637,-0.68787915,0.08374728,-0.7144814,-0.15410173,-0.06052133,0.053310394000000004
19,1045443098,0.38874075,-0.48359817,-0.5398337,-0.56885386,0.049090374000000006,-0.03808616,0.13455486,19,1045443098,-0.09604652,-0.68791914,0.08319034,-0.7145781,-0.12810227,-0.03807627,0.0043764114
20,1045459765,0.38928290000000004,-0.48293328,-0.5404215,-0.5684897,0.053677752999999995,-0.090782695,0.10562229,20,1045459765,-0.095425546,-0.6879655,0.082588375,-0.71468645,-0.055919185,-0.016827453,-0.063542366
21,1045476432,0.38975653,-0.48243225,-0.54082006,-0.56821144,0.09838548,-0.14803743,0.09747410000000001,21,1045476432,-0.094851844,-0.6880006999999999,0.08196228,-0.71480113,-0.12114796,0.04455848,-0.06461525
22,1045493099,0.3900867,-0.48216692,-0.54108363,-0.5679593000000001,0.11459241,-0.1383106,0.11195564,22,1045493099,-0.094357334,-0.6879927,0.08147745,-0.7149295999999999,-0.17962408,-0.08322561,-0.0019369125
23,1045509766,0.3903756,-0.48199266,-0.5411906999999999,-0.5678064,0.038673554,-0.07635482,0.09984875,23,1045509766,-0.09394884,-0.6879639,0.08119096,-0.7150438,-0.12919411,-0.088156864,-0.08885956
24,1045526433,0.39055650000000003,-0.48199302,-0.5411666,-0.5677047,0.04837044,-0.067967944,0.039200782999999996,24,1045526433,-0.09375086,-0.687971,0.081126444,-0.7150701,-0.07004062,-0.09838074,-0.13932133
25,1045543100,0.39073452,-0.48204250000000004,-0.5409853,-0.56771314,0.013252307,-0.11165713,0.16172314,25,1045543100,-0.09379366,-0.6879835999999999,0.08128407,-0.71503454,-0.07686166,-0.10122013,0.01320076
26,1045559767,0.39091146,-0.48204237,-0.54083896,-0.5677308000000001,-0.035164848,0.02766621,0.20062828,26,1045559767,-0.09378598,-0.68799114,0.081407905,-0.7150141,-0.03897851,0.031563215,0.113059044
27,1045576434,0.3910832,-0.48196182,-0.5409376,-0.5675869,-0.11247463,0.014267948999999999,0.20952892,27,1045576434,-0.093552575,-0.6880516999999999,0.08126297,-0.71500295,-0.0029804822999999997,0.06772806,0.049547195
28,1045593101,0.391271,-0.4818691,-0.5410993000000001,-0.5673816999999999,-0.05589232,0.0032056228000000003,0.16095734,28,1045593101,-0.09326669,-0.6881401999999999,0.08091615,-0.71499443,-0.056106545,0.015557005,0.017570496
29,1045609768,0.39143544,-0.48183042,-0.5412714,-0.5671371999999999,-0.00082856254,-0.048651952000000005,0.16685295,29,1045609768,-0.09308761,-0.6882115,0.08060394,-0.7149845,-0.053643137,-0.11913062,0.052363396
30,1045626435,0.39159015,-0.48172626,-0.5413694,-0.5670254,0.055839572000000004,-0.022382475,0.21388817,30,1045626435,-0.09297717,-0.68825406,0.08046127,-0.7149739,-0.013527828,-0.16859677,0.06340504
31,1045643102,0.3916603,-0.4816013,-0.5415274999999999,-0.5669321999999999,0.04290197,0.11093965,0.13859272,31,1045643102,-0.09292566,-0.6883019,0.080436274,-0.7149374,0.06596479,-0.09551061,-0.013004303
32,1045659769,0.39165255,-0.48155543,-0.54160744,-0.5669001,0.07011914,0.004464895,0.10918903,32,1045659769,-0.09293599400000001,-0.68834686,0.08042115,-0.7148944,0.07422816,-0.082825966,-0.0514822
33,1045676436,0.3916232,-0.48159605,-0.5415475000000001,-0.5669433,0.14006752,0.0017217203,0.09938049,33,1045676436,-0.09296552,-0.68836135,0.080387264,-0.7148805,0.062345187999999996,-0.097016305,-0.054815292
34,1045693103,0.39164606,-0.4815969,-0.54150856,-0.56696373,0.10435663,0.037768662,0.1257286,34,1045693103,-0.09295552,-0.6883305999999999,0.08039692,-0.71491027,0.037799813,-0.12370899999999999,-0.026869774
35,1045709770,0.39172024,-0.4814887,-0.5415426,-0.56697184,0.09765571,-0.010898268000000001,0.16437912,35,1045709770,-0.09286925,-0.68825746,0.08049247,-0.71498114,0.01190724,-0.10614664,0.055153847
36,1045726437,0.39178154,-0.48133436,-0.54160035,-0.5670053,0.06316588,-0.050647702,0.15749739999999998,36,1045726437,-0.0926733,-0.68809843,0.08064778,-0.71514213,0.0006716844,-0.07190959,0.05849266
37,1045743104,0.3918952,-0.48119292,-0.54147327,-0.5671682,0.046959624000000005,-0.06971961,0.13636208,37,1045743104,-0.092338346,-0.6878781999999999,0.08075725,-0.7153851,0.043325137,0.015992017,-0.003750801
38,1045759771,0.39199359999999994,-0.48117334,-0.54129165,-0.5672901,-0.04530518,0.044643585,0.076519966,38,1045759771,-0.09208268,-0.6876171999999999,0.0808268,-0.71566087,0.062362343,0.049056287999999997,-0.07110596
39,1045776438,0.3920683,-0.4813037,-0.5409246,-0.5674779999999999,-0.047848985,-0.023958352999999998,0.15894985,39,1045776438,-0.091983706,-0.6873359,0.08095542,-0.7159291999999999,0.015743708000000002,-0.023610847,-0.0026521683
40,1045793105,0.3920916,-0.48149753,-0.5405033,-0.5676989,-0.0073218374,0.048411567,0.14174461,40,1045793105,-0.09200239999999998,-0.687051,0.081262074,-0.7161656,0.010807794499999999,-0.09502217,0.005215645
41,1045809772,0.39212800000000003,-0.48162478,-0.54015905,-0.5678933,-0.020996584,0.06259324,0.102962494,41,1045809772,-0.09212757,-0.6867765,0.081736654,-0.71635884,0.017468103999999998,-0.10032144,-0.07476807
42,1045826439,0.39226297,-0.48160186,-0.539974,-0.5679955,-0.020898685,0.06664184,0.08178806,42,1045826439,-0.09218003,-0.6865589,0.082223415,-0.71650493,0.03297141,-0.07570931,-0.076244354
43,1045843106,0.39249244,-0.4814764,-0.5398559,-0.56805587,-0.11480962,0.05958207,0.0879755,43,1045843106,-0.09207932,-0.68639034,0.0825003,-0.71664757,0.06495506,0.13159001,-0.07384968
44,1045859773,0.39265594,-0.48144560000000003,-0.53970635,-0.56811094,-0.19493973,0.03809063,0.06872368,44,1045859773,-0.09188657,-0.6862672,0.08241151,-0.7168004,0.035875693,0.19428886,-0.09116268
45,1045876440,0.39276883,-0.4815339,-0.53951424,-0.56814075,-0.20347568,-0.021594035,0.08383751,45,1045876440,-0.09192265,-0.68615,0.08227403,-0.7169236999999999,-0.043890122000000004,0.02471936,-0.043219565999999994
46,1045893107,0.39290756,-0.48160905,-0.5393511999999999,-0.5681358,-0.08347985,0.03228913,0.079815865,46,1045893107,-0.09205991,-0.6860242,0.08227441,-0.7170265,-0.05424296,-0.13018982,-0.022558212
47,1045909774,0.39304796,-0.48162887,-0.5392604999999999,-0.5681081,0.09859693,0.07443932,0.12062168,47,1045909774,-0.09226244,-0.68594784,0.08250138,-0.7170472,-0.010551712,-0.11544042,-0.07740307
48,1045926441,0.39312252,-0.481671,-0.53908455,-0.56818765,0.14761734,-0.009820488,0.18303394,48,1045926441,-0.09243058400000001,-0.6859095000000001,0.08280939999999999,-0.7170269,0.026546347999999997,-0.042113415999999994,-0.02513504
49,1045943108,0.39312220000000003,-0.48181838,-0.5388666,-0.5682696999999999,0.043839607,0.07210193,0.12914944,49,1045943108,-0.09248258,-0.685882,0.08301442,-0.7170228,0.021391,0.08795654,-0.028197289
50,1045959775,0.39309683,-0.48200023,-0.53873587,-0.56825686,-0.15129636,0.015727041,0.14745045,50,1045959775,-0.09240713,-0.6858799,0.08303619,-0.71703196,-0.010041046999999999,0.0643125,-0.001004219
51,1045976442,0.39317888,-0.48207799999999995,-0.5386888000000001,-0.5681788000000001,-0.13355793,0.009630056,0.10300636,51,1045976442,-0.09233007,-0.68589306,0.08303205,-0.71702975,-0.026253335,-0.03661377,-0.01788807
52,1045993109,0.39331007,-0.48208329999999994,-0.5387428000000001,-0.56803226,-0.033462572999999995,0.02470388,0.090138435,52,1045993109,-0.092300594,-0.68591493,0.08315726,-0.7169981,0.015062188999999998,-0.06602724,-0.08768463
53,1046009776,0.39339468,-0.48210946,-0.53870887,-0.5679835,0.061333295,0.025965053999999998,0.063741684,53,1046009776,-0.09233781,-0.6859615,0.08332826,-0.7169291,0.046418652000000005,-0.024828937000000002,-0.10818958
54,1046026443,0.39330372,-0.48234573,-0.53850365,-0.5680406,0.12845312,0.025830386,0.06761551,54,1046026443,-0.09230776,-0.68599975,0.08342784,-0.7168846,0.053108193,-0.024687117,-0.12576199
55,1046043110,0.39320424,-0.48257047,-0.53837913,-0.5680368,0.029397318,0.06352775,0.079081535,55,1046043110,-0.09226007,-0.68601865,0.08352867,-0.71686095,0.0005706983999999999,-0.078476295,-0.03862095
56,1046059777,0.39320484,-0.48268574,-0.53830737,-0.5680063,-0.076903656,0.017261459,0.13263607,56,1046059777,-0.09213853,-0.68603957,0.083667554,-0.7168404,0.017792938,-0.047032042999999996,0.009571075
57,1046076444,0.39319867,-0.48277079999999994,-0.5382703000000001,-0.56797343,-0.12366458,0.05006802,0.16530132,57,1046076444,-0.091981545,-0.6860963000000001,0.08376569,-0.7167946999999999,0.06672771,0.055518717,-0.010440826
58,1046093111,0.39314258,-0.4828857,-0.53826386,-0.5679208,-0.08365196,0.10716016,0.14980221,58,1046093111,-0.09179434,-0.68615514,0.08374305,-0.71676505,0.10814309,0.06953806400000001,-0.032048225
59,1046109778,0.39314818,-0.48297805,-0.5383296,-0.5677760000000001,-0.037642932999999996,0.11545696,0.20250702,59,1046109778,-0.09155081,-0.68626416,0.08361426,-0.71670705,0.094330065,0.04262733,0.03712368
60,1046126445,0.39334643,-0.48281908,-0.5385687,-0.5675472,-0.064287245,0.10658662,0.21482658,60,1046126445,-0.091069765,-0.6864163000000001,0.08335492,-0.7166526999999999,0.061925485999999995,0.0032522252,0.10557269999999999
61,1046143112,0.39360934,-0.48250604,-0.5389176,-0.56729966,-0.056434788,0.05888001599999999,0.14697266,61,1046143112,-0.09034182,-0.6865690999999999,0.08300401,-0.7166392,0.09816784,-0.016414343999999997,0.02487564
62,1046159779,0.39376205,-0.48226845,-0.53929186,-0.5670400999999999,-0.09216914,0.12338351,0.06765938,62,1046159779,-0.08958973,-0.686764,0.08255954,-0.7165982,0.119010255,0.12656248,-0.090662
63,1046176446,0.39393854,-0.48218370000000005,-0.5394576999999999,-0.5668316999999999,-0.1407575,-0.0067883119999999995,0.12308788,63,1046176446,-0.088887036,-0.6869940999999999,0.08193218,-0.71653724,0.08827344,0.16419679999999998,-0.078398705
64,1046193113,0.39413533,-0.482202,-0.5395452,-0.56659627,-0.105736606,-0.03028511,0.08766556,64,1046193113,-0.08838379,-0.6871355,0.08131217,-0.7165345000000001,-0.08820521,-0.032392725,0.03088665
65,1046209780,0.39429817,-0.48227283,-0.53959095,-0.5663788000000001,-0.069494426,-0.06344348,0.14796448,65,1046209780,-0.08816437,-0.68717337,0.08107450599999999,-0.71655214,-0.073419645,-0.24498601,0.04698658
66,1046226447,0.3945033,-0.4822259,-0.5396426,-0.5662269,-0.00852009,-0.00912134,0.1537695,66,1046226447,-0.0881668,-0.6871925999999999,0.08125999,-0.71651226,0.035078347,-0.18823284,-0.02133274
67,1046243114,0.39464757,-0.48222136,-0.5396263000000001,-0.56614566,0.112839624,0.096596375,0.1304121,67,1046243114,-0.08827861,-0.68719745,0.08163089,-0.7164518,0.10301349,-0.043244727000000004,-0.03291607
68,1046259781,0.39466676,-0.48240438,-0.539488,-0.5661082,0.05737153,0.09419909,0.17272568,68,1046259781,-0.08827712,-0.68721396,0.081835605,-0.7164128000000001,0.1427096,0.08118091,0.006415367
69,1046276448,0.39466912,-0.48263234,-0.5392744,-0.5661158000000001,-0.09904083,0.033273928,0.22248649999999998,69,1046276448,-0.088154,-0.68722904,0.08179927,-0.71641755,0.081243075,0.09191987,0.073431015
70,1046293115,0.39477992,-0.48271585,-0.53912336,-0.5661111999999999,-0.17806382,0.033904903,0.19346237,70,1046293115,-0.08802176,-0.6872579000000001,0.08171462,-0.7164156999999999,0.032776766,-0.037323423,0.0932951
71,1046309782,0.39499858,-0.48256457,-0.5391836999999999,-0.5660301999999999,-0.16080417,0.03343307,0.15142060000000002,71,1046309782,-0.087834954,-0.6872694,0.081653066,-0.71643484,0.029573306,-0.076000944,0.036151886
72,1046326449,0.39514863,-0.48230657,-0.5393711999999999,-0.56596655,-0.21936455,0.062103967999999996,0.11971855,72,1046326449,-0.08764252,-0.68727344,0.08151986,-0.7164695,0.08186734,0.064243436,-0.028090477000000003
73,1046343116,0.39523414,-0.4821328,-0.5394038000000001,-0.5660239,-0.13397703,-0.012207383,0.1640606,73,1046343116,-0.08745481,-0.68727595,0.08111464,-0.7165362,0.095688045,0.192341,-0.022925377
74,1046359783,0.39535484,-0.48203805,-0.53937715,-0.56604576,-0.023362692,0.04720057,0.18574238,74,1046359783,-0.08724936,-0.6872501,0.08047572,-0.7166581,0.033532728,0.058292124,0.08583069
75,1046376450,0.39548540000000004,-0.48192313,-0.53933936,-0.5660885,0.07933011,0.029507175,0.14979649,75,1046376450,-0.08696012,-0.6872149999999999,0.07981057,-0.71680117,0.0062698177,-0.10769692,-0.0017280579000000002
76,1046393117,0.39556518,-0.48180935,-0.5393127,-0.56615496,0.15028855,0.07985548,0.116950035,76,1046393117,-0.086759426,-0.6872050000000001,0.079427175,-0.7168776,0.021192221,-0.24045847,-0.055016518
77,1046409784,0.3957425,-0.48164540000000006,-0.5393616,-0.56612384,0.12548465,0.043998413,0.118247986,77,1046409784,-0.08671377,-0.6871633,0.07943896,-0.71692187,0.014412883999999999,-0.22073600000000002,-0.037765503
78,1046426451,0.39599696,-0.48147109999999993,-0.5394015999999999,-0.5660561,0.14071682,-0.00586498,0.14246845,78,1046426451,-0.08667765599999999,-0.68710256,0.07963253,-0.7169629,-0.006601685699999999,-0.046604852999999995,0.029920578
79,1046443118,0.39610162,-0.48135853,-0.5394813,-0.5660025,-0.021678256,-0.0071617845,0.14358425,79,1046443118,-0.08649585,-0.6869773,0.079776995,-0.71708876,-0.021659117000000002,-7.387103e-05,0.04690075
80,1046459785,0.39617127,-0.48122504,-0.5394236,-0.56612235,-0.08278361,-0.11460046,0.11718655,80,1046459785,-0.08606444,-0.6868524,0.07969431,-0.71726966,0.010097442,0.108709104,-0.013656616000000002
81,1046476452,0.39636266,-0.48111883,-0.53936416,-0.56613535,0.017579518,-0.018391651999999998,0.09115219,81,1046476452,-0.08562569,-0.68672264,0.07944884,-0.7174738,-0.016115654,0.08222611,-0.02858162
82,1046493119,0.3965369,-0.48104626,-0.53943133,-0.5660111,-0.021775527000000003,0.018157074,0.16553116,82,1046493119,-0.08522492,-0.6865434,0.07919858,-0.7177205,-0.06453629,-0.059072014000000006,0.00026035310000000004
83,1046509786,0.39676392,-0.4810004,-0.5394138,-0.56590754,0.00097183435,-0.024001045,0.17447948,83,1046509786,-0.08494149,-0.6863906,0.079115756,-0.71790934,-0.033209577000000004,-0.08689597,0.008572578
84,1046526453,0.39689472,-0.4810397,-0.5392991,-0.56589186,-0.037963677,0.012442295,0.093896866,84,1046526453,-0.08484228,-0.68628055,0.079281434,-0.7180079,-0.009805415999999999,-0.10687697,-0.07387352
85,1046543120,0.39709276,-0.4810195,-0.53920716,-0.5658576,-0.020409191,-0.019892653,0.06334305,85,1046543120,-0.08486084,-0.68620986,0.07960121,-0.7180380000000001,-0.025719056,-0.09868187,-0.124816895
86,1046559787,0.39737773,-0.48094118,-0.5392366999999999,-0.5656959,-0.06363145,-0.027250923,0.05618763,86,1046559787,-0.084956005,-0.68615544,0.079953216,-0.71803963,-0.07838324,-0.025989527000000002,-0.03187847
87,1046576454,0.39765334,-0.48076484,-0.5394139,-0.56548303,-0.19008435,-0.06794526,0.1510086,87,1046576454,-0.08491834,-0.6861268,0.080085136,-0.7180566999999999,-0.09530715,0.12285356,0.026869774
88,1046593121,0.3977768,-0.48059577,-0.53959656,-0.5653659000000001,-0.14358138,-0.08452679,0.15587616,88,1046593121,-0.084792934,-0.6860691999999999,0.07992692,-0.7181441,-0.10497242,0.06852857,0.007188796999999999
89,1046609788,0.39791706,-0.48055163,-0.5395905,-0.5653106,0.13000698,-0.09990816599999999,0.13515282,89,1046609788,-0.0846673,-0.6860615,0.07962239,-0.71820027,-0.06614937,0.015836563,-0.023677826000000003
90,1046626455,0.39793813,-0.48069507,-0.5394574000000001,-0.5653008,0.14271034,-0.037414055,0.105501175,90,1046626455,-0.08456409,-0.68606025,0.07934293,-0.7182445,-0.06898768,-0.10127305,-0.041859627
91,1046643122,0.39793290000000003,-0.48090379999999994,-0.5392650999999999,-0.5653100999999999,0.10944267,0.01849581,0.1260376,91,1046643122,-0.08453513,-0.68607837,0.07927148,-0.7182384,-0.053471494,-0.18423496,-0.06891155
92,1046659789,0.397895,-0.48110914,-0.53909844,-0.56532127,0.06984333,0.01758343,0.12431526,92,1046659789,-0.08463941,-0.6861189,0.07950573400000001,-0.7181616,-0.056432052999999996,-0.19196849,-0.035069466
93,1046676456,0.3979384,-0.48122898,-0.538883,-0.56539416,0.13660553,-0.08984807,0.15027809,93,1046676456,-0.08471853,-0.6861659999999999,0.07988226400000001,-0.7180654000000001,-0.039253205,-0.11027224,-0.0029468536
94,1046693123,0.39775914,-0.48144305,-0.53863376,-0.56557536,-0.007620674,-0.05884191,0.10138035,94,1046693123,-0.0846924,-0.6861862,0.08018020000000001,-0.7180161,-0.037646517000000004,0.013452742,0.0068130493
95,1046709790,0.39769349,-0.4816532,-0.53825414,-0.5658042,-0.016069016999999998,-0.08111319,0.10605717,95,1046709790,-0.08445926,-0.68619245,0.08013346,-0.7180428000000001,-0.0091952775,0.14039765,-0.050569534000000006
96,1046726457,0.39770988,-0.48188064,-0.5379343000000001,-0.5659029999999999,-0.09960497,-0.00023647671,0.07962704,96,1046726457,-0.08418631,-0.6861821,0.07979102,-0.7181228000000001,0.008535974,0.11344154,-0.04504013
97,1046743124,0.3976817,-0.4821367999999999,-0.53770167,-0.5659255999999999,-0.08283681,0.058268934,0.048581123,97,1046743124,-0.083932064,-0.6861461999999999,0.079396755,-0.7182305999999999,0.000991266,-0.08679908,-0.07408047
98,1046759791,0.39770892,-0.48229244,-0.53760606,-0.5658645999999999,0.0016839466,0.074645504,0.12866974,98,1046759791,-0.083825655,-0.68612367,0.079243705,-0.71828127,0.003706222,-0.22428453,-0.07761001599999999
99,1046776458,0.39768216,-0.4824035,-0.5374733,-0.565915,0.11517198,-0.00861933,0.21351337,99,1046776458,-0.08387562,-0.68611807,0.0794596,-0.7182569999999999,0.00036450074,-0.19503853,0.02332592
100,1046793125,0.3977604,-0.48242828,-0.53729707,-0.56600636,0.071606845,0.002337722,0.20722008,100,1046793125,-0.08394271,-0.6860816999999999,0.07987319,-0.718238,0.014542633000000001,-0.053440217000000005,0.071463585
101,1046809792,0.39793524,-0.48240852,-0.53714025,-0.5660491,-0.058537148,-0.024633586000000002,0.14801311,101,1046809792,-0.08391119,-0.68605494,0.08008836,-0.7182433000000001,0.043613099999999995,0.1398543,0.012493134
102,1046826459,0.39802262,-0.48254764,-0.5370059,-0.5659967,-0.07413656,-0.018419033,0.16701029999999997,102,1046826459,-0.08381519999999999,-0.68601274,0.08001121,-0.7183034,-0.052417945,0.050777283,0.049775124000000004
103,1046843126,0.39800692,-0.48267016,-0.53693163,-0.56597346,-0.0054693623,-0.007817812,0.2266159,103,1046843126,-0.083665974,-0.68590635,0.079914406,-0.7184333,-0.09129443,-0.17350724,0.12534428
104,1046859793,0.39808246,-0.48261127,-0.5369611999999999,-0.5659425,0.09056879,0.026682752999999997,0.16126442,104,1046859793,-0.083468944,-0.68582994,0.079949334,-0.7185253,0.007862095999999999,-0.15829243,-0.0035543441999999997
105,1046876460,0.39811236,-0.482566,-0.5369271,-0.56599236,0.046294227,-0.02961949,0.10568714,105,1046876460,-0.08336514,-0.6857764000000001,0.08005753,-0.71857625,0.06442508,-0.04921353,-0.0447464
106,1046893127,0.39813676,-0.48265059999999993,-0.5367264,-0.56609344,-0.049006555,-0.019252066,0.10683346,106,1046893127,-0.08339338,-0.6856973000000001,0.080123976,-0.71864104,0.019362802,-0.01616239,-0.061610222
107,1046909794,0.39814588,-0.48285964,-0.536446,-0.5661746,-0.08482361599999999,-0.00988866,0.10083103,107,1046909794,-0.08354842,-0.68566185,0.08015061,-0.718654,-0.035685584,-0.04096294,-0.03399563
108,1046926461,0.39816022,-0.48299053,-0.5362690999999999,-0.5662205,-0.012856465,-0.03898826,0.19492912,108,1046926461,-0.083813235,-0.6855943,0.080264285,-0.7186749,-0.11963942,-0.15243182,0.06999874
109,1046943128,0.39821148,-0.48291844,-0.5362515999999999,-0.5662626000000001,0.065526396,-0.031737275,0.21965694,109,1046943128,-0.084014,-0.6855053000000001,0.0804513,-0.71871555,-0.08973852,-0.18339808,0.10777569
110,1046959795,0.398174,-0.48280066,-0.5362366999999999,-0.56640327,0.054417357,-0.024156162999999998,0.18406296,110,1046959795,-0.08407093,-0.6854505999999999,0.08056579,-0.7187481,0.004937513,-0.049372055,0.019097328
111,1046976462,0.3981456,-0.48274842,-0.53613967,-0.5665597,0.06854002,0.028900225,0.1511364,111,1046976462,-0.08402309,-0.68542045,0.08039302,-0.71880186,0.026052104,0.09299894,-0.042381287000000004
112,1046993129,0.39808977,-0.48283240000000005,-0.535999,-0.5666605,-0.012079311,-0.019109016,0.16039467,112,1046993129,-0.08403266,-0.68542045,0.08005058,-0.7188389000000001,-0.083153814,0.00045982204000000003,0.002937317
113,1047009796,0.39802247,-0.48293394,-0.535894,-0.5667206,-0.05341669,0.02469371,0.13823223,113,1047009796,-0.08414726,-0.68544865,0.079836845,-0.7188225,-0.084377356,-0.187444,0.005378723
114,1047026463,0.39790714,-0.48299468,-0.5358848,-0.56675833,-0.032553992999999996,0.022395775,0.0816803,114,1047026463,-0.084465,-0.6855015999999999,0.079942435,-0.71872294,-0.05851382,-0.24560262,-0.037032127000000005
115,1047043130,0.39756313,-0.48306066,-0.5359275,-0.56690353,0.03326184,-0.0789057,0.017238617,115,1047043130,-0.08507247,-0.68546724,0.08055004,-0.7186161999999999,-0.015765088,-0.30322550000000004,-0.12276745
116,1047059797,0.39741504,-0.48300642,-0.5359050999999999,-0.56707436,-0.0074561685,0.0082871895,0.11332703,116,1047059797,-0.085694134,-0.6854897,0.08121357,-0.71844614,0.09348341,0.13303374,-0.09377669999999999
117,1047076464,0.39748722,-0.48282403,-0.53602535,-0.56706554,-0.16236763,0.066831715,0.10836792,117,1047076464,-0.08597258,-0.6855438,0.081219085,-0.7183608,0.03370905,0.4020289,0.039364815
118,1047093131,0.39750358,-0.48268056,-0.5361651999999999,-0.5670440999999999,-0.14338088,-0.039822857999999996,0.23681068,118,1047093131,-0.08579105,-0.6855733,0.08048638,-0.71843666,0.016785208,0.17279607,0.10371208
119,1047109798,0.3975417,-0.48253727,-0.5362804,-0.5670301999999999,0.039747756,0.0049937265,0.14586258,119,1047109798,-0.08546945,-0.68562657,0.07956953,-0.7185263000000001,-0.024473187999999996,-0.10039777,-0.015769958
120,1047126465,0.39747518,-0.48245388,-0.53634155,-0.56709003,0.14898144,-0.018469658,0.117827415,120,1047126465,-0.08546236,-0.68572044,0.07912126,-0.7184871,-0.010169295,-0.2704678,-0.10138321
121,1047143132,0.3972751,-0.48248366,-0.53632087,-0.56722444,0.025679404,0.044216115,0.07887554,121,1047143132,-0.085738994,-0.6857827,0.07917537,-0.7183889,-0.020640451,-0.20682436,-0.09249687
122,1047159799,0.39715183,-0.4824857,-0.53630215,-0.5673267,-0.06496628,-0.020077722,0.08283138,122,1047159799,-0.08614368,-0.6858293000000001,0.07941861,-0.7182691,-0.019196808,0.004050837,-0.053726196
123,1047176466,0.39718807,-0.48236590000000007,-0.5363305,-0.56737643,-0.10956515,-0.04563128599999999,0.10825919999999999,123,1047176466,-0.08639839999999999,-0.6858669,0.07946284,-0.71819764,0.019822292,0.15536754,0.0017061234
124,1047193133,0.39725408,-0.48218867,-0.53637147,-0.56744224,-0.031885464,-0.019128239,0.13134003,124,1047193133,-0.086356364,-0.6858995,0.07911441,-0.7182099000000001,-0.0021584297,0.14783403,0.0069379807
125,1047209800,0.3972358,-0.4820325,-0.53649485,-0.56747097,0.015429993000000001,0.03055154,0.15835285,125,1047209800,-0.08608126,-0.6859385,0.0784183,-0.7182821999999999,-0.004949429,0.062268697000000005,0.008426666
126,1047226467,0.39721546,-0.48190862,-0.5365863000000001,-0.567504,-0.020216746,0.024047758,0.15667820000000002,126,1047226467,-0.08568664,-0.6860181,0.07761188599999999,-0.71834075,0.013545891000000001,0.027066134,-0.018053055
127,1047243134,0.39719045,-0.48178023,-0.53666097,-0.5675599,-0.14140995,0.06068779,0.12709522,127,1047243134,-0.08535351,-0.6861309,0.07687458400000001,-0.7183520999999999,0.06153428,-0.017650539,-0.04020405
128,1047259801,0.39717332,-0.48170733,-0.5367173000000001,-0.56758034,-0.17145522,0.0024394204,0.06600475,128,1047259801,-0.08513783,-0.6862735,0.07617789999999999,-0.7183155999999999,-0.013038537,0.021265581000000002,-0.058229446
129,1047276468,0.397124,-0.48176128,-0.53675675,-0.56753176,-0.054375785999999995,-0.04426026,0.007770538299999999,129,1047276468,-0.08538993,-0.68629813,0.07594417,-0.7182869000000001,-0.080090694,-0.26836020000000005,-0.06994152
130,1047293135,0.39704466,-0.48190376,-0.5366939000000001,-0.56752586,-0.067919105,-0.028965715,0.04613018,130,1047293135,-0.086234525,-0.6861916,0.07650265,-0.7182284999999999,-0.058306254,-0.28338727,-0.14046097
131,1047309802,0.39685476,-0.4821649,-0.5363717,-0.56774145,-0.017935574,-0.039553076,0.05267048,131,1047309802,-0.087633915,-0.68603414,0.07783098,-0.7180667,0.05881573599999999,-0.14713562,-0.15583038
132,1047326469,0.3967333,-0.48251647,-0.5358427,-0.56802714,-0.07771389,0.07127001,0.09876442,132,1047326469,-0.08907766,-0.6858221,0.07919505,-0.71794254,0.21516849,0.27657017,-0.03499508
133,1047343136,0.3967618,-0.48283032,-0.5354211,-0.5681381,-0.13636748,0.15654467,0.14064312,133,1047343136,-0.09014413,-0.685588,0.079955466,-0.7179489,0.23308711,0.3263437,0.0730505
134,1047359803,0.3969337,-0.48296120000000003,-0.5351793,-0.5681345,-0.027805235,0.2005014,0.21566486,134,1047359803,-0.09062362,-0.6853676999999999,0.08009509,-0.71808326,0.22598395,0.12528147,0.07021332
135,1047376470,0.39718983,-0.48289132,-0.5350547,-0.5681324000000001,0.04549338,0.17114365,0.21893597,135,1047376470,-0.09063413,-0.685239,0.079878375,-0.71822876,0.24463946,0.043716285,0.02554512
136,1047393137,0.39750546,-0.48263538,-0.5350842,-0.56810117,-0.008747179,0.16389589999999998,0.156394,136,1047393137,-0.090294205,-0.68518543,0.07943335,-0.71837217,0.17658447,0.050084393,-0.005019188
137,1047409804,0.39784464,-0.4823762,-0.5352011999999999,-0.5679736999999999,-0.13980915,0.053743467,0.13857746,137,1047409804,-0.08990162,-0.6851333000000001,0.07891691,-0.71852785,0.051972512,0.025836868,-0.0047416687
138,1047426471,0.39822122,-0.48213935,-0.53535074,-0.56776994,-0.16732985,-0.018204013,0.19365406,138,1047426471,-0.089695804,-0.6850354000000001,0.07859583,-0.7186821999999999,-0.066448405,-0.07645998,0.07816696
139,1047443138,0.3986387,-0.4818415,-0.53562284,-0.5674731,-0.08114862,0.028813277999999998,0.18521404,139,1047443138,-0.08961961,-0.6848867,0.07859512,-0.7188334,-0.09596283,-0.097566366,0.08870697
140,1047459805,0.39897016,-0.48161197,-0.5357651999999999,-0.56730086,0.06600807,-0.061403032,0.14965820000000002,140,1047459805,-0.08970127,-0.6846975000000001,0.07896856,-0.71896255,0.025479743,-0.09380587,-0.03263092
141,1047476472,0.39927490000000004,-0.4815312,-0.5356672,-0.5672473000000001,0.086149715,0.041574415,0.12588310000000003,141,1047476472,-0.08977039,-0.6845611,0.07932943,-0.7190441,0.16095349,0.16349676,-0.08718395
142,1047493139,0.39958754,-0.48159823,-0.5354637,-0.5671623,0.03693775,0.049214758,0.044657707000000005,142,1047493139,-0.08966114,-0.6844449,0.07935667,-0.7191653,0.09186958,0.20692997,-0.08847237
143,1047509806,0.39982742,-0.4817718,-0.5351859,-0.56710815,0.011177659,0.010247398000000001,0.14647960000000002,143,1047509806,-0.08935823,-0.6843366,0.07912694,-0.71933144,-0.025433253,-0.008560713000000001,-0.00044631958
144,1047526473,0.40012178,-0.48175684,-0.5350604,-0.5670316999999999,0.004333469,0.024248473,0.14069939,144,1047526473,-0.08893678,-0.6842431,0.07902782,-0.71948355,-0.10962753,-0.22823243,0.04746723
145,1047543140,0.40055895,-0.48143178,-0.53521407,-0.56685394,0.004433156,-0.022391975,0.025382042,145,1047543140,-0.08842979,-0.6841529000000001,0.07915914,-0.7196173,-0.03363951,-0.150069,-0.11786651599999999
146,1047559807,0.40096337,-0.48116878,-0.5353949,-0.5666206,0.0012711182,-0.06559401,-0.020646095,146,1047559807,-0.08809616,-0.6840546,0.07936526,-0.71972907,0.011761887,0.031050922,-0.17360973
147,1047576474,0.40131813,-0.481104,-0.5354356,-0.56638587,-0.067316964,-0.03859443,0.124277115,147,1047576474,-0.0877845,-0.6839663,0.07931867,-0.719856,-0.056405738,0.15432720000000003,-0.053491592000000004
148,1047593141,0.40157697,-0.48114574,-0.53539187,-0.5662081999999999,-0.053798676,0.0026826025,0.23104095,148,1047593141,-0.08735909,-0.6839206999999999,0.07901558,-0.7199844,-0.07421762,0.065128095,0.0847559
149,1047609808,0.40178052,-0.48113808,-0.5354034000000001,-0.5660596,0.025445832,-0.023028987,0.24871254,149,1047609808,-0.08691360000000001,-0.6839069999999999,0.07873196,-0.7200825,-0.07776711,-0.12944865,0.08320236
150,1047626475,0.40206668,-0.48097587,-0.5355219,-0.56588185,-0.031073293,-0.018927764,0.12115383,150,1047626475,-0.08652659,-0.683933,0.07870378,-0.7201073,-0.06252779,-0.15098211,-0.03276539
151,1047643142,0.40242067,-0.48078102,-0.5357135000000001,-0.56561464,-0.07856882,0.018585326,0.047132492000000005,151,1047643142,-0.086261064,-0.6840154,0.07875054,-0.7200559,-0.029636323,0.0064936659999999995,-0.111577034
152,1047659809,0.40266675,-0.48068786,-0.5359991,-0.565248,-0.07480174,-0.029447831,0.0036230087,152,1047659809,-0.08587308,-0.6841272,0.078518495,-0.7200214,-0.061800677000000005,0.12545843,-0.13877392
153,1047676476,0.40283522,-0.48067522,-0.5362049,-0.5649433,0.010469794000000001,-0.13168825,0.06566048,153,1047676476,-0.08543088,-0.68425417,0.07805645,-0.7200036,-0.152281,0.006601958000000001,-0.11412048
154,1047693143,0.40301093,-0.48061365,-0.53639185,-0.56469274,0.048395474,-0.16460802,0.13375759,154,1047693143,-0.08513062,-0.6843583000000001,0.077769585,-0.7199713000000001,-0.22892842,-0.20143099,0.019412994
155,1047709810,0.40318924,-0.48049712,-0.5365726,-0.5644929,0.09023531,-0.15090679,0.16573143,155,1047709810,-0.08494256,-0.68442047,0.077841915,-0.7199265,-0.18607928,-0.21504188,0.021535872999999997
156,1047726477,0.4033598,-0.4804085999999999,-0.5367175000000001,-0.5643087,0.06553623,-0.04727344,0.11023235,156,1047726477,-0.0848216,-0.6845111999999999,0.07799067,-0.71983844,-0.105542205,-0.0067558466000000005,-0.07709694
157,1047743144,0.403504,-0.48043162,-0.5369218000000001,-0.56399155,0.03233428,-0.00032185865,0.12035656,157,1047743144,-0.084666155,-0.6846838000000001,0.07796829,-0.719695,-0.056567617,0.06813222,-0.06388759599999999
158,1047759811,0.40350747,-0.48061186,-0.53700346,-0.5637578000000001,0.02608262,-0.044532273,0.14496994,158,1047759811,-0.084344685,-0.684909,0.07766188,-0.7195516,-0.06803719,0.036504526,-0.02525425
159,1047776478,0.40342963,-0.48082440000000004,-0.5370569000000001,-0.5635814,0.02336068,-0.08666782,0.13742542,159,1047776478,-0.08412376,-0.6851503000000001,0.07741619999999999,-0.71937406,-0.11308932,-0.167656,0.013708115
160,1047793145,0.40336373,-0.4809387,-0.53713953,-0.5634523,-0.039382982999999996,-0.09705849,0.16735172,160,1047793145,-0.08413419999999999,-0.6853603,0.077540465,-0.7191594,-0.121505864,-0.23715672,0.042933464000000005
161,1047809812,0.40333304,-0.48095533,-0.53727573,-0.56333023,-0.10676722,-0.03301778,0.16020298,161,1047809812,-0.08436124,-0.6855654999999999,0.07794547,-0.7188935000000001,-0.060767192000000005,-0.073835045,0.01129055
162,1047826479,0.4032865,-0.48094547,-0.53751695,-0.5631414,-0.11053185,0.0673078,0.15081787,162,1047826479,-0.084568344,-0.6857498000000001,0.07826538,-0.71865845,0.03651423,0.051014542999999996,0.011957168999999998
163,1047843146,0.40320409999999995,-0.4809906,-0.53775847,-0.5629314999999999,-0.059004515,0.04915363,0.14918137,163,1047843146,-0.084709235,-0.68593407,0.07836415,-0.7184553000000001,0.11834856,0.0795296,-0.008350372
164,1047859813,0.4032212,-0.48105790000000004,-0.5378008000000001,-0.56282127,-0.13344036,0.038921427,0.1705389,164,1047859813,-0.08482515,-0.68615526,0.07829698,-0.7182379,0.17783782,0.14843887,0.0042419434
165,1047876480,0.4032772,-0.48110859999999994,-0.53782487,-0.5627149,-0.115526915,0.06153982,0.107403755,165,1047876480,-0.08492562,-0.68632054,0.07807738,-0.7180918000000001,0.14022785,0.041569273999999996,0.012198448
166,1047893147,0.40338606,-0.48104447,-0.53787404,-0.56264454,-0.015850198,-0.009285175,0.2492199,166,1047893147,-0.08505601,-0.6863895999999999,0.07791144,-0.71802837,0.058222827000000005,-0.18398285,0.1303091
167,1047909814,0.40368578,-0.48072138,-0.53805166,-0.5625359000000001,0.03633963,0.055975467,0.21637440000000002,167,1047909814,-0.08514971,-0.68638253,0.07799251,-0.71801525,0.10081442,-0.11997729,0.124733925
168,1047926481,0.40393722,-0.48043525,-0.5381508,-0.56250507,0.043342292000000004,0.073164955,0.19841766,168,1047926481,-0.08507331,-0.68633056,0.07792239,-0.71808153,0.27983046,0.12818278,0.04731655
169,1047943148,0.40427133,-0.4801798,-0.5381343000000001,-0.56249905,0.029674027000000002,0.17349635,0.22962189,169,1047943148,-0.08467529,-0.68625873,0.07730857,-0.7182636,0.28798473,0.18259461,0.102808
170,1047959815,0.40474778,-0.47983348,-0.53804785,-0.5625346,-0.01739959,0.15660770000000002,0.27973459999999994,170,1047959815,-0.08401950000000001,-0.6861172,0.07637329400000001,-0.71857584,0.33213192,-0.040452827000000004,0.15037727
171,1047976482,0.40543354,-0.47927338,-0.53787273,-0.5626859000000001,-0.17515883,0.15397875,0.26591492,171,1047976482,-0.0835034,-0.6858809,0.07567086,-0.71893585,0.3636333,-0.19305372,0.1403284
172,1047993149,0.40633962,-0.47840685,-0.53762573,-0.56300557,-0.15485,0.17092393,0.23441124,172,1047993149,-0.083369814,-0.6855364,0.07558617,-0.71928877,0.4119957,-0.23715161,0.13013172
173,1048009816,0.4075021,-0.47729499999999997,-0.53739446,-0.56332976,-0.15769644,0.3202116,0.19734573,173,1048009816,-0.08349478,-0.68506527,0.075989574,-0.7196805000000001,0.5468093,-0.018493742,0.0908308
174,1048026483,0.40893295,-0.4761335,-0.5369871,-0.56366414,-0.2681695,0.36745575,0.22933769,174,1048026483,-0.08346564,-0.6844785,0.0761663,-0.7202232,0.77954686,0.3412249,0.11904621
175,1048043150,0.41074067,-0.47487155,-0.5363496999999999,-0.5640210999999999,-0.38717496,0.4773269,0.2655897,175,1048043150,-0.08309111,-0.68371594,0.07568804,-0.7210409000000001,0.9313065999999999,0.45820436,0.17967320000000003
176,1048059817,0.41302907,-0.47333859999999994,-0.5355944,-0.5643560000000001,-0.49308209999999997,0.4359893,0.21707153,176,1048059817,-0.082491055,-0.6826939999999999,0.07481772,-0.7221681,0.9320193000000001,0.28155378,0.2138052
177,1048076484,0.4158762,-0.47143924,-0.5348443,-0.56456655,-0.43681850000000005,0.42601168,0.20501041,177,1048076484,-0.081913196,-0.6813929,0.07411825,-0.7235335999999999,0.90776455,0.21418749,0.16833399999999998
178,1048093151,0.4192774,-0.46934799999999993,-0.5338881999999999,-0.5646981,-0.47173727,0.52954847,0.48775673,178,1048093151,-0.08138315,-0.6798048000000001,0.073590696,-0.7251390999999999,0.92684424,0.36758763,0.4180889
179,1048109818,0.42303672,-0.467286,-0.5326234999999999,-0.5647986999999999,-0.58777875,0.7018289000000001,0.7830305000000001,179,1048109818,-0.08089435,-0.6780095,0.0731503,-0.72691697,1.0038771999999998,0.4962106,0.6993599
180,1048126485,0.42682856,-0.46547285,-0.5308973000000001,-0.5650682,-0.6344433,0.6463503,0.8180771,180,1048126485,-0.08054423,-0.67598957,0.07290257,-0.7288595,1.0904695,0.49434269999999997,0.7591839
181,1048143152,0.43064250000000004,-0.46376544,-0.5288027,-0.5655420999999999,-0.56253695,0.5802411999999999,0.6034174,181,1048143152,-0.080204755,-0.67365557,0.07282503,-0.7310623,1.210546,0.46816602,0.603467
182,1048159819,0.43496832,-0.46163577,-0.526616,-0.56601423,-0.55740553,0.63928413,0.28652763,182,1048159819,-0.07974207400000001,-0.6709269,0.07296269999999999,-0.73360425,1.1964163,0.45258802,0.33943748
183,1048176486,0.44032356,-0.4588094,-0.5244295999999999,-0.56620145,-0.5926095,0.7289154999999999,0.19378662,183,1048176486,-0.07900889,-0.6678166999999999,0.073328145,-0.7364791,1.2455266999999999,0.45481202,0.21519375
184,1048193153,0.4464326,-0.45564709999999997,-0.52198195,-0.56623334,-0.6428552,0.65799373,0.31682396,184,1048193153,-0.078214936,-0.6643737,0.07390576,-0.73961353,1.2486302,0.6356414,0.3546114
185,1048209820,0.45292053,-0.45259684,-0.5189471,-0.5663169,-0.5046279,0.45589626,0.57141876,185,1048209820,-0.07724360400000001,-0.6605329000000001,0.07453388,-0.7430846,1.1961361000000001,0.7393989000000001,0.6519184
186,1048226487,0.45963782,-0.44971132,-0.5151666,-0.5666549,-0.30736795,0.5055259,0.6788378,186,1048226487,-0.075704016,-0.65615296,0.07501062,-0.74706477,1.1877141000000002,0.75363463,0.784935
187,1048243154,0.46666285,-0.44677958,-0.51063377,-0.56733453,-0.16834213,0.5273111,0.651886,187,1048243154,-0.07357834,-0.65135616,0.075456835,-0.7514172,1.3248156,0.611329,0.7176504
188,1048259821,0.4739859,-0.44390616,-0.50517803,-0.56840247,-0.17266354,0.59592086,0.5249319,188,1048259821,-0.071066305,-0.6460854,0.07622145,-0.7561175,1.3533574,0.43484494,0.71371365
189,1048276488,0.48159936,-0.44127095,-0.49882638,-0.5696629,-0.2117897,0.68368906,0.48686886,189,1048276488,-0.068699114,-0.6401901,0.07795817,-0.76115686,1.4129428999999998,0.2699759,0.7269478
190,1048293155,0.48952064,-0.43897372,-0.49146660000000003,-0.57108146,-0.36990678,0.58218557,0.8522443999999999,190,1048293155,-0.06661025400000001,-0.63389003,0.08059232,-0.76632357,1.3224049999999998,0.54489493,0.97114277
191,1048309822,0.4977015,-0.43685156,-0.48321490000000006,-0.57267696,-0.43520588,0.42556554,1.0261517,191,1048309822,-0.06429629,-0.6272768,0.0836062,-0.77162176,1.122744,0.883474,1.2701844999999998
192,1048326489,0.5059912,-0.4347008,-0.47441720000000004,-0.5744023,-0.45757884,0.30869865,0.92943,192,1048326489,-0.061134204000000004,-0.62016743,0.08617055,-0.7773223000000001,1.0407507,1.1199378999999998,1.3647175
193,1048343156,0.5144641,-0.43244160000000004,-0.46528438,-0.5760494,-0.46854037,0.33680743,0.80312157,193,1048343156,-0.057069182,-0.61245847,0.08806543,-0.7835065,0.91497266,0.94160384,1.3121824
194,1048359823,0.52333695,-0.43003620000000004,-0.45572972,-0.577494,-0.49773496,0.3602262,0.8275565999999999,194,1048359823,-0.052504275,-0.60412484,0.08985143,-0.7900654,0.81788534,0.5543814,1.2023191
195,1048376490,0.5328282,-0.42745447,-0.44561833,-0.57862145,-0.39920086,0.31343043,0.92994404,195,1048376490,-0.047867442999999996,-0.5955064,0.09223333,-0.7966015999999999,0.75940055,0.4564856,1.1556015
196,1048393157,0.54277766,-0.42503873,-0.43473370000000006,-0.579433,-0.30699235,-0.019172048,0.87746334,196,1048393157,-0.043410763,-0.5866246999999999,0.09545299,-0.80304164,0.24166447,0.6899585,1.3165512
197,1048409824,0.5525551,-0.42341134,-0.42282075,-0.5801985,-0.11543640000000001,-0.32868764,0.735981,197,1048409824,-0.039201576,-0.5772041,0.09951995,-0.80956453,-0.13019516,0.4989268,1.3751688
198,1048426491,0.5619009,-0.42267957,-0.40993834,-0.58100045,0.08854801,-0.32062620000000003,0.64495564,198,1048426491,-0.0350212,-0.5672649000000001,0.10452910000000001,-0.8161236999999999,-0.25493616,0.29207596,1.1219358
199,1048443158,0.5709069,-0.42260745,-0.39622095,-0.58178943,0.16332963,-0.3583612,0.72284794,199,1048443158,-0.031099118,-0.55716735,0.11101361,-0.82235867,-0.34191945,-0.017041843,0.9937896999999999
200,1048459825,0.5797534000000001,-0.42304078,-0.38154024,-0.5825385999999999,0.16816422,-0.23525119,0.9366751,200,1048459825,-0.02738432,-0.54717845,0.118914895,-0.82807326,-0.13515113,0.03082945,1.1891756000000002
201,1048476492,0.5881997,-0.4239994000000001,-0.36631715,-0.58314586,-0.0007684375,-0.29607666,0.71249104,201,1048476492,-0.023546426000000002,-0.5371005999999999,0.12757398,-0.83348286,-0.3192235,0.37731075,1.2401981000000002
202,1048493159,0.5961705,-0.42538136,-0.35078374,-0.5835955,0.1380948,-0.48867330000000003,0.5080347,202,1048493159,-0.01937432,-0.5265251999999999,0.13666584,-0.83887917,-0.6823807,0.09560278,1.2271003999999999
203,1048509826,0.6038905,-0.42692688,-0.33506978,-0.58376336,0.45238575,-0.47395164,0.62833405,203,1048509826,-0.014624952,-0.5155270000000001,0.14625925,-0.8441719000000001,-0.7686695,-0.19327596,0.94822025
204,1048526493,0.6115746,-0.428187,-0.3194363,-0.583605,0.14505544,-0.15414168,0.6926594,204,1048526493,-0.008852995,-0.50470287,0.15548757,-0.8491293,-0.37268025,0.31112126,0.93074894
205,1048543160,0.6191936,-0.42925388,-0.30436176,-0.58284295,-0.3053969,-0.16932984,0.48267746,205,1048543160,-0.002471376,-0.493925,0.16386011,-0.8539216000000001,-0.42141634,0.36932859999999995,0.9618578000000001
206,1048559827,0.6272703000000001,-0.42949945,-0.29001775,-0.58133745,-0.41795772,-0.2953916,0.6430235,206,1048559827,0.0044328105,-0.48284876,0.17121442,-0.85879165,-0.6909046,0.11786042,0.9803724
207,1048576494,0.6360413,-0.42838395,-0.27660435,-0.5791635,-0.295077,-0.28054094,0.8017988,207,1048576494,0.011682047,-0.47164702,0.17814825,-0.86352545,-0.7646374,-0.07520679400000001,0.8962201999999999
208,1048593161,0.6450051,-0.42644787,-0.26380172,-0.57664657,-0.17047579999999998,-0.28553846,0.884532,208,1048593161,0.019141191999999998,-0.46061513,0.18508546,-0.8678773000000001,-0.61703956,-0.19606672,0.8273239
209,1048609828,0.65403813,-0.42407236,-0.25127703,-0.5738101999999999,-0.18086043,-0.23583701,0.94245243,209,1048609828,0.026619075,-0.44977942,0.19182147,-0.8718914000000001,-0.5516061999999999,-0.0464725,0.9743985999999999
210,1048626495,0.66297615,-0.42171293,-0.23885789999999998,-0.57058674,-0.030612111,-0.47341317,0.7291689,210,1048626495,0.03372884,-0.43904835,0.19848919,-0.8756148000000001,-0.81152326,-0.11570153,0.9894265999999999
211,1048643162,0.6716394,-0.4195138,-0.22647095,-0.5671168000000001,0.28862864,-0.7306274,0.5331564000000001,211,1048643162,0.040596817,-0.42818096,0.20523722,-0.8791421,-1.0697138000000002,-0.43918353,0.73116684
212,1048659829,0.680117,-0.41718042,-0.21397808,-0.56357485,0.40685874,-0.5488821,0.5223751,212,1048659829,0.047743056,-0.41730028,0.21139316,-0.88254994,-0.748899,-0.23792015,0.7743081999999999
213,1048676496,0.68843406,-0.4148302,-0.2011973,-0.5599068,0.20951378,-0.33734968,0.55879307,213,1048676496,0.054939277,-0.4066903,0.21676704,-0.88577485,-0.40406179999999997,-0.010530673,0.90779114
214,1048693163,0.69672763,-0.41244748,-0.18795761,-0.5559957,-0.13469808,-0.25592524,0.5091038,214,1048693163,0.06196961,-0.39622208,0.22121076,-0.888951,-0.24389257,0.06215546,1.0654392
215,1048709830,0.7050486999999999,-0.40990433,-0.1744056,-0.551787,-0.18973076,-0.33224106,0.40015316,215,1048709830,0.06846047,-0.38552603,0.22520990000000002,-0.8921680000000001,-0.5462087,-0.11483155,0.88543034
216,1048726497,0.71332216,-0.4069259,-0.16079974,-0.54747415,0.39391834,-0.6356735,0.5018244000000001,216,1048726497,0.07455225,-0.37450159999999993,0.22940455,-0.8953013000000001,-1.1965531999999999,-0.78845507,0.48069668
217,1048743164,0.72143435,-0.40357584,-0.14741321,-0.54307455,0.7200889,-0.6413076,0.6766434,217,1048743164,0.08103437,-0.36357072,0.23370570000000002,-0.89812684,-1.0379721,-0.89309627,0.58391
218,1048759831,0.7291398,-0.40037990000000007,-0.13460499,-0.53845555,0.42119676,-0.5925891999999999,0.61018753,218,1048759831,0.08749415,-0.35284227,0.23825812,-0.9006,-1.0674671999999998,-0.42736268,0.56276894
219,1048776498,0.7364437,-0.39721718,-0.12246732,-0.5337347,0.5135097,-0.66173625,0.32946490000000006,219,1048776498,0.09400819,-0.34172666,0.24253622,-0.90308464,-1.2845349,-0.8144449,0.22102451
220,1048793165,0.74359685,-0.39359093,-0.11060800400000001,-0.5290723,0.86508346,-0.6456421999999999,0.15202713,220,1048793165,0.10087915,-0.3304281,0.24683127,-0.90538126,-0.9456906999999999,-1.1528881000000002,0.16210747
221,1048809832,0.75057906,-0.38976228,-0.09876034,-0.5243707,0.6707776999999999,-0.5546635,0.15179920000000002,221,1048809832,0.10778674,-0.3194123,0.25187135,-0.90714884,-0.8019305999999999,-0.82844037,0.18971252
222,1048826499,0.7571846,-0.38621469999999997,-0.08699293,-0.5195609999999999,0.564542,-0.65063316,0.17622279999999999,222,1048826499,0.11461538,-0.30841163,0.2571769,-0.9086286,-1.1110236999999998,-0.6632209,0.21765232
223,1048843166,0.76355857,-0.38261163,-0.07544857,-0.5146805,0.64791054,-0.7369496999999999,0.017601967,223,1048843166,0.12156969999999999,-0.29722103,0.2619764,-0.910082,-1.2856541000000001,-0.6491895999999999,0.019568443
224,1048859833,0.76998585,-0.37843987,-0.064457625,-0.5096585,0.41899659999999994,-0.7576919,-0.015556335,224,1048859833,0.12874359,-0.28595254,0.26616484,-0.9114894,-1.107696,-0.78333455,-0.32330418
225,1048876500,0.77610654,-0.3742231,-0.054132942,-0.5046653,0.356217,-0.5632969,-0.18357849,225,1048876500,0.13562118,-0.27498636,0.2706743,-0.9125378000000001,-1.0692958000000001,-0.6440336,-0.7335396
226,1048893167,0.78184533,-0.36995885,-0.044220373,-0.49989444,0.69217646,-0.6821054,-0.36050129999999997,226,1048893167,0.1424661,-0.26408157,0.27514390000000005,-0.9133786,-0.9838561,-0.85030085,-0.69922256
227,1048909834,0.78726786,-0.36549538,-0.03449683,-0.49541304,0.74191916,-0.60229164,-0.44574165,227,1048909834,0.14963305,-0.25331506,0.27892548,-0.91413474,-0.88012326,-0.63014704,-0.5635566999999999
228,1048926501,0.79236174,-0.36114946,-0.024918400000000004,-0.49103415,0.706729,-0.48348558,-0.4909401,228,1048926501,0.15694307,-0.24272925,0.2819561,-0.91485107,-0.70667,-0.7004142,-0.53881836
229,1048943168,0.7971275,-0.35722363,-0.01569346,-0.48655376,0.41891262,-0.40583962,-0.6259823,229,1048943168,0.16382295,-0.23229729,0.28526285,-0.91532815,-0.79817444,-0.70736897,-1.0693827
230,1048959835,0.8015760999999999,-0.35351273,-0.0066951382999999995,-0.48214218,0.49096158,-0.46780299999999997,-0.85038567,230,1048959835,0.17047785,-0.22203869,0.28868544,-0.9155857,-0.6971265,-0.8505493000000001,-1.3355780000000002
231,1048976502,0.80578244,-0.34977475,0.0022274847,-0.47787985,0.601906,-0.27364177,-0.6268654,231,1048976502,0.17713988,-0.21222156,0.2918623,-0.91564196,-0.45444483,-0.6077268,-1.0020847
232,1048993169,0.8097616,-0.34598607,0.010903793,-0.47377506,0.2356778,-0.11637269,-0.2891798,232,1048993169,0.18364884,-0.20279126,0.29404554,-0.91579825,-0.3209862,-0.10810593,-0.5851803000000001
233,1049009836,0.81357956,-0.34222844,0.018970765,-0.4696913,0.09049737,-0.20717013,-0.39955902,233,1049009836,0.18946570000000001,-0.1937308,0.29576316,-0.91602165,-0.49271170000000003,-0.5193603,-1.0185871
234,1049026503,0.81730324,-0.33849218,0.02647018,-0.46555296,0.44074413,-0.25662798,-0.7112684,234,1049026503,0.19475374,-0.18493994,0.29809627,-0.91597337,-0.46154702,-1.1548905,-1.6301098
235,1049043170,0.8207413,-0.33505663,0.033632506,-0.46150947,0.6827609,-0.21210955,-0.89932346,235,1049043170,0.19995758,-0.17673805,0.30131987,-0.91541654,-0.2699583,-0.83901185,-1.5867662
236,1049059837,0.82375944,-0.33208317,0.040426627,-0.45772105,0.6731029000000001,-0.14403711,-0.8841686,236,1049059837,0.20511056,-0.16902298,0.3043405,-0.9147339,-0.13627434,-0.5391796,-1.3130665000000001
237,1049076504,0.8264902,-0.32918292,0.046942644000000006,-0.45425835,0.41044298,-0.10893932,-0.56616306,237,1049076504,0.21015948,-0.16155145,0.30603734,-0.9143716999999999,-0.10755147,-0.22007906,-0.8200083
238,1049093171,0.8291646999999999,-0.32607812,0.052851897,-0.45096254,0.14745656,-0.05021621,-0.51049423,238,1049093171,0.21468502,-0.15437119,0.30704993,-0.9142213,-0.10825381,-0.33225042,-1.2009763999999998
239,1049109838,0.8317082,-0.32289243,0.058226474,-0.44789904,0.2947781,-0.07773267,-0.7327260999999999,239,1049109838,0.21889761,-0.14754464,0.30777115,-0.9141071,0.07609834,-0.7982793,-1.6299915
240,1049126505,0.8339983,-0.31996417,0.06299318,-0.44508739999999997,0.46922612,0.0008556076,-1.1835003000000002,240,1049126505,0.22280638,-0.14139724,0.30951205,-0.91354626,0.025799988,-0.81494266,-2.1349443999999997
241,1049143172,0.83594984,-0.31747013,0.06708394,-0.44260803,0.6086304,-0.043073627999999996,-1.5352116000000002,241,1049143172,0.22670354,-0.13556118,0.31167674,-0.91273576,0.067326516,-0.8507867,-2.3947854
242,1049159839,0.8376461,-0.31488585,0.07049358,-0.44071350000000004,0.6273184,-0.025108328,-1.3610487,242,1049159839,0.23064959,-0.1300498,0.31305858,-0.9120759,0.06046288,-0.39984378,-1.9031372
243,1049176506,0.8392109000000001,-0.31187055,0.073228024,-0.43943283,0.23866624,0.035451613,-0.7444086,243,1049176506,0.2343616,-0.12474106,0.31192544,-0.9122593000000001,0.14364798,0.19370662,-1.1712742
244,1049193173,0.84065044,-0.3085656,0.07489844,-0.43873233,-0.24581050000000002,0.19660692,-0.75832176,244,1049193173,0.23717457,-0.11970335,0.30876282,-0.9132826999999999,0.25784817,0.047161974,-1.6453238000000001
245,1049209840,0.84201825,-0.30489028,0.07555144,-0.43856648,0.021708807000000004,0.35300329999999996,-1.2711344,245,1049209840,0.23920667,-0.11496021,0.30548534,-0.91446346,0.650609,-1.0350161,-2.7312956
246,1049226507,0.8432384,-0.30122,0.075616404,-0.4387478,0.47790837,0.5103287999999999,-1.5879431,246,1049226507,0.24100794,-0.11134453,0.303683,-0.9150379999999999,0.7917348000000001,-1.1320748,-3.0449017999999994
247,1049243174,0.8439973,-0.29873452,0.07522057,-0.43905538,0.5933811999999999,0.524718,-1.6086655,247,1049243174,0.24251111,-0.10938108,0.30324029999999996,-0.9150244000000001,0.66473424,-0.66885155,-2.7320627999999996
248,1049259841,0.8441440999999998,-0.29798909999999995,0.074568816,-0.43939096,0.37406832,0.27483666,-1.5097208,248,1049259841,0.24337281,-0.10860743,0.30252963,-0.91512316,0.4035469,-0.24339789,-2.2638477999999997
249,1049276508,0.8437313,-0.29842147,0.07352056,-0.44006660000000003,0.18875663,0.13088316,-1.6438131,249,1049276508,0.24322264,-0.10856605,0.30128112,-0.9155796999999999,0.33482513,-0.35590476,-2.5535603
250,1049293175,0.84285176,-0.29935163,0.07201261,-0.44136786,0.47151109999999996,0.30181637,-1.6144047,250,1049293175,0.24253882,-0.10922576,0.29962164,-0.91622704,0.58511883,-0.78452975,-2.8258452000000003
251,1049309842,0.84148073,-0.30094498,0.069825575,-0.44324738,0.59434074,0.61698323,-1.6158037,251,1049309842,0.24163496,-0.11113481,0.29827893,-0.9166742,0.7882569,-0.74630374,-2.8099408
252,1049326509,0.8398860999999999,-0.3030631,0.06675120400000001,-0.44529759999999996,0.33098614,0.59006155,-1.5991343999999998,252,1049326509,0.24041234,-0.11429629,0.29720616,-0.91695535,0.63573676,-0.5366215,-2.7428798999999997
253,1049343176,0.83821326,-0.30550304,0.06289017,-0.44734009999999996,-0.13035102,0.07305834,-1.7606543999999997,253,1049343176,0.23846315,-0.11839764,0.29623383,-0.91725856,0.26644245,-0.42751515,-2.902328
254,1049359843,0.8362931,-0.30828598,0.05831358,-0.44963828,0.16656856,-0.1008524,-2.2211642000000005,254,1049359843,0.2356425,-0.123324655,0.29615929999999996,-0.91736233,0.10912657,-0.88310826,-3.6310142999999995
255,1049376510,0.8339523999999999,-0.31141213,0.05292443,-0.4524892,0.92708915,-0.055291742000000005,-2.3100739,255,1049376510,0.23273133,-0.12892346,0.29652044,-0.9172190999999998,0.04915553,-1.0820119,-3.726307
256,1049393177,0.8311504000000001,-0.31492034,0.046765666,-0.45588222,0.93871117,-0.05535097,-1.5848788999999999,256,1049393177,0.22997613,-0.13557915,0.29571828,-0.9172133,0.0006491375,-0.40466624,-2.6011176
257,1049409844,0.8279401,-0.3192472,0.039635867000000005,-0.45937680000000003,0.20865448,-0.029985157999999998,-1.0979843,257,1049409844,0.22623771,-0.14370231,0.2934719,-0.9176279,-0.07913817,0.13256283,-2.1968513
258,1049426511,0.8242999,-0.32446516,0.031656377,-0.4628732,-0.058370024000000006,-0.2705145,-1.3893576,258,1049426511,0.22110885,-0.1528194,0.29066977,-0.91829646,-0.32260644,-0.5745045999999999,-2.7926831
259,1049443178,0.82016855,-0.33028495,0.023432962999999998,-0.46657056,0.57643,-0.41851392,-1.9389261999999998,259,1049443178,0.21513951,-0.16295199999999999,0.28874317,-0.91858006,-0.30472824,-1.558776,-3.0213637
260,1049459845,0.8152866999999999,-0.33702016,0.015315108999999999,-0.47062948,1.0483207,-0.2821737,-1.8215561000000002,260,1049459845,0.20875324,-0.17460579,0.2887539,-0.9179086,-0.28278404,-1.4074976000000001,-2.9531403
261,1049476512,0.8094177,-0.34498823,0.0067711286,-0.47516504,0.96782786,-0.1880106,-1.5358323999999999,261,1049476512,0.20207317,-0.1873922,0.2892587,-0.91672266,-0.4110491,-1.0644168999999999,-2.6107134999999997
262,1049493179,0.8028605,-0.35332453,-0.002513309,-0.48017928,0.47976074,-0.29274744,-1.0879517,262,1049493179,0.19491892,-0.20066053,0.288191,-0.91579926,-0.7349523,-0.4082223,-1.7773828999999999
263,1049509846,0.7961647,-0.36090029999999995,-0.012798273,-0.48550043,0.189828,-0.5318976,-0.6573639,263,1049509846,0.18696521,-0.21423683,0.28488523,-0.91541636,-1.0926491000000003,-0.32232147,-1.4703636
264,1049526513,0.7892821,-0.36790359999999994,-0.024259682999999997,-0.4910130999999999,0.3837565,-0.8440455,-0.9216366,264,1049526513,0.17809248,-0.22815955,0.2805743,-0.91515267,-1.4438541,-1.229602,-2.1052155
265,1049543180,0.7820143,-0.37453833,-0.036659498,-0.49682245,1.1957453000000002,-1.0403413000000001,-1.1267319,265,1049543180,0.16879779,-0.24273008,0.27696773,-0.914264,-1.5886446,-2.287203,-2.5409436000000003
266,1049559847,0.7742588,-0.38078532,-0.050007284000000006,-0.5030175,1.6065334999999998,-0.8621075999999999,-0.78242016,266,1049559847,0.15976283,-0.258119,0.27377933,-0.9126310999999999,-1.6020067,-1.7586625,-1.7224293000000002
267,1049576514,0.766035,-0.38659140000000003,-0.06472867,-0.50945985,0.8727166999999999,-0.7573106,-0.36880016,267,1049576514,0.15092964,-0.2740754,0.26876998,-0.9109698,-1.6111758999999999,-0.55813843,-0.7854042
268,1049593181,0.7574039,-0.39171126,-0.081039816,-0.5160774,0.15853807,-0.92700434,-0.39158154,268,1049593181,0.14165464,-0.2898358,0.26082397,-0.90989035,-1.9684108,-0.72119933,-0.9185190000000001
269,1049609848,0.7484487,-0.39607248,-0.09821114,-0.5227879,0.61310256,-1.1624726,-0.45635414,269,1049609848,0.131333,-0.30580312,0.25209764,-0.9086711,-2.1226380000000002,-2.0302382,-1.554532
270,1049626515,0.7388743,-0.40055513,-0.115727715,-0.5293666,1.567979,-1.1242127,-0.4437151,270,1049626515,0.12012370000000001,-0.32307085,0.24587923,-0.9059466999999999,-2.1369877,-2.8622822999999995,-1.7164755
271,1049643182,0.7282388000000001,-0.40576982,-0.1335542,-0.5358956,1.74594,-1.0480610000000001,-0.24531364,271,1049643182,0.109060906,-0.34166979999999997,0.24103191,-0.90181565,-1.9873165000000002,-2.1557796000000002,-0.40331936
272,1049659849,0.71677303,-0.41109297,-0.15167081,-0.5424358,0.52745587,-0.99045587,0.24799824,272,1049659849,0.09837481,-0.36046514,0.2338065,-0.89762014,-2.1647046000000003,0.026384977999999996,0.9087248
273,1049676516,0.70494616,-0.41551355,-0.17066666,-0.54888445,0.056239773,-1.0625296999999998,0.36410904,273,1049676516,0.08691309400000001,-0.37843952,0.22361895,-0.8939935,-2.2137232000000004,-0.81276673,0.74841595
274,1049693183,0.6923451,-0.41978094,-0.1898779,-0.5553289,1.04155,-1.0216484000000001,0.38471603,274,1049693183,0.07459578,-0.39609742,0.21293040000000002,-0.890058,-2.4107022000000002,-2.3182012999999997,-0.06577301
275,1049709850,0.67860806,-0.4244099,-0.20935678,-0.56172836,2.022957,-1.1546469,0.64349556,275,1049709850,0.061751664000000005,-0.41467017,0.20495412,-0.8844373,-2.4676397,-3.4756226999999997,0.103863716
276,1049726517,0.66355217,-0.42978927,-0.2282083,-0.56824523,1.1188719999999999,-0.9540238999999999,0.9518565999999999,276,1049726517,0.04957585,-0.43432558,0.19743207,-0.87745327,-1.8582255,-1.1855586,1.8472395000000001
277,1049743184,0.6477972,-0.4353835999999999,-0.2472726,-0.5741583,0.26573109999999994,-0.8730511999999999,1.2553816,277,1049743184,0.035884105,-0.45378882,0.19017573,-0.86983985,-2.1072478,-0.16211653,2.3775482000000006
278,1049759851,0.6321180999999999,-0.44020638,-0.26621880000000003,-0.57946026,0.37832832,-1.1533972,1.6950483,278,1049759851,0.022260409,-0.47188553,0.18067637,-0.8626613999999999,-2.517804,-0.9229075999999999,2.51799
279,1049776518,0.616023,-0.44501582,-0.28502068,-0.58415884,0.9563536,-1.4616853,2.1446838,279,1049776518,0.008212211,-0.49015677,0.17236324,-0.8543828000000001,-2.767502,-1.8672945,2.577714
280,1049793185,0.59914136,-0.45017347,-0.302834,-0.5887840999999999,0.9454681999999999,-1.3479215,2.56785,280,1049793185,-0.005584913,-0.50874877,0.16536823,-0.844865,-1.2082906,-1.6886081999999998,3.5603256
281,1049809852,0.58154124,-0.45588556,-0.31994253,-0.59297264,-0.44812828,-0.27536259999999996,1.7858438,281,1049809852,-0.020323219,-0.5270981,0.15859975,-0.834626,-0.49603838,1.2263135,3.2890462999999994
282,1049826519,0.56444484,-0.4602394,-0.3373511,-0.59647083,-0.64152664,0.17187476,2.3773165,282,1049826519,-0.034256447,-0.5439491999999999,0.14864081,-0.82513744,-0.46077344,0.8634283000000001,3.8744965
283,1049843186,0.5478393,-0.46321923,-0.35520992,-0.5992728,-0.6706193,-0.16158311,2.5827675,283,1049843186,-0.04653954,-0.56036454,0.13602170000000002,-0.8156739000000001,-1.0638508999999998,0.51501083,3.7110167
284,1049859853,0.53113014,-0.46586579999999994,-0.37337209999999993,-0.60121936,-0.23230328,-0.69323146,2.7163734,284,1049859853,-0.059038185,-0.5763019,0.12457707,-0.8055256,-1.6937470000000001,-0.9142121,3.6722555
285,1049876520,0.5143454000000001,-0.4691264,-0.39063025,-0.6023111999999999,-0.021879906,-0.24903612,2.2349443,285,1049876520,-0.072731055,-0.59178394,0.11602291,-0.79438084,-0.41532725,-0.7348479,3.3334446000000004
286,1049893187,0.49727276,-0.47386637,-0.40606955,-0.6027269000000001,-0.13412386,0.33136445,1.5362206,286,1049893187,-0.08953321,-0.60660243,0.11181105,-0.7819946999999999,0.6928523,0.13644293,2.9748888
287,1049909854,0.4805612,-0.47949368,-0.41858375,-0.60327107,-0.42990348,0.8547351999999999,1.152854,287,1049909854,-0.10678644,-0.6204234000000001,0.10847360000000002,-0.76935387,2.0179565,1.7572011000000003,2.704423
288,1049926521,0.46386036,-0.48585779999999995,-0.42875484,-0.60410804,-0.29147163,0.5365346,1.4826832,288,1049926521,-0.12459545,-0.6328491,0.105785765,-0.7568275,1.2284075,1.6016442,2.9621735
289,1049943188,0.4472725,-0.49239165,-0.43723834,-0.6052453000000001,-0.21435541,0.24607703,2.8437786,289,1049943188,-0.14114127,-0.64387697,0.1031585,-0.74488944,0.7117878000000001,1.0406247,3.752264
290,1049959855,0.43180066,-0.49813172,-0.44523820000000003,-0.60595185,-2.349782,0.6469531,2.8924227000000005,290,1049959855,-0.15684709,-0.6547805,0.100706205,-0.7324752,1.9498605,2.4661987,3.470336
291,1049976522,0.41816336,-0.50253356,-0.4534635,-0.6057819999999999,-3.9514802,1.3171978000000002,1.4264355,291,1049976522,-0.17306596,-0.6647042,0.09808454,-0.7201363000000001,3.0645814,3.7609582,2.8526583
292,1049993189,0.40654093,-0.50621194,-0.46052402,-0.60530406,-2.6991148,2.1407719,0.21737671,292,1049993189,-0.18741027,-0.67354095,0.09226264,-0.709019,4.2789307,4.312099,1.209444
293,1050009856,0.39598227,-0.51030976,-0.46621403,-0.60450643,-1.0182962,1.6408131000000001,0.24708462,293,1050009856,-0.20007192,-0.68124366,0.08564897,-0.6989584,3.5770302000000003,2.630042,0.72940826
294,1050026523,0.38679147,-0.51406306,-0.4716937,-0.6030241,-0.5047896,1.5222996000000002,0.89667606,294,1050026523,-0.2108219,-0.6875085,0.08116945,-0.6901434000000001,2.8485804,0.9984794,1.078618
295,1050043190,0.37907340000000006,-0.516742,-0.47753346,-0.60103637,-0.9143650999999999,1.0237423,1.378212,295,1050043190,-0.22089379,-0.69226956,0.08024989,-0.6822969,2.2699722999999996,0.9441511999999999,1.355793
296,1050059857,0.37211612,-0.51843715,-0.4825732,-0.5998978,-0.06320544,0.6552689,1.5757284,296,1050059857,-0.22869352,-0.695789,0.08100636,-0.67602897,2.426211,1.2748191,1.4448174999999999
297,1050076524,0.36601275,-0.51978594,-0.48648205,-0.5993281,0.6009101,1.0012021999999998,0.6703825,297,1050076524,-0.23191082,-0.69920635,0.08089032,-0.67140514,3.6824470000000002,1.8271060000000001,0.25068188
298,1050093191,0.3606638,-0.52198493,-0.48798275,-0.59943956,0.5955278,0.73241407,-0.20251370000000002,298,1050093191,-0.23250544,-0.70210356,0.08087380000000001,-0.6681701,3.6589417,1.4301728999999999,-0.5407486
299,1050109858,0.35560402,-0.5256704000000001,-0.48633459999999995,-0.6005802,0.37200904,0.730981,-0.02673912,299,1050109858,-0.23339810000000002,-0.70317775,0.08342933,-0.666413,2.6822371,0.41910043,-0.15399742
300,1050126525,0.35110047,-0.5296343000000001,-0.48371485,-0.60186166,-0.77463734,1.4733455,0.55975914,300,1050126525,-0.23476651,-0.70242137,0.089623004,-0.6659255000000001,2.283285,0.3507991,0.34775257
301,1050143192,0.34775925,-0.53267246,-0.48101327,-0.6032838,-1.4521619,0.84127504,0.44680786,301,1050143192,-0.23507070000000002,-0.7011126999999999,0.097586915,-0.6660779,2.3164507999999997,1.4161423,0.32277584
302,1050159859,0.34589005,-0.53515595,-0.47811220000000004,-0.6044655,-1.4448812,0.5700812,0.01917553,302,1050159859,-0.23384544,-0.6993496,0.10493889999999999,-0.66724414,2.0059001,1.9263165,0.28312016
303,1050176526,0.34541237,-0.53727156,-0.47516543,-0.60518503,-0.929889,0.82439536,-0.10828209,303,1050176526,-0.23126455,-0.69729817,0.11066709,-0.6693616,1.87925,1.59273,-0.22377682
304,1050193193,0.34586138,-0.5391008,-0.47309170000000006,-0.6049265,-1.1812508,1.7917316000000003,-0.17492485,304,1050193193,-0.22741789,-0.69550157,0.11505771,-0.6718041,2.1301074,1.3844073000000001,-0.56245804
305,1050209860,0.34746456,-0.5402199000000001,-0.47165444,-0.60413134,-1.8947811999999997,1.1815566000000002,-0.12994194,305,1050209860,-0.22290908,-0.694096,0.118058175,-0.6742438000000001,2.0219681,1.4856352,-0.29557133
306,1050226527,0.35059315,-0.54043764,-0.47048452,-0.6030401999999999,-1.3696668,0.49052107,0.2841158,306,1050226527,-0.21856129,-0.69229805,0.120163664,-0.6771376,0.9832204999999999,0.7643696999999999,0.47682095
307,1050243194,0.35497722,-0.5396093000000001,-0.46984613,-0.6017136,-0.14557913,0.45946562,0.33377266,307,1050243194,-0.21403483,-0.69004434,0.122304864,-0.6804922,0.43635708,-0.41246700000000003,0.5263758000000001
308,1050259861,0.35898855,-0.53873646,-0.46935672,-0.6004967,0.35690895,0.47635573,0.017468452,308,1050259861,-0.20986028,-0.6878184,0.12565918,-0.6834286,0.31498918,-0.6948973,-0.22499275
309,1050276528,0.36197305,-0.53863424,-0.46842822,-0.5995209,0.25535417,0.38897368,-0.14589024,309,1050276528,-0.20636521,-0.68564713,0.12978710000000002,-0.68589866,0.2905866,-0.3456183,-0.44088649999999996
310,1050293195,0.36447015,-0.5394225,-0.46672076,-0.59863037,-0.15981992,0.05429845,0.01691246,310,1050293195,-0.20395258,-0.68345255,0.13400394,-0.68799645,0.07636767,0.022072573999999998,-0.11006832
311,1050309862,0.36702082,-0.5401684,-0.46483445,-0.5978664,-0.26089785,0.045232095,0.26610374,311,1050309862,-0.20205557,-0.68119085,0.13796298,-0.6900137,-0.11863777,-0.18921523,0.26234055
312,1050326529,0.36971468,-0.540408,-0.46330285,-0.5971787,-0.2674745,0.08365978,0.15691566,312,1050326529,-0.20006287,-0.6791253,0.14138432,-0.6919353,-0.009855106,-0.28570086,0.045808792
313,1050343196,0.3722458,-0.5403326,-0.46228248,-0.5964649000000001,-0.01424504,0.114381865,0.17939377,313,1050343196,-0.19821069,-0.67736214,0.14444487,-0.6935626,-0.066359736,-0.40340444,-0.04340744
314,1050359863,0.37471116,-0.5397466,-0.4619885,-0.5956789000000001,-0.029330265,0.09245591,0.30872726,314,1050359863,-0.19614589999999998,-0.6758083,0.14672536,-0.6951849,-0.040128199999999996,-0.3682348,0.17033291
315,1050376530,0.37738514,-0.53867495,-0.46198925,-0.5949599,0.09001694,-0.06590726,0.19693851,315,1050376530,-0.19363886,-0.6744988000000001,0.14777459,-0.6969350000000001,0.05663424400000001,-0.36785559999999995,0.15791988
316,1050393197,0.37996579999999996,-0.5375587,-0.46180755,-0.5944678000000001,0.3110662,-0.14399017,0.13959122,316,1050393197,-0.19149728,-0.6732009,0.14833508,-0.69866043,-0.2658623,-0.800126,0.025580406
317,1050409864,0.38199803,-0.5368482,-0.4611856,-0.59429044,0.32888758,0.017449433,0.21330357,317,1050409864,-0.19043532,-0.6716982,0.14951631,-0.7001436,-0.29848263,-0.96536964,-0.058033943
318,1050426531,0.38364342,-0.536496,-0.46000183,-0.59446603,0.25868395,-0.27770254,0.5675286999999999,318,1050426531,-0.19098458,-0.669976,0.15170455,-0.7011725000000001,-0.40903977,-0.58581614,0.39537144
319,1050443198,0.38491344,-0.5363276,-0.45833963,-0.5950804,0.37112874,-0.29836476,0.96033955,319,1050443198,-0.19207688,-0.6682210999999999,0.15404584,-0.70203775,-0.22523303,-0.5726477,0.8562403000000001
320,1050459865,0.38554829999999995,-0.53629726,-0.45623067,-0.5963162,0.3518768,-0.19841915,0.56713486,320,1050459865,-0.19260661,-0.6663562,0.15570854,-0.7032973000000001,0.16139197,-0.60822725,0.6070880999999999
321,1050476532,0.38545358,-0.5365036,-0.45355263,-0.5982316,0.6278555,-0.06558138,0.37074566,321,1050476532,-0.19333343,-0.6643658,0.1568895,-0.7047171,0.37520390000000003,-1.0979928999999997,0.24315643
322,1050493199,0.38545763,-0.53585976,-0.45127064,-0.6005274,0.49130730000000006,0.61154306,0.57661533,322,1050493199,-0.19397002,-0.66225356,0.15736884,-0.70642143,0.9057149,-1.3227772,0.4005127
323,1050509866,0.38630605,-0.5333604999999999,-0.4502933,-0.6029359999999999,-0.24325049,0.8507699000000001,0.68291855,323,1050509866,-0.19376428,-0.66038996,0.15584625,-0.7085566999999999,1.4369186999999999,-0.58103067,0.60766315
324,1050526533,0.38792107,-0.52941066,-0.45027159999999994,-0.6053914,-0.23179053,0.46016356,0.47766972,324,1050526533,-0.1929553,-0.6582428000000001,0.15187569,-0.71163106,0.95295745,-0.64579064,0.8797302
325,1050543200,0.38968554,-0.5249618,-0.45041126,-0.6080228,0.9046221999999999,0.20046195,0.5145940999999999,325,1050543200,-0.19259214,-0.6551834,0.1469054,-0.7155851,0.2991801,-1.9343991000000003,0.84646225
326,1050559867,0.39076662,-0.5206654000000001,-0.44951662,-0.6116742,1.3716997,0.29427895,0.91911125,326,1050559867,-0.19374092,-0.65171826,0.14306255,-0.7192086999999999,0.46358195,-2.3479197,0.6460638000000001
327,1050576534,0.39089128,-0.51665115,-0.44746175,-0.61648613,1.3673465,0.47393329999999995,0.86734104,327,1050576534,-0.19618514,-0.6479136999999999,0.14079760000000002,-0.72242326,0.7169133000000001,-1.9751581000000002,0.7895279000000001
328,1050593201,0.3908913,-0.51245,-0.44490373,-0.62182105,1.2129053,0.3065926,0.91660976,328,1050593201,-0.19905537,-0.64343905,0.13887020000000003,-0.72600174,0.90565515,-1.8023155,1.226552
329,1050609868,0.39139146,-0.5077862,-0.44210932,-0.6273011,0.8754360000000001,0.30927143,0.94433784,329,1050609868,-0.20251878,-0.63797593,0.13705014,-0.7301989999999999,0.7118522,-1.8270102,1.3550434
330,1050626535,0.39221880000000003,-0.50256133,-0.43870148,-0.6333554,0.6685411,0.24597310000000003,0.9862652,330,1050626535,-0.2073073,-0.63162655,0.13611095,-0.7345376,0.5088706000000001,-1.8899764,1.2199116
331,1050643202,0.39241868,-0.49746376,-0.43419716,-0.6403215999999999,0.9699424000000001,0.19360983,0.96695423,331,1050643202,-0.21336472,-0.62464756,0.13632247,-0.73872006,0.4215334,-1.7589865000000002,1.1126652
332,1050659869,0.391864,-0.49266216,-0.42888448,-0.6479092,1.0486973999999998,0.18680632,1.1575278999999998,332,1050659869,-0.21967211,-0.6172194000000001,0.13687436,-0.74300075,0.50673336,-1.0654908,1.2421111999999999
333,1050676536,0.39110079999999997,-0.48750436,-0.423163,-0.65598357,0.7317597,0.15210079,1.2188826000000001,333,1050676536,-0.22514975,-0.6094915,0.13626446,-0.7478369,0.69436234,-0.71259874,1.4728565
334,1050693203,0.3905574,-0.48167309999999997,-0.41771317,-0.6640581999999999,0.2958272,0.38641122,1.2126045,334,1050693203,-0.23004605,-0.6014611999999999,0.13437515,-0.7531713000000001,0.6848405,-0.7143735,1.5524426000000002
335,1050709870,0.390342,-0.47506395,-0.4125179,-0.6721443,-0.27654865,0.47676766,1.24681,335,1050709870,-0.23521430000000002,-0.5930978,0.13171905,-0.75865644,0.6204953000000001,-0.6390551,1.5765114
336,1050726537,0.39026350000000004,-0.46759609999999996,-0.4074735,-0.6804522,-0.21870932,0.49097952,1.0720633999999998,336,1050726537,-0.24054599,-0.5846745,0.12810403,-0.7641225,0.70942116,-0.7442291999999999,1.3458796
337,1050743204,0.39033017,-0.45903847,-0.4027974,-0.6889717,0.26735502,0.19217856,1.1183405,337,1050743204,-0.24554299,-0.5761562,0.12318841,-0.7697906,0.57820284,-0.78146356,1.5333242
338,1050759871,0.3905416,-0.44945553,-0.3984836,-0.6976241,0.7306463000000001,0.07902893,1.0800896,338,1050759871,-0.25016305,-0.5671841,0.11731502,-0.7758596999999999,0.11547984,-0.9500841,1.7536811999999997
339,1050776538,0.39049414,-0.43974087,-0.39404872,-0.7063071,0.6103455,0.2107772,1.0212183000000001,339,1050776538,-0.25537634,-0.5574216,0.11179411,-0.78202724,-0.0011548914,-1.3540475,1.5890236
340,1050793205,0.38974040000000004,-0.43074759999999995,-0.3879362,-0.71558785,0.6139305,-0.15489693,1.0880861000000002,340,1050793205,-0.26250559999999995,-0.5467164000000001,0.10812819,-0.7877187,-0.14327765,-1.4609268,1.4753771
341,1050809872,0.38831059999999995,-0.42208847,-0.38036022,-0.7255232,0.9964394,-0.17688592,1.5041151000000001,341,1050809872,-0.27003664,-0.5356947,0.10508632,-0.7931384,0.2536045,-0.90625644,1.7846346000000002
342,1050826539,0.38689512,-0.41267595,-0.37261707,-0.73564196,0.41076875,0.07073425,1.7062386999999999,342,1050826539,-0.2758719,-0.5250227,0.09956732,-0.7989571,0.8969449,0.3365752,2.0939627
343,1050843206,0.38574612,-0.40201390000000004,-0.36566117,-0.7455724,-0.25245532,0.008708846999999999,1.5508242,343,1050843206,-0.2804521,-0.5142918,0.09064735,-0.80537826,0.24153431,0.10562350599999999,2.349596
344,1050859873,0.38507047,-0.39032185,-0.35947922,-0.7550800999999999,-0.15142769,-0.09464522,1.5876837,344,1050859873,-0.28540143,-0.5029524999999999,0.08086841,-0.81181616,-0.51048225,-0.93365633,2.4853257999999996
345,1050876540,0.38431644,-0.3783685,-0.35296372,-0.7645630999999999,0.06973135,-0.22301285,1.6362076,345,1050876540,-0.29183546,-0.4906043,0.07305416,-0.8178036999999999,-0.78393763,-1.0079072,2.1801615
346,1050893207,0.3829509,-0.3666002,-0.3453463,-0.7743969,0.3119491,-0.30140029999999995,1.688798,346,1050893207,-0.29916817,-0.4776973,0.06691247,-0.8233023000000002,-0.32453257,-0.6146590999999999,2.2399072999999996
347,1050909874,0.38118297,-0.3549541,-0.33658323,-0.7844873,0.09725551,-0.5523195,1.5520181999999998,347,1050909874,-0.30649093,-0.46446615,0.060718472999999995,-0.82864237,-0.06587938,0.23566346,2.2979088
348,1050926541,0.37949106,-0.34307054,-0.3269183,-0.79461634,-0.20560667,-0.6031306,1.7880964,348,1050926541,-0.31361940000000005,-0.4506986,0.053539008,-0.8340549,-0.35418457,0.42264077,2.5822515
349,1050943208,0.37808794,-0.33055845,-0.31712848,-0.8044946,-0.6749058000000001,-0.21051332,1.889432,349,1050943208,-0.32080036,-0.43641440000000004,0.045928888,-0.8393574,-0.20811486,0.5750156,2.4578648
350,1050959875,0.3766886,-0.31746840000000004,-0.30771106,-0.814024,-1.2000885000000001,0.026612906000000002,1.5024042,350,1050959875,-0.32806929999999995,-0.42203864,0.03757968,-0.84429973,0.058581155,1.0257796000000001,2.1976232999999996
351,1050976542,0.37541625,-0.30312905,-0.29959040000000003,-0.82305694,-1.2782075000000002,-0.11071088,1.1528053,351,1050976542,-0.33481625,-0.40747866,0.027453467000000002,-0.84917957,-0.43235692,1.1792803,2.1369743
352,1050993209,0.3744903,-0.28726393,-0.29285459999999996,-0.8315494000000001,-1.1336819,-0.37393504,0.8093815,352,1050993209,-0.34113026,-0.39248326,0.016014477,-0.8540089,-0.9258385,0.9406393,1.8584299
353,1051009876,0.37350076,-0.27086279999999996,-0.28586555,-0.83988875,-0.57154685,-0.8533818999999999,1.3080139,353,1051009876,-0.3480756,-0.37669295,0.005687030500000001,-0.85843694,-1.0074385000000001,0.54335195,1.9476957
354,1051026543,0.37244140000000003,-0.2544171,-0.27839613,-0.847972,-0.763957,-0.65177464,1.546812,354,1051026543,-0.35495487,-0.3607227,-0.0039213793,-0.8624796,-0.4200964,1.4849607,1.7464657
355,1051043210,0.37142262,-0.23745881,-0.27122325,-0.8556273000000001,-1.5436674,-0.26174206,1.1334505,355,1051043210,-0.3611318,-0.34536698,-0.015599116000000001,-0.8660614,0.040675845,2.5235038,1.3932114
356,1051059877,0.3702145,-0.21957196,-0.26540467,-0.86272323,-1.9732461,-0.3541308,0.33371735,356,1051059877,-0.36648235,-0.33053106,-0.030275686,-0.8692085999999999,-0.678675,2.5475953,0.83263874
357,1051076544,0.36884390000000006,-0.20083287,-0.26063436,-0.8693053,-1.5707396,-0.78233063,0.08982849,357,1051076544,-0.37168629999999997,-0.31572100000000003,-0.04610257,-0.8718052,-1.4369111,1.8259286,0.43511963
358,1051093211,0.36736637,-0.1822506,-0.25550285,-0.87552637,-1.0865993,-1.0329903,0.28042984,358,1051093211,-0.3772291,-0.30077806,-0.060566332,-0.8738209000000001,-1.2370975,1.5423949,0.20147419
359,1051109878,0.36554873,-0.16449033,-0.2500056,-0.8813716,-1.0037686,-0.9246948,0.113248825,359,1051109878,-0.38280749999999997,-0.2855922,-0.073102534,-0.8755293,-1.0446193000000001,1.7280868000000003,-0.12275505
360,1051126545,0.3632303,-0.14720762,-0.24442124,-0.886935,-1.3133098,-0.86779976,-0.9946184000000001,360,1051126545,-0.38791654,-0.2702119,-0.08500031400000001,-0.8770870000000001,-1.3312275,1.9115764,-0.73981094
361,1051143212,0.36048126,-0.13024563,-0.23822722,-0.8923781999999999,-1.1270008,-0.78920746,-1.2929001,361,1051143212,-0.3929296,-0.25430906,-0.09573077,-0.8785038000000001,-1.3769408,1.4624213,-1.1438131
362,1051159879,0.3580828,-0.11406016,-0.23138584,-0.89734566,-0.8184776,-0.7008068000000001,-0.8454695,362,1051159879,-0.39807075,-0.23804241,-0.10424795,-0.8797773000000001,-0.8490665999999999,1.4877058,-1.519208
363,1051176546,0.35607687,-0.099057995,-0.2238576,-0.90182394,-0.9536978000000002,-0.49857470000000004,-0.98502827,363,1051176546,-0.4029729,-0.22240839999999998,-0.11218393,-0.88066036,0.09581227,2.1410325,-1.9841428
364,1051193213,0.35414368,-0.08456084,-0.21671855,-0.9057960999999999,-0.89523995,-0.3410891,-1.4013109,364,1051193213,-0.40711188,-0.20758925,-0.12122695,-0.88117594,-0.16090839999999998,2.0886245,-2.0452237
365,1051209880,0.35205057,-0.069970496,-0.21094827,-0.9092123,-1.1310127,-0.14659542,-1.7616672999999998,365,1051209880,-0.41025200000000006,-0.19304113,-0.13071923,-0.8816695999999999,-1.0843003999999998,1.3007182,-2.337473
366,1051226547,0.3497417,-0.05576846,-0.20662935,-0.9120726,-1.2012602,-0.032827247000000004,-2.1575912999999995,366,1051226547,-0.4132,-0.17842141,-0.13832779999999997,-0.8822116,-1.2700884,0.76216924,-2.8995637999999997
367,1051243214,0.34749840000000004,-0.042734876,-0.20283686,-0.914482,-1.00213,0.07898287,-1.9336328999999999,367,1051243214,-0.4164959,-0.16430992,-0.14315458,-0.8826328000000001,-0.5188954000000001,0.6591223,-3.3953252
368,1051259881,0.34524754,-0.03078742,-0.19932647,-0.91658443,-0.6675337,0.14027946,-1.5871620000000002,368,1051259881,-0.41945699999999997,-0.15230794,-0.14814515,-0.8825597,0.611167,0.9720158999999999,-3.819583
369,1051276548,0.34275946,-0.019502282,-0.19630238,-0.9184783999999999,-0.21408102,0.042550378,-1.6891183999999997,369,1051276548,-0.42143,-0.14338045,-0.15583092,-0.88179135,1.2507903999999999,1.0463274,-3.9158473
370,1051293215,0.34008649999999996,-0.009030171,-0.19316061,-0.9202991,0.7023655,-0.102564566,-2.087628,370,1051293215,-0.4223697,-0.13648891,-0.16575122,-0.88062567,0.6037147,0.14841802,-3.3646064
371,1051309882,0.33824146,0.0005992842,-0.19048816,-0.9215790999999999,0.373724,0.24204189999999998,-2.0825996,371,1051309882,-0.42271640000000005,-0.12992983,-0.17546329,-0.8795693000000001,0.28511402,-0.13312216,-2.4240717999999997
372,1051326549,0.33739367,0.008740362,-0.18698485,-0.9225656999999999,-0.09845374,1.0069515,-2.4842286,372,1051326549,-0.42362959999999994,-0.12243432,-0.18129651,-0.87902206,0.31133473,-0.46517634,-3.3239875
373,1051343216,0.33722955,0.015276451000000002,-0.18336625,-0.92326665,0.17221981,0.51030564,-1.9429808000000002,373,1051343216,-0.4246367999999999,-0.11529468,-0.18468389999999998,-0.8787963,-0.007287193000000001,-0.48901459999999997,-3.3068385
374,1051359883,0.33726472,0.020455439,-0.17896293,-0.9240173,0.3415495,-0.3257541,-1.6605997,374,1051359883,-0.42487875,-0.10945631,-0.18717028,-0.87889993,-0.0925951,-0.43179002,-3.1004891
375,1051376550,0.33699250000000003,0.024808458999999998,-0.17487715,-0.9247920000000001,0.46579573,0.25213313,-1.5932779,375,1051376550,-0.42431647,-0.1041247,-0.18883795,-0.87946254,0.646474,-0.3701142,-2.8143196
376,1051393217,0.33704278,0.028351322,-0.17172654,-0.9252620999999999,0.1909398,1.0433788,-1.6864758000000002,376,1051393217,-0.42355429999999994,-0.09919744,-0.19050995,-0.88003856,1.3959888,-0.17004971,-2.5817533
377,1051409884,0.33761936,0.031190918999999998,-0.16847917,-0.9255575999999999,-0.25714287,0.9624868000000001,-1.4806298999999998,377,1051409884,-0.42301187,-0.09488467,-0.19260709,-0.8803186,0.63222563,-0.07175908,-2.24199
378,1051426551,0.33813038,0.03400204,-0.16600813,-0.9257185,-0.033703013999999996,0.35749507,-0.8100023000000001,378,1051426551,-0.42209104,-0.09156374,-0.19511126,-0.88056076,0.16385746,-0.3826159,-1.6149311000000002
379,1051443218,0.33829380000000003,0.036673762,-0.16520205,-0.9257011,-0.1935394,0.8208627000000001,-0.060221672000000004,379,1051443218,-0.420965,-0.08949958,-0.19707356,-0.88087493,1.260371,-0.46565723,-1.195838
380,1051459885,0.33795178,0.03907094,-0.16568916,-0.92564076,-0.2695328,1.1733447,-0.9835328999999999,380,1051459885,-0.41977359999999997,-0.08890877,-0.20063421,-0.8806995999999999,1.3593742,-0.13467033,-1.6238918
381,1051476552,0.33709705,0.041609995,-0.16708165,-0.9255915000000001,0.19202976,0.7335103000000001,-1.5350847,381,1051476552,-0.41867,-0.088596135,-0.20508562,-0.88023084,0.004408737,-0.5360839,-1.2396258999999998
382,1051493219,0.33703753,0.04400928,-0.16806507,-0.9253241,0.48917827,-0.33616892,-0.55730057,382,1051493219,-0.41765553,-0.087436445,-0.20745976,-0.8802724000000001,-0.46899578,-0.8913046,-0.907259
383,1051509886,0.3379196,0.04508538,-0.16751786,-0.9250497999999999,0.7284279,-0.57519156,0.08313274400000001,383,1051509886,-0.41661426,-0.08650537,-0.20775324,-0.88078856,0.40223202,-0.70897067,-1.0377035
384,1051526553,0.33844534,0.045146488,-0.16516021,-0.9252784,0.9575771999999999,-0.4039538,-0.22387218,384,1051526553,-0.41496018,-0.086398326,-0.20833583,-0.8814419,0.1569813,-0.6836346,-0.667079
385,1051543220,0.33832124,0.04565853,-0.16317058,-0.92565167,0.51017684,0.14445136,0.092659,385,1051543220,-0.4120827,-0.086928874,-0.2104949,-0.88222647,0.14094922,-0.5300689000000001,-0.12718391
386,1051559887,0.3383012,0.046293724,-0.16300209999999998,-0.92565715,-0.5222956,1.5731728999999999,-0.65184784,386,1051559887,-0.40934154,-0.08734155,-0.2130504,-0.882848,1.1956046999999999,-0.02100544,-0.7498255
387,1051576554,0.33835667,0.04702196,-0.16391268,-0.9254395000000001,-0.5066697,1.4744104,-0.93514156,387,1051576554,-0.40789428,-0.08719067,-0.21563575,-0.8829052,0.6600507,-0.47041720000000004,-0.71532154
388,1051593221,0.33814186,0.04825893,-0.16536826,-0.92519534,0.11690432,0.27445,-0.30518340000000005,388,1051593221,-0.40670505,-0.08723135,-0.21825717,-0.8828056999999999,0.00873986,-0.8290711,-0.18193913
389,1051609888,0.33750713,0.049573085999999995,-0.16664477,-0.92512846,0.5852783,-0.41635004,0.27926540000000005,389,1051609888,-0.40512129999999996,-0.08787055,-0.21964815,-0.88312554,-0.03731951,-0.93517816,-0.15341091
390,1051626555,0.33666176,0.051146448,-0.16837296,-0.92503786,0.27327270000000004,0.09137802,0.8600693000000001,390,1051626555,-0.40260178,-0.089760125,-0.22203389,-0.88349086,0.6805836999999999,-0.13393785,-0.027330399
391,1051643222,0.33598503,0.051909063,-0.16986592,-0.92496866,-0.19103147,1.3871541,-0.82396126,391,1051643222,-0.4006814,-0.091229856,-0.22539046,-0.8833635,1.2038841,0.10344582,-0.7989731
392,1051659889,0.33565944,0.052284542,-0.17157717,-0.9247496999999999,-0.47134283,1.142221,-0.8834504999999999,392,1051659889,-0.40019432,-0.09164535,-0.22833249,-0.88278544,0.24987218,-0.6075493000000001,-0.096673965
393,1051676556,0.33570305,0.053183275999999995,-0.1734499,-0.9243332000000001,-0.16232578,0.106766775,0.004732132,393,1051676556,-0.40036209999999994,-0.09174539999999999,-0.22954158,-0.8823854,0.07681822,-0.76727754,0.11337662
394,1051693223,0.3355081,0.053909875,-0.17436947,-0.92418873,0.35102442,-0.16452271,0.26246452,394,1051693223,-0.40036622,-0.09256927,-0.22991607,-0.88220006,0.38722256,-0.39008787,-0.13245392
395,1051709890,0.3349729,0.054378300000000004,-0.17471161,-0.9242908999999999,0.5445,0.112460025,0.053502083,395,1051709890,-0.39975455,-0.093915395,-0.23120402,-0.88199854,0.16498207,-0.2855048,-0.14145947
396,1051726557,0.33494002,0.05419999,-0.17454529,-0.9243447,0.3724863,0.34677896,-0.6258869,396,1051726557,-0.3992849,-0.09418299,-0.23206337,-0.8819568999999999,0.15404579999999998,-0.5241253,-0.18675327
397,1051743224,0.3356961,0.053376243,-0.17354868,-0.92430615,0.028011817,0.27952537,-0.21641827,397,1051743224,-0.39956367,-0.09315111,-0.23087762,-0.8822515,0.0747234,-0.5947366999999999,-0.05390072
398,1051759891,0.33674616,0.052448165,-0.17187274,-0.92429036,-0.08185966,0.26020455,0.1995573,398,1051759891,-0.40007126,-0.09209248,-0.22886473,-0.8826569,0.5140364000000001,-0.2557764,-0.051272392
399,1051776558,0.33731455,0.051761348,-0.17006333,-0.92445654,-0.02961122,0.32816276,0.4419012,399,1051776558,-0.4003593,-0.09201243,-0.22789054,-0.88278675,0.8918913,-0.014597071999999999,0.16439342
400,1051793225,0.33758664,0.051828407,-0.16936512,-0.9244815999999999,-0.33092043,0.6264966,0.14067173,400,1051793225,-0.400231,-0.09265448,-0.2287005,-0.88256836,0.7816386,0.27730227,-0.017974854
401,1051809892,0.3377988,0.05240082,-0.17053276,-0.9241572,-0.51633227,0.78608173,-0.16109753,401,1051809892,-0.40010202,-0.09300085,-0.23041151,-0.88214517,0.086351044,0.13360912,-0.10541534400000001
402,1051826559,0.33795023,0.05295712,-0.17235403,-0.923732,-0.44205713,0.3841926,-0.15583515,402,1051826559,-0.4003231,-0.09270516,-0.23112008,-0.8818906999999999,-0.15787357,-0.567585,0.0037260056
403,1051843226,0.33786738,0.053445082000000005,-0.17418121,-0.92339146,0.07100873,-0.15560032,0.3468132,403,1051843226,-0.40054140000000005,-0.09271502,-0.23093821,-0.8818381,0.060826033,-0.5529596999999999,-0.0080833435
404,1051859893,0.33741832,0.0538641,-0.17541102,-0.92329836,0.42094168,-0.29739138,0.47145844,404,1051859893,-0.40031716,-0.093534805,-0.23148602,-0.88170975,0.4279603,-0.15935495,0.028215407999999997
405,1051876560,0.33671874,0.05464249,-0.17686448,-0.9232308000000001,-0.010874352,0.20471713,0.7846221999999999,405,1051876560,-0.39947474,-0.09540171,-0.23418229999999998,-0.8811795,0.5525671999999999,0.17348103,0.21143627
406,1051893227,0.33606812,0.05539649,-0.17850298,-0.9231077,-0.1577603,0.7175842,-0.31141376,406,1051893227,-0.3986437,-0.09762555,-0.23883349,-0.88006324,0.7553123,0.19488475,-0.045449257
407,1051909894,0.33574936,0.056208155999999995,-0.18025884,-0.92283326,-0.032220285,0.45418203,-0.16749,407,1051909894,-0.39872932,-0.098979615,-0.24258734,-0.8788457000000001,-0.04261543,-0.69550836,0.31016636
408,1051926561,0.33579063,0.056748465,-0.18226726,-0.92239076,-0.21466525,0.17631727,-0.30005074,408,1051926561,-0.39928246,-0.09925261,-0.24312934,-0.8784139000000001,-0.6530632,-0.8714939,-0.1063385
409,1051943228,0.33565724,0.056676958,-0.1832623,-0.92224646,0.04351384,-0.35594159999999997,0.19354439,409,1051943228,-0.40004042,-0.099245965,-0.24166805,-0.8784728999999999,-0.29657286,-0.54136276,0.18850708
410,1051959895,0.33477926,0.056836005,-0.18399622,-0.9224097,0.3095866,-0.121282324,0.6244154000000001,410,1051959895,-0.40019497,-0.10018723,-0.24131726,-0.87839216,0.5919413,-0.2899329,0.043284416
411,1051976562,0.33394754,0.057162464,-0.18478050000000001,-0.92253435,0.25043258,0.44306397,-0.006444931,411,1051976562,-0.40002513,-0.10198264,-0.243058,-0.8777828000000001,0.91420126,0.27030129999999997,-0.35208702
412,1051993229,0.33374888,0.057203323,-0.18559477,-0.92244005,-0.11491899,0.48909193,-0.24230671,412,1051993229,-0.40035197,-0.10370815,-0.24633937,-0.8765159,0.25440305,0.14550489,-0.41172886
413,1052009896,0.33369099999999996,0.057287145,-0.18685156,-0.9222020000000001,-0.38647476,0.25385824,-0.20897293,413,1052009896,-0.40095827,-0.10484338,-0.24904005,-0.8753398000000001,-0.16502239999999999,-0.47743022,-0.17338562
414,1052026563,0.33327988,0.057571393,-0.18837443,-0.9220232,-0.17876142,0.15171953,-0.043777465999999994,414,1052026563,-0.40144083,-0.10624663,-0.25047067,-0.8745408000000001,0.20050861,-0.55788904,0.05092907
415,1052043230,0.33238226,0.057844747,-0.18988664,-0.9220199,0.22549294,0.16429383,-0.15965271,415,1052043230,-0.4015864,-0.10785964,-0.2513478,-0.87402475,0.06172802,-0.4214638,-0.08501816
416,1052059897,0.3315409,0.05810934,-0.19153279,-0.9219656999999999,0.21557702,0.20082337,0.08529091,416,1052059897,-0.40129265,-0.10906738,-0.25199315,-0.8738239999999999,0.08482395,-0.24416149999999998,-0.05382824
417,1052076564,0.33140218,0.05803053,-0.19303599,-0.9217069999999999,-0.21000947,0.44543478,-0.09560871,417,1052076564,-0.40132624,-0.10980492,-0.25234425,-0.8736148000000001,0.7453705,0.123656474,-0.39294624
418,1052093231,0.33148098,0.05777696,-0.19431410000000002,-0.921426,-0.16188085,0.29475433,-0.090987206,418,1052093231,-0.40170497,-0.11060341,-0.25320002,-0.8730923,0.2785637,0.03650123,-0.15428257
419,1052109898,0.33141395,0.05748856,-0.19533347,-0.9212527,-0.07564243,0.11767278,-0.24128723,419,1052109898,-0.40194064,-0.11138531,-0.25360593,-0.8727665000000001,-0.08603047,-0.4726321,-0.029374123
420,1052126565,0.33117336,0.057173517,-0.19656427,-0.9210969000000001,-0.047865633,-0.02794764,0.2581005,420,1052126565,-0.40209875,-0.11206092,-0.25273228,-0.87286055,0.015938709,-0.47145600000000004,0.0043258667
421,1052143232,0.33091053,0.05704058,-0.19786148,-0.9209218000000001,0.07295111,0.012628258,0.29320621,421,1052143232,-0.40169013,-0.11350834,-0.25312763,-0.8727471,0.5279961999999999,0.14978857,-0.20606995
422,1052159899,0.33060884,0.056712594000000005,-0.19896246,-0.9208132,0.25280747,0.2942437,0.12613297,422,1052159899,-0.40101242,-0.11519927,-0.25483444,-0.87234056,0.4035902,0.030839507000000002,-0.2364645
423,1052176566,0.33074380000000003,0.05613812,-0.20022817,-0.9205254999999999,-0.32266009999999995,0.35424557,-0.24464703,423,1052176566,-0.40054747,-0.11634065,-0.25600067,-0.87206113,-0.017280793,-0.16397424,-0.118097305
424,1052193233,0.3308035,0.055836685,-0.20229137,-0.92007124,-0.5793897,0.35354709999999995,0.17347622,424,1052193233,-0.40028400000000003,-0.11741259999999999,-0.25646820000000004,-0.8719011000000001,0.038939532,-0.29770043,0.04861164
425,1052209900,0.33021683,0.056080878,-0.20473070000000002,-0.9197274999999999,-0.20495859,0.33493227,-0.055218697000000004,425,1052209900,-0.39969844,-0.119403265,-0.25768483,-0.8715404,0.44503915,-0.15022556,-0.05232811
426,1052226567,0.32924944,0.05663681,-0.20732082,-0.91946006,0.22248669,0.19852605,-0.024477959,426,1052226567,-0.39908555,-0.12171144,-0.25969493,-0.87090516,0.2709966,-0.2001934,-0.12316608400000001
427,1052243234,0.32861283,0.057129398,-0.21047091,-0.91894156,-0.007413701,0.06263184,0.10845852,427,1052243234,-0.39836562,-0.124130055,-0.2621198,-0.87016666,0.12361646400000001,-0.04970431,-0.23800373
428,1052259901,0.32830766,0.05701950000000001,-0.21300990000000003,-0.91847223,0.03703375,0.14050029,-0.16928196,428,1052259901,-0.39810553,-0.1258643,-0.26379332,-0.8695306999999999,-0.09806284,-0.42455779999999993,-0.11311054
429,1052276568,0.32810277,0.056623652999999996,-0.21441431,-0.9182433000000001,0.44539359999999995,-0.1713481,-0.19299507,429,1052276568,-0.39775479999999996,-0.12725614,-0.26470944,-0.8692101999999999,-0.19592565,-0.7094782,0.41670704
430,1052293235,0.32800558,0.05604723,-0.21488369,-0.9182036,0.39331177,-0.08615177,0.08534622,430,1052293235,-0.39748308,-0.12799226,-0.2636173,-0.86955804,-0.031255383,-0.65858406,0.10977650000000001
431,1052309902,0.32821867,0.054947864000000006,-0.21534678,-0.9180853999999999,-0.17792156,0.42343947,-0.04213714599999999,431,1052309902,-0.39732063,-0.12874691,-0.261473,-0.8701681999999998,0.32982940000000005,-0.081697226,-0.8655567
432,1052326569,0.32848504,0.053257793,-0.21623622,-0.9178806,-0.48463905,0.5484886,-0.7397442,432,1052326569,-0.39756116,-0.12977241,-0.26054403,-0.8701848,0.30495700000000003,0.22919699999999998,-1.1778841
433,1052343236,0.32834800000000003,0.05201429,-0.21800844,-0.9175817,-0.31508270000000005,0.30106202,-0.56261826,433,1052343236,-0.3977349,-0.13163674,-0.26153302,-0.8695283000000001,0.32984220000000003,-0.025787165,-0.78701687
434,1052359903,0.3279141,0.051120995999999995,-0.22056301,-0.91717654,0.07046134,0.26813385,-0.40664482,434,1052359903,-0.39766642,-0.13430744,-0.26256365,-0.86884046,0.41761506,-0.37680292,-1.0000782
435,1052376570,0.32773614,0.04984585,-0.22358583,-0.9165781,0.041898564,0.36654115,-0.30433846,435,1052376570,-0.39739746,-0.13767764,-0.26280078,-0.86836404,0.31055745,-0.29937547,-1.030263
436,1052393237,0.32815248,0.04769988,-0.22626667,-0.9158853000000001,0.05854782,0.47093743,-1.1729326,436,1052393237,-0.39708245,-0.14112779999999997,-0.26266786,-0.86799455,0.19674633,-0.33659690000000003,-1.3642530000000002
437,1052409904,0.32845423,0.044967867,-0.22904636,-0.9152239999999999,0.0014323826999999999,0.49529582,-0.8667220999999999,437,1052409904,-0.39687076,-0.14417581,-0.261083,-0.8680686,0.35356542,-0.47135976,-1.0103865
438,1052426571,0.32893467,0.042203,-0.23250763,-0.9143100000000001,-0.16206472,0.66173315,-1.0773249,438,1052426571,-0.39630818,-0.14817561,-0.2589453,-0.8682923,0.8910549999999999,-0.046271707999999995,-2.193645
439,1052443238,0.32940817,0.03875066,-0.23653589,-0.91325855,-0.13928299,0.5907158,-1.3184223,439,1052443238,-0.39566317,-0.15350653,-0.25747636,-0.86809707,0.46389028,0.11415198,-2.5415509999999997
440,1052459905,0.32981136,0.034571722,-0.24091627,-0.912135,0.096348055,0.24602507,-1.4276761999999998,440,1052459905,-0.39434179999999996,-0.15982597,-0.25736517,-0.8675906999999999,0.18712656,-0.10410823,-2.553378
441,1052476572,0.33041131,0.029965471,-0.24588788,-0.910753,0.45006686,0.08897619,-1.3856325,441,1052476572,-0.39228520000000006,-0.16663323,-0.2571616,-0.86730266,0.08262061,-0.42948857,-2.2732706
442,1052493239,0.33176717,0.024521165,-0.25078985,-0.90908474,0.47639865,0.32390583,-1.5571222,442,1052493239,-0.38976890000000003,-0.17367524,-0.25489575,-0.8677244000000001,0.45368543,-0.37045359999999994,-2.3219166
443,1052509906,0.33400100000000005,0.017610086,-0.2549573,-0.907266,0.32280988,0.49471787,-1.7025032,443,1052509906,-0.3871383,-0.18092898,-0.25026047,-0.8687684999999999,0.5718042,-0.17784327,-2.8885584
444,1052526573,0.3370586,0.009410465,-0.25905278,-0.9050946,-0.09075838,0.50567496,-1.788846,444,1052526573,-0.3841062,-0.1891148,-0.24478509,-0.86993015,0.69216144,0.3968877,-3.4918489999999998
445,1052543240,0.34067655,0.00011016288999999999,-0.263696,-0.9024440999999999,-0.5422204,0.60653675,-2.4294004,445,1052543240,-0.38052294,-0.19880176,-0.23960309,-0.8707874,0.5832401999999999,0.86988986,-3.9114489999999997
446,1052559907,0.34458655,-0.009963423,-0.26927343,-0.8992519,-0.8829142,0.57602024,-2.5639806,446,1052559907,-0.37651697,-0.20945622,-0.23470776,-0.8713642,0.5525059,1.0494655000000002,-3.8564591
447,1052576574,0.34870523,-0.020547472,-0.27557805,-0.8955673000000001,-0.8786503000000001,0.29770723,-1.9508467,447,1052576574,-0.37151945,-0.2214452,-0.23089413,-0.87156373,0.7446901,1.2703196,-3.4049606
448,1052593241,0.35279676,-0.03132466,-0.28299782,-0.89132875,-0.45873713,0.6735714,-1.4875994,448,1052593241,-0.36470583,-0.2349465,-0.22869417,-0.87148684,1.1164446000000001,1.3421242,-3.276246
449,1052609908,0.35718283,-0.042296078,-0.2921301,-0.88616765,-0.22074173,0.7571767,-2.1909522999999997,449,1052609908,-0.35637763,-0.24938752,-0.22703508,-0.8713530999999999,0.49912864,1.2119677,-3.1597218999999996
450,1052626575,0.36254045,-0.053755175,-0.30244967,-0.8798869,-0.4072084,0.7226498,-2.9283813999999997,450,1052626575,-0.34742725,-0.26397106,-0.22424664,-0.87139404,-0.3518284,0.6693715,-3.131589
451,1052643242,0.36912670000000003,-0.06651474,-0.31308508,-0.87252545,-0.739858,-0.14988957,-2.1637855,451,1052643242,-0.33893305,-0.2780851,-0.21787873,-0.8719646000000001,-1.156772,0.46626708,-2.9991946
452,1052659909,0.37621546,-0.0804784,-0.32279173,-0.8647498,-0.9727396999999999,-1.0349252,-0.89199066,452,1052659909,-0.3294797,-0.29289144,-0.20987916,-0.87270206,-1.4320978000000002,1.4272866000000002,-1.8952913
453,1052676576,0.38236198,-0.09479637,-0.33257657,-0.856859,-1.2287714,-0.16968009,-1.0303974,453,1052676576,-0.31828720000000005,-0.30865973,-0.20206371,-0.8732658000000001,-0.08205596,2.5767322,-2.0590415
454,1052693243,0.3882452,-0.10948205,-0.34346393,-0.84812343,-1.6040851,0.63305366,-2.2500857999999995,454,1052693243,-0.30655354,-0.3249637,-0.19521403,-0.8731066999999999,0.47035128,3.1171439,-3.0252151
455,1052709910,0.39530697,-0.12458426,-0.35553092,-0.8377413,-1.7957147,0.02208537,-2.372655,455,1052709910,-0.29588136,-0.341143,-0.18847094,-0.8720979,-0.9863209999999999,2.3663836,-2.4038286
456,1052726577,0.40329155,-0.13985953,-0.36762953,-0.8262236,-1.4722921,-1.2251096000000001,-0.40771103,456,1052726577,-0.28444514,-0.3572607,-0.18178278,-0.8708681,-2.2851214,1.3238454,-0.25469970000000003
457,1052743244,0.41051576,-0.15488854,-0.378677,-0.81491816,-0.5123657,-1.4119825000000001,0.39711666,457,1052743244,-0.27053052,-0.3738305,-0.17419355,-0.8698971,-2.0533667,0.9058234000000001,0.6010131999999999
458,1052759911,0.41649709999999995,-0.1703193,-0.38921469999999997,-0.80376315,-0.5179183,-0.47345006,0.14480019,458,1052759911,-0.25624028,-0.39096382,-0.16332950000000002,-0.86879927,-0.6840916,1.7782606,-0.20924759
459,1052776578,0.42310867,-0.18630368,-0.3997575,-0.7914958000000001,-1.7287549,-0.15602405,-1.0638703999999999,459,1052776578,-0.24308383,-0.40805316,-0.15182775,-0.86680543,-0.77454424,3.0932097,-1.230093
460,1052793245,0.43082875,-0.20262507,-0.41131166,-0.7772735,-1.4908528,-1.1836495,-0.51918125,460,1052793245,-0.23032507,-0.42468599999999995,-0.14271551,-0.863843,-2.2270856,2.1348627000000002,-0.12884998
461,1052809912,0.43826990000000005,-0.21785639999999998,-0.42288640000000005,-0.7626446,-0.2378636,-1.4314816000000001,0.86991596,461,1052809912,-0.21467772,-0.44107070000000004,-0.1363637,-0.8606828999999999,-2.5675266,0.08102758,2.187395
462,1052826579,0.44395855,-0.23256561,-0.43435913,-0.7484304,-0.32117516,-0.5672322,0.76799774,462,1052826579,-0.19759387,-0.45722088,-0.1280809,-0.8576136000000001,-1.6642085,-0.31315294,1.9579535
463,1052843246,0.44932455,-0.24735452,-0.44473296,-0.73425984,-1.2486951000000002,-1.2679256,0.36351585,463,1052843246,-0.18396528,-0.47284174,-0.114300735,-0.85411525,-1.5942582,0.87476635,1.1969023
464,1052859913,0.45596972,-0.26308918,-0.45450035,-0.7185446999999999,-1.1403268999999998,-1.7293923,0.9699506999999999,464,1052859913,-0.17404667,-0.48754895,-0.097842865,-0.8499593000000001,-2.1564193,1.0781462,1.2888956
465,1052876580,0.46218833,-0.2789979,-0.46357250000000005,-0.7025983,0.5323891,-1.2154021000000002,2.7231512,465,1052876580,-0.16299738,-0.5019382,-0.08384879,-0.8452571,-2.3766408,-0.28327563,3.1600493999999997
466,1052893247,0.46563643,-0.29412577,-0.47274557,-0.6878853,0.6644718000000001,-0.2715897,2.1150627,466,1052893247,-0.14806245,-0.5166466,-0.074036255,-0.8400434000000001,-1.3611138999999999,-0.7359935000000001,3.240075
467,1052909914,0.46752602,-0.30799747,-0.4813646,-0.6744232,0.80770296,-0.622834,3.0276994999999998,467,1052909914,-0.1335625,-0.5317159,-0.06464439999999999,-0.8338228999999999,-0.7558368000000001,-0.6334727,3.7642546
468,1052926581,0.47068816,-0.32019064,-0.49078697,-0.6595911,-0.1667599,0.30372247,2.3341103,468,1052926581,-0.12037619,-0.54624844,-0.05613449,-0.82702565,-0.4915017,-0.62681526,3.3742389999999998
469,1052943248,0.47432193,-0.33285952,-0.49987754,-0.64369816,-0.58566874,-0.2702142,0.9941435,469,1052943248,-0.10891113,-0.5603866,-0.049253486,-0.8195607,-0.42456782,-0.73696125,2.1560116000000003
470,1052959915,0.47653690000000004,-0.34603566,-0.5077423,-0.62878555,1.6714574,-0.22488421,1.6284188999999998,470,1052959915,-0.09895001,-0.57356393,-0.043563433,-0.8119949000000001,-0.414127,-2.8993130000000003,2.5753288
471,1052976582,0.47677484,-0.35773322,-0.51458186,-0.6163763000000001,2.5949602,0.76829964,2.0145826000000002,471,1052976582,-0.08696036,-0.5858991,-0.040086746,-0.80470705,0.788327,-4.116691599999999,3.3035736000000004
472,1052993249,0.47572085,-0.36807492,-0.52002233,-0.60645604,1.3480816999999998,-0.023225678,2.866209,472,1052993249,-0.07665387,-0.59721255,-0.035381142000000004,-0.7976274999999999,0.6908755999999999,-3.6220907999999996,3.8102627
473,1053009916,0.47510532,-0.37818047,-0.5235905,-0.5975861,1.0071309000000002,-0.82132095,2.6853762000000003,473,1053009916,-0.07250645,-0.6067513000000001,-0.025661074,-0.7911619000000001,0.35013428,-3.8323338,4.1451910000000005
474,1053026583,0.47485438,-0.38870588,-0.52604336,-0.58881336,0.9780476,0.31534058,2.2139196,474,1053026583,-0.07289846,-0.61516917,-0.013517201999999999,-0.7849014,1.0133972,-3.1674013,3.0509644000000002
475,1053043250,0.47386864,-0.39958513,-0.5269165,-0.58149886,0.5023063,1.0558127,2.0769558,475,1053043250,-0.07420446,-0.6234599000000001,-0.002687625,-0.7783217,1.1962509,-0.6987394,1.8590707999999998
476,1053059917,0.47170976,-0.4109157,-0.5265309,-0.5756778,1.5290618,0.84140915,2.8125906,476,1053059917,-0.07571357,-0.6310798000000001,0.005898143000000001,-0.7719917,1.0968757,-0.92691994,2.6875668
477,1053076584,0.46871823,-0.42165420000000003,-0.5258804,-0.5709310000000001,1.9585533,0.52958554,3.4665574999999995,477,1053076584,-0.075615965,-0.637215,0.012659449,-0.7668632,1.1461762,-3.1491325,4.321892
478,1053093251,0.46626848,-0.429108,-0.5264274,-0.56686497,0.8781605,0.75501156,2.3767633,478,1053093251,-0.07552274,-0.6422378000000001,0.02028184,-0.7625063,1.8919793000000003,-3.6365092000000003,3.3986044
479,1053109918,0.46473473,-0.43365437,-0.5274297,-0.5637244,0.35965404,1.1992465,2.1566229999999997,479,1053109918,-0.07688122,-0.6468536,0.028143732,-0.758207,2.7920372,-2.0609906000000002,2.1298293999999998
480,1053126585,0.46353469999999997,-0.4361487,-0.52886784,-0.56143606,0.61425406,1.4062558,1.3402662,480,1053126585,-0.07600264,-0.65064317,0.031114485,-0.7549299,2.2057345,-0.35565224,1.4997549
481,1053143252,0.46229494,-0.4383606,-0.5301172,-0.55955404,1.6704283,0.71924233,0.7881689000000001,481,1053143252,-0.07287253,-0.6533181,0.029096427999999997,-0.7530064999999999,1.2785088,-1.0000954,1.4105396000000001
482,1053159919,0.4617821,-0.44007078,-0.5311873,-0.55761725,0.96136767,0.3339811,1.1248245000000001,482,1053159919,-0.070479006,-0.65499514,0.026379747000000002,-0.75187665,1.0963107,-2.3442182999999996,1.4189367
483,1053176586,0.46170008,-0.44128048,-0.53174233,-0.556198,-0.82807815,0.31464790000000004,1.2034254,483,1053176586,-0.07147354,-0.65627843,0.026762308999999998,-0.75064915,0.8637969000000001,-2.0274909,1.1323003999999999
484,1053193253,0.46150485,-0.44256344,-0.53164107,-0.55543697,-0.9553341999999999,0.31120223,1.2291155,484,1053193253,-0.075608276,-0.65732574,0.030110157999999998,-0.7491996,0.9020504999999999,-1.2108598999999998,1.0492563
485,1053209920,0.46142226,-0.44339470000000003,-0.5307043,-0.5557383,0.6922071,0.048638877000000004,1.3520346,485,1053209920,-0.08051157,-0.6574937,0.03385789,-0.7483807,0.84644437,-1.0854888999999999,1.5306711000000002
486,1053226587,0.4615438,-0.44273743,-0.5298901999999999,-0.55693686,1.4020936000000002,0.49479532,0.6438235999999999,486,1053226587,-0.08332938,-0.65678626,0.03602801,-0.74859214,1.0663989,-0.9278208,0.95078754
487,1053243254,0.4621896,-0.44113123,-0.52916837,-0.5583604999999999,0.7270005,0.3850699,0.62310886,487,1053243254,-0.08489356,-0.6560107,0.036940499999999994,-0.7490519,1.0689591,-0.17482843,0.40178204
488,1053259921,0.46280292,-0.43962896,-0.52812225,-0.5600254,0.41662029999999994,0.13591331,0.29414177,488,1053259921,-0.086338826,-0.65467536,0.036935802999999996,-0.7500545999999999,0.19914256,-0.40265885,0.31108665
489,1053276588,0.46292928,-0.43921423,-0.5264477,-0.56182,0.6807276999999999,-0.08981007,0.23069096,489,1053276588,-0.08775039999999999,-0.6529791,0.03667749,-0.75138104,-0.38683292,-0.83506346,0.20508003
490,1053293255,0.46250036,-0.4395492999999999,-0.5241166,-0.56408614,0.5945279,-0.37285949999999995,0.21408558,490,1053293255,-0.089631066,-0.65118873,0.037712723,-0.7526603000000001,-0.35667142,-0.82129365,0.09591198
491,1053309922,0.46171759999999995,-0.44023958,-0.52141213,-0.5666896,0.011413465,-0.3892865,0.197999,491,1053309922,-0.09238815,-0.64928514,0.040803045,-0.75380933,-0.3844499,-0.5225862,0.07370281
492,1053326589,0.4610013,-0.44108474,-0.5183242,-0.56944185,-0.55155665,-0.3290768,0.22848320000000003,492,1053326589,-0.09601994,-0.6471739000000001,0.045482673,-0.7549024999999999,-0.46815902,-0.1446662,0.12579441
493,1053343256,0.46024057,-0.44239268,-0.5146089,-0.57240456,-0.221519,-0.22788644,0.28726387,493,1053343256,-0.10013692,-0.6450389,0.05081729,-0.755854,-0.41606984,0.24273361,0.12860584
494,1053359923,0.45893908,-0.4443611,-0.5104025999999999,-0.5756816,0.17211704,0.09901401,0.17348385,494,1053359923,-0.10376334,-0.64306825,0.05591022,-0.75668406,-0.109487705,0.42985624,-0.06611061
495,1053376590,0.4573923,-0.44649390000000005,-0.5063467,-0.57883507,-0.14435227,0.15965016,-0.13277339999999999,495,1053376590,-0.106270574,-0.64124584,0.059947763,-0.7575732,0.060021553,0.6413220000000001,-0.3311348
496,1053393257,0.45616263,-0.44825032,-0.5029680000000001,-0.581388,-0.30730864,-0.056913998,-0.38794708,496,1053393257,-0.10818774,-0.63934785,0.06335144,-0.7586282,-0.24441639,0.02621969,-0.39983845
497,1053409924,0.45524499999999996,-0.44970304,-0.50010896,-0.5834482,-0.04254815,-0.26060292,-0.30003452,497,1053409924,-0.11030024,-0.63716805,0.06776011,-0.7597761,-0.49550262,-0.8244642,-0.32847595
498,1053426591,0.45412939999999996,-0.45127466,-0.49709612,-0.5856747,0.31987899999999997,-0.36384770000000005,0.027252197000000002,498,1053426591,-0.11306517,-0.6346938,0.07441035,-0.7608175,-0.67902696,-0.83942324,-0.23666763
499,1053443258,0.4526361,-0.45345268,-0.49332577,-0.58833057,0.64538985,-0.30398834,0.27658558,499,1053443258,-0.11627297,-0.63215506,0.0829298,-0.76156646,-0.65949064,-0.34393340000000006,0.014241219
500,1053459925,0.45103985,-0.45621148,-0.4888978,-0.59111303,-0.11419836,-0.10066330400000001,0.42768383,500,1053459925,-0.11925334,-0.62992406,0.09194817400000001,-0.76191866,-0.13516270000000002,0.5782093,0.16679764
501,1053476592,0.44953507,-0.45922637,-0.484324,-0.59368426,-1.1277937,0.25178936,0.3110428,501,1053476592,-0.12185356,-0.62784576,0.10018491,-0.7621840999999999,0.16616879999999998,1.3137305000000001,0.11314678
502,1053493259,0.44823998,-0.46229535,-0.4800509,-0.5957489,-1.0797094999999999,0.3930605,-0.026706696000000002,502,1053493259,-0.12431922599999999,-0.6255665,0.107432425,-0.76267284,0.28813344,0.77975315,-0.06986809
503,1053509926,0.44743869999999997,-0.46515837,-0.47614673,-0.59725386,-0.7861163000000001,0.50528747,-0.0016756057999999998,503,1053509926,-0.1266893,-0.6234851,0.11430560000000001,-0.76298803,0.4081691,0.47615802,-0.23316574
504,1053526593,0.44731513,-0.46739540000000007,-0.47318469999999996,-0.5979538000000001,-0.9938671,0.76523215,0.047745705,504,1053526593,-0.12870826,-0.62172496,0.120728925,-0.76309705,0.5507069,0.6995485,-0.21095657
505,1053543260,0.44791785,-0.46846065,-0.47163793,-0.59789085,-1.1190639,0.87984264,0.22920132,505,1053543260,-0.12955739,-0.62057537,0.12538417,-0.7631384,0.76996154,0.94987184,-0.12707424
506,1053559927,0.44950235,-0.46804538,-0.47151744,-0.5971215999999999,-0.9731136999999999,0.59414345,0.11559200000000001,506,1053559927,-0.12858126,-0.61994797,0.12707971,-0.7635328,0.6310784,1.2473893,-0.00833416
507,1053576594,0.45165372,-0.46686742,-0.4722755,-0.59581983,-0.33318943,0.09814409,-0.0915699,507,1053576594,-0.12650436,-0.61916435,0.12654924,-0.7646029999999999,0.1684751,0.36857542,0.10619259
508,1053593261,0.45406616,-0.46559300000000003,-0.47308415,-0.5943399,0.023072349,-0.121985994,0.031599045,508,1053593261,-0.12439706,-0.6182804000000001,0.12565708,-0.7658103,0.016531898,-0.40155852,-0.10220337
509,1053609928,0.45631757,-0.46456113,-0.47346073,-0.593122,0.18439215,0.074799955,0.28228474,509,1053609928,-0.122679725,-0.6176242,0.12559272,-0.7666269,-0.040068273,-0.34181836,-0.17324638
510,1053626595,0.45816657,-0.46372515,-0.47362992,-0.5922149999999999,0.21861593,0.214685,0.22271824,510,1053626595,-0.12065531,-0.6172286,0.12574828,-0.7672411,0.049814947000000005,-0.12405942,-0.010325431999999999
511,1053643262,0.45989558,-0.46296057,-0.4737581,-0.5913698000000001,0.038226302999999996,0.044171747000000004,0.051487923,511,1053643262,-0.118105575,-0.61683655,0.12551342,-0.7679912,-0.05276265,-0.023166113,0.005431175
512,1053659929,0.46168852,-0.46224117,-0.47377247,-0.59052366,0.064754605,-0.08233368,-0.09251976,512,1053659929,-0.115700796,-0.6161171,0.1253122,-0.768967,-0.14580579,-0.5347751999999999,-0.06585026
513,1053676596,0.4634437,-0.46159372,-0.47353628,-0.5898441,0.35929418,-0.059403487000000005,0.21026897,513,1053676596,-0.114152715,-0.61515266,0.12624505,-0.7698173,-0.280522,-0.79320276,-0.0015993118
514,1053693263,0.46522212,-0.46066633,-0.47337836,-0.5892957,0.47164208,0.036742177,0.5489054,514,1053693263,-0.11246153,-0.6143378,0.12798554,-0.7704294,-0.18512854,-0.590535,0.24875069
515,1053709930,0.4667708,-0.4593045,-0.47344026,-0.58908427,0.43323493,0.12352466,0.5653076,515,1053709930,-0.1096003,-0.61398095,0.1291995,-0.7709234,0.13018464,-0.07046799,0.36544323
516,1053726597,0.468026,-0.45755094,-0.47367504,-0.5892643,0.61499166,-0.0002586045,0.31735134,516,1053726597,-0.105368346,-0.6134763000000001,0.12905163,-0.7719391999999999,-0.07006363,-0.29607582,0.48758029999999997
517,1053743264,0.46904397,-0.45543188,-0.47443613,-0.5894843000000001,1.1919985,-0.037788216,-0.087984085,517,1053743264,-0.10041645,-0.61209196,0.12905948,-0.773695,-0.26606894,-1.5104146999999999,0.22963905
518,1053759931,0.46968767,-0.4535884,-0.47534170000000003,-0.58966345,1.3075545,-0.0824964,0.049720764,518,1053759931,-0.09576033,-0.6100827,0.13142638,-0.7754718,0.042998947,-1.9652549,-0.008573532
519,1053776598,0.46977222,-0.452263,-0.4757896,-0.5902525,1.0631924,-0.03262462,0.29103850000000003,519,1053776598,-0.09167563,-0.6077968,0.13670085,-0.7768474,-0.20833492,-1.5215068,0.0070762633999999994
520,1053793265,0.46932159999999995,-0.45144486,-0.47564095,-0.59135604,0.88436097,-0.4024021,0.15368652,520,1053793265,-0.08759926,-0.60544145,0.14419907,-0.7778007,-0.37935695,-0.643366,0.1410284
521,1053809932,0.46858649999999996,-0.45116317,-0.47480649999999996,-0.5928228,0.5895182,-0.82850575,0.08458614,521,1053809932,-0.08254719,-0.60237527,0.15226915,-0.77919483,-0.37044075,0.36189288,0.63445663
522,1053826599,0.46790507,-0.45102304,-0.47360542,-0.59442616,0.32499522,-0.47043398,0.25139332,522,1053826599,-0.07623539,-0.5981113,0.1598648,-0.7815974,-0.115632325,0.6799994,0.8056221
523,1053843266,0.46684992,-0.45124137,-0.47195205,-0.5964019,0.33347195,-0.0724068,0.4344759,523,1053843266,-0.06809096,-0.5932236999999999,0.16657485,-0.7846671,0.16875628,0.59442794,0.60471916
524,1053859933,0.46521685,-0.45205346,-0.4697853,-0.59876895,0.48796478,-0.19217265,0.2619009,524,1053859933,-0.05814233,-0.5882999,0.17272319,-0.7878386,0.24983396,0.6604154000000001,0.73620033
525,1053876600,0.46324095,-0.45354378,-0.46662515,-0.6016381,0.2930485,-0.22353800000000001,0.23417187,525,1053876600,-0.04666284,-0.5830841,0.17853703,-0.7911766,0.13547006,0.46353537,0.74651814
526,1053893267,0.46130338,-0.45514116,-0.463257,-0.6045166999999999,0.0674048,0.09251335,0.05842018,526,1053893267,-0.0342969,-0.57738763,0.18472801,-0.7945584,-0.15959424,0.11271484,0.26511097
527,1053909934,0.45922840000000004,-0.45712265,-0.46013227,-0.60698265,-0.22656323,-0.080821164,0.042977333,527,1053909934,-0.021678386,-0.5715995,0.19272986,-0.7972826999999999,-0.33148926,-0.015389314,0.07384491
528,1053926601,0.45712405,-0.45912390000000003,-0.45777753,-0.60883826,-0.48038432,-0.08997335,0.057043076,528,1053926601,-0.008263104,-0.5656829000000001,0.20262779999999997,-0.7992978000000001,-0.63966745,0.20159669,0.4403906
529,1053943268,0.45555335,-0.46047659999999996,-0.45636833,-0.6100508000000001,-0.67436695,-0.044426553,-0.0098257065,529,1053943268,0.006696053,-0.5587348000000001,0.21332426,-0.8014134,-0.61191684,0.83179086,0.8552264999999999
530,1053959935,0.45480109999999996,-0.4611501,-0.45532402,-0.6108831,-0.8464716999999998,-0.013911894,-0.21094227,530,1053959935,0.022955706,-0.55078036,0.22337656,-0.80387616,-0.13286825,1.3964359,0.68853855
531,1053976602,0.45446044,-0.46214926,-0.45395115,-0.6114031999999999,-0.65829974,-0.09745232,-0.41322422,531,1053976602,0.03985164,-0.54258287,0.23290938,-0.80608267,-0.08519997,1.1673278,0.25613785
532,1053993269,0.4543595,-0.46389753,-0.45230293,-0.61137575,-0.40129584,-0.3590713,-0.19819260000000002,532,1053993269,0.057288032,-0.53390354,0.24275371,-0.80792093,-0.51753676,0.6494254,0.40152454
533,1054009936,0.45426890000000003,-0.46626845,-0.45018184,-0.611205,-0.35579374,-0.37896264,0.053757668,533,1054009936,0.07546213,-0.5242074000000001,0.2534891,-0.8094786,-0.7389651999999999,0.32976535,0.78206253
534,1054026603,0.45426217,-0.46903,-0.44745675,-0.6110981,-0.46672678,-0.10672431,0.17692089,534,1054026603,0.09428732,-0.5136582000000001,0.26492944,-0.8106034000000001,-0.41857883,0.43787518,0.75828075
535,1054043270,0.45433490000000004,-0.47216204,-0.44403726,-0.6111263000000001,-0.56309664,0.3377178,0.12031555,535,1054043270,0.113709345,-0.5027109000000001,0.2769934,-0.8109420999999999,0.08205219,0.24934977,0.324337
536,1054059937,0.45451424,-0.47560635,-0.44050303,-0.6108799,-0.31997868,0.50238335,0.06264877,536,1054059937,0.13325073,-0.4921528,0.28988037,-0.80993795,0.39634836,0.08991787,0.3099928
537,1054076604,0.45493177,-0.479188,-0.43710070000000006,-0.6102135999999999,-0.26633090000000004,0.41045070000000006,0.2461853,537,1054076604,0.15322587,-0.48208696,0.30314603,-0.8075995,0.09213033,0.06997492,0.8452978000000001
538,1054093271,0.45614790000000005,-0.48226166,-0.43407172,-0.6090453,-0.56378776,0.36792959999999997,0.4395857,538,1054093271,0.17418666,-0.47108164,0.31549987,-0.8051095,-0.5279791,0.045702532000000004,1.3048162
539,1054109938,0.4582436,-0.48462492,-0.43164313,-0.60731965,-0.93309325,0.5419168000000001,0.50787926,539,1054109938,0.19561107,-0.45850740000000006,0.32630742,-0.8031383000000001,-0.37282264,0.07425218,1.0335120999999998
540,1054126605,0.46090528,-0.48643318,-0.429388,-0.60545576,-0.7604324,0.64687914,0.48107815,540,1054126605,0.21697767,-0.4457742,0.33618000000000003,-0.800743,0.17998666,0.045103515999999996,0.41694259999999994
541,1054143272,0.46373752,-0.48816000000000004,-0.42731178,-0.6033687,-0.44422573,0.49845603,0.39078617,541,1054143272,0.23838389,-0.43382719999999997,0.34580126,-0.7971126999999999,0.24109174,-0.38693154,0.34677600000000003
542,1054159939,0.46671867,-0.48963103,-0.42531925,-0.6012823,-0.17347556,0.5053217000000001,0.5473709,542,1054159939,0.25955500000000004,-0.42223886,0.35609254,-0.79217666,-0.03805822,-0.96951514,0.37571812
543,1054176606,0.47031704,-0.49028847,-0.42353803,-0.59919626,0.040912036,0.43885070000000004,0.6723899999999999,543,1054176606,0.28060050000000003,-0.41002494,0.3663882,-0.7867036999999999,-0.1085327,-1.1129959999999999,0.5171299
544,1054193273,0.47429812,-0.4905291,-0.42149898,-0.59729606,0.012666255,0.2754643,0.7505102,544,1054193273,0.3013918,-0.39747772,0.37593746,-0.78092617,0.22429670000000002,-0.91175234,0.48051167
545,1054209940,0.47850612,-0.49058140000000006,-0.41869935,-0.5958643,-0.1032413,0.3181405,0.69842243,545,1054209940,0.32154095,-0.38599628,0.38502616,-0.7741922,0.6894197,-0.78466505,0.087488174
546,1054226607,0.48261482,-0.49054468,-0.41526422,-0.5949840999999999,-0.0059643537,0.5622173,0.48593712,546,1054226607,0.3414032,-0.37566750000000004,0.39372143,-0.76635617,0.18947550000000002,-0.54687387,0.024978637999999997
547,1054243274,0.48707196,-0.49045375,-0.41188118,-0.5937773000000001,0.15209408,0.39445812,0.5091772,547,1054243274,0.36127064,-0.36504840000000005,0.40127796,-0.75841904,-0.36528265,-0.7309848000000001,0.6368971
548,1054259941,0.49230474,-0.48969886,-0.40843305,-0.5924655,-0.11957519,-0.01821586,0.7319937,548,1054259941,0.3809097,-0.35334322,0.40680479999999997,-0.7513764,-0.5554384,-0.73949987,0.75581074
549,1054276608,0.49738222,-0.48884952,-0.40473990000000004,-0.59145945,-0.2764882,0.192467,0.44802952,549,1054276608,0.39957336,-0.34138423,0.41091067,-0.7449501000000001,-0.040185284,-0.77428585,0.028255462999999998
550,1054293275,0.5021682,-0.48803553,-0.40093452,-0.59067893,0.04176943,0.24029878,0.39992237,550,1054293275,0.41741112,-0.32963488,0.41450447,-0.73844105,0.16707136,-0.9169761000000001,-0.5094929
551,1054309942,0.5070622,-0.48633006,-0.39745295,-0.59025735,0.48440465,0.25954258,0.4083252,551,1054309942,0.43449745,-0.31901973,0.41817259999999995,-0.7311432,0.36012563,-0.9711181999999999,-0.5382786
552,1054326609,0.51219445,-0.48405990000000004,-0.39372435,-0.59019125,0.47364184,0.07321279,0.31174278,552,1054326609,0.45157358,-0.30962813,0.42123708,-0.7230295,0.08739569,-0.7552232,-0.5276909000000001
553,1054343276,0.5172255,-0.48228097,-0.38947788,-0.5900774999999999,0.14873949,-0.14003198,0.193573,553,1054343276,0.46786845,-0.3009285,0.42384714,-0.71476924,-0.42336965,-0.5908629,-0.15734577
554,1054359943,0.5217288,-0.4811518,-0.38536529999999997,-0.5897347,0.08911774,-0.22721523,0.33579159999999997,554,1054359943,0.48277795,-0.29276738,0.42603797,-0.70689785,-0.713486,-0.64359117,-0.07612991
555,1054376610,0.5258931,-0.47911796,-0.38256809999999997,-0.5895130999999999,0.18337663,-0.18869925,0.12910557,555,1054376610,0.49743178,-0.28393888,0.42673242,-0.69988585,-0.57340604,-0.85048634,0.16225815
556,1054393277,0.5304666,-0.47612727,-0.38048676,-0.5891854999999999,-0.11165209999999999,-0.40239438,0.051143645999999994,556,1054393277,0.51163226,-0.27373517,0.42573875,-0.694297,-0.36855164,-0.59511936,-0.32119559999999997
557,1054409944,0.534854,-0.47435635,-0.37651923,-0.58919615,0.13968062,-0.44393316,0.07347107,557,1054409944,0.5239597,-0.26523453,0.42498472,-0.6888435,0.25514552,0.49300957,-0.8147439999999999
558,1054426611,0.5386465,-0.4738376,-0.37249365,-0.58871716,0.23757158,-0.17151892,0.04616928,558,1054426611,0.5340673,-0.26007602,0.42621586,-0.6822558000000001,0.13425104,0.38830134,-1.0567693999999999
559,1054443278,0.5421874,-0.4731734,-0.36866059999999995,-0.5884139,0.6932053,-0.1500476,-0.26621437,559,1054443278,0.54426205,-0.25516910000000004,0.42763948,-0.67512393,-0.86508834,-1.0788966,-0.1638956
560,1054459945,0.54560804,-0.47185352,-0.36540659999999997,-0.5883414,0.35261962,-0.10795184,-0.32545376,560,1054459945,0.55499554,-0.24905083,0.42746553,-0.66875046,-0.11487605,-1.0338113000000002,-0.277359
561,1054476612,0.549298,-0.4706996,-0.361292,-0.58837366,-0.14550258,-0.121416934,-0.2956953,561,1054476612,0.5656411,-0.24283832,0.42678264,-0.66252285,0.19812547,-0.29703376,-0.6655779000000001
562,1054493279,0.5525365,-0.47116090000000005,-0.3562465,-0.58804834,-0.38620803,-0.11277413,0.26065636,562,1054493279,0.575649,-0.23737370000000002,0.4268553,-0.6558025,-0.43201166,-0.683762,-0.46687126
563,1054509946,0.5553123000000001,-0.47120312,-0.35210186,-0.5878960999999999,0.09951568,-0.14110686,0.25068378,563,1054509946,0.58510846,-0.23263556,0.4267253,-0.64917994,-0.75325656,-0.59558815,0.18836498
564,1054526613,0.55795974,-0.47032055,-0.34947777,-0.5876617,0.4499641,-0.2679013,0.15687752,564,1054526613,0.5943605,-0.22692966,0.42534226,-0.64367914,-0.7057691999999999,-0.9411003000000001,0.15246487
565,1054543280,0.56045014,-0.46910150000000006,-0.34655496,-0.5879974,0.42819170000000006,-0.057155617,-0.1522522,565,1054543280,0.60376203,-0.22154312,0.42318140000000004,-0.63820684,0.07814974,-0.56592286,-0.5588436
566,1054559947,0.5627128,-0.46820563,-0.34321645,-0.58850825,0.50323296,0.07290233,-0.1494093,566,1054559947,0.61236423,-0.21766303,0.4215161,-0.6324218,0.43113324,-0.14143329999999998,-0.7189416999999999
567,1054576614,0.5649069999999999,-0.46760052,-0.3404502,-0.58849394,0.23066257,-0.006342850600000001,0.028845787,567,1054576614,0.6204195,-0.21492946,0.42019516,-0.6263556,-0.12850386,-0.5056792999999999,-0.5650835
568,1054593281,0.5671391,-0.46681663,-0.33787462,-0.5884538,0.20594741,-0.2036042,-0.014381409,568,1054593281,0.62763697,-0.2125174,0.41870698,-0.6209614,-0.31477576,-0.6800717,-0.27047825
569,1054609948,0.56896126,-0.46580866,-0.3358482,-0.5886538,0.22955887,-0.15509608,-0.10265446,569,1054609948,0.63424665,-0.21030433,0.4167415,-0.61630374,-0.027958117,-0.65099376,-0.6527004
570,1054626615,0.5702925999999999,-0.46469906,-0.33417466,-0.58919424,0.289806,-0.17078334,-0.2845993,570,1054626615,0.6401248,-0.20840319,0.4148887,-0.61210793,0.20051973,-0.48215467,-1.0277786
571,1054643282,0.5713331,-0.46370429999999996,-0.33250168,-0.589916,0.1805845,-0.1750359,-0.35553932,571,1054643282,0.6447858,-0.20679657,0.41310093,-0.6089616999999999,0.08492084,-0.46578836,-0.9351959000000001
572,1054659949,0.57184166,-0.46289095,-0.33149856,-0.5906263,0.076911256,-0.19005887,-0.4490795,572,1054659949,0.6480057,-0.20539302,0.41144620000000004,-0.6071365,0.08119108,-0.6043786999999999,-1.12955
573,1054676616,0.5715964,-0.4624655,-0.33120879999999997,-0.59135926,0.17630546,-0.11652826,-0.36107635,573,1054676616,0.64955103,-0.20418824,0.41012615,-0.6067845000000001,-0.08311418400000001,-0.6226133,-1.2285728
