sep=,
DeviceTag:,47,,,,,,,,,,,,,,,,,
FirmwareVersion:,1.6.0,,,,,,,,,,,,,,,,,
AppVersion:,2020.4,,,,,,,,,,,,,,,,,
SyncStatus:,Synced,,,,,,,,,,,,,,,,,
OutputRate:,60Hz,,,,,,,,,,,,,,,,,
FilterProfile:,General,,,,,,,,,,,,,,,,,
Measurement Mode:,Sensor fusion Mode - Complete (Quaternion),,,,,,,,,,,,,,,,,
StartTime:,2021-03-24 15:26:35.001 +0800,,,,,,,,,,,,,,,,,
© Xsens Technologies B. V. 2005-2021,,,,,,,,,,,,,,,,,,,

PacketCounter,SampleTimeFine,Quat_W,Quat_X,Quat_Y,Quat_Z,FreeAcc_X,FreeAcc_Y,FreeAcc_Z
1, 910126856, -0.22830454, -0.6949181, 0.25969657, -0.6304949, -0.10515754, -0.108403005, 0.07377148
2, 910143523, -0.22828776, -0.69481766, 0.2596529, -0.6306297, -0.104053944, -0.095068105, 0.10846901
3, 910160190, -0.22825933, -0.69470483, 0.25959852, -0.6307867, -0.08933807, -0.031846795, 0.13904476
4, 910176857, -0.22825629, -0.69453114, 0.25959662, -0.6309799, -0.1337857, -0.06603221, 0.07155514
5, 910193524, -0.22826238, -0.69443816, 0.25957173, -0.63109, -0.10917708, -0.0491486, 0.10326767
6, 910210191, -0.22829348, -0.6943813, 0.2595853, -0.63113576, -0.12768474, -0.029805677, 0.10098839
7, 910226858, -0.22827946, -0.6943326, 0.25957978, -0.6311967, -0.15682887, -0.06201166, 0.11212826
8, 910243525, -0.22820215, -0.69422555, 0.25951803, -0.6313679, -0.14234105, -0.029263433, 0.11535931
9, 910260192, -0.22821513, -0.69408333, 0.2594914, -0.6315304, -0.15733294, -0.094225354, 0.11063194
10, 910276859, -0.22820038, -0.69399256, 0.25946274, -0.63164735, -0.06697616, -0.0479005, 0.08859348
11, 910293526, -0.22826861, -0.69391006, 0.25951806, -0.6316906, -0.018128969, -0.045523778, 0.0878582
12, 910310193, -0.22828564, -0.69384533, 0.2595233, -0.63175344, -0.058625605, -0.1101939, 0.102519035
13, 910326860, -0.22834705, -0.69369704, 0.25958255, -0.63186973, -0.06568258, -0.07561868, 0.13214779
14, 910343527, -0.22839935, -0.69351727, 0.25962082, -0.6320323, -0.07492925, -0.03532164, 0.10737705
15, 910360194, -0.22835545, -0.6934196, 0.25961554, -0.6321575, -0.026597148, -0.020796092, 0.06948471
16, 910376861, -0.2282546, -0.6933565, 0.25955513, -0.6322879, -0.02112583, 0.009716108, 0.11119366
17, 910393528, -0.2282081, -0.693276, 0.25951156, -0.63241076, -0.040992107, -0.030216493, 0.111839294
18, 910410195, -0.22818075, -0.69318277, 0.2594912, -0.6325313, -0.10833528, -0.05876502, 0.09431839
19, 910426862, -0.22814435, -0.6930624, 0.2594646, -0.6326872, -0.113679975, -0.08023601, 0.123867035
20, 910443529, -0.22816256, -0.692835, 0.25944155, -0.63293904, -0.11324217, -0.033561476, 0.0957098
21, 910460196, -0.22811835, -0.6926702, 0.25938177, -0.6331598, -0.089661494, -0.065889046, 0.077521324
22, 910476863, -0.22808088, -0.69251937, 0.25933853, -0.63335615, -0.0786603, -0.07772898, 0.13828468
23, 910493530, -0.22806956, -0.6923361, 0.25931913, -0.6335685, -0.11624456, -0.032910496, 0.099383354
24, 910510197, -0.22816302, -0.6921412, 0.25937793, -0.6337237, -0.07899725, -0.04419745, 0.08851147
25, 910526864, -0.22821979, -0.6919632, 0.25940096, -0.63388807, -0.16465372, -0.039987028, 0.10430241
26, 910543531, -0.22824714, -0.6918861, 0.25943834, -0.633947, -0.09611063, -0.035204295, 0.07323074
27, 910560198, -0.22821993, -0.6918577, 0.25941762, -0.6339964, -0.08839429, -0.018864159, 0.10284519
28, 910576865, -0.22815412, -0.6917884, 0.25937423, -0.63411343, -0.07798244, -0.086703695, 0.09855461
29, 910593532, -0.22806886, -0.6917291, 0.25929195, -0.6342424, 0.009570713, -0.10331663, 0.08095646
30, 910610199, -0.22806318, -0.6916299, 0.2592934, -0.634352, -0.03240882, -0.042367663, 0.099767685
31, 910626866, -0.22810395, -0.6914625, 0.25929967, -0.63451725, -0.020259047, -0.063558035, 0.09231663
32, 910643533, -0.22811572, -0.6913437, 0.2593246, -0.63463235, -0.07202202, -0.048151508, 0.08456898
33, 910660200, -0.2280432, -0.691305, 0.2593418, -0.63469356, -0.033491183, -0.088640876, 0.09827995
34, 910676867, -0.22797383, -0.6912781, 0.25935218, -0.63474345, -0.09067742, -0.051363837, 0.13195992
35, 910693534, -0.2278947, -0.69122607, 0.25936064, -0.6348251, -0.077611804, -0.09877898, 0.09154987
36, 910710201, -0.22794417, -0.69109976, 0.25941023, -0.6349246, -0.093297884, -0.03373794, 0.12229729
37, 910726868, -0.22804256, -0.6909245, 0.25947985, -0.6350516, -0.06018198, 0.019294644, 0.07653427
38, 910743535, -0.22809759, -0.6908132, 0.25953653, -0.63512963, -0.048498847, -0.047044896, 0.08088875
39, 910760202, -0.22807649, -0.69076854, 0.2595803, -0.63516796, -0.014108809, -0.04941346, 0.10730934
40, 910776869, -0.22803196, -0.69068766, 0.25959283, -0.6352668, -0.0824299, -0.029670004, 0.104831696
41, 910793536, -0.22801799, -0.6905935, 0.259588, -0.63537616, -0.041727744, -0.03190614, 0.09511471
42, 910810203, -0.22798187, -0.69052726, 0.25957444, -0.6354666, -0.034588072, -0.036782634, 0.08993435
43, 910826870, -0.22801237, -0.6904478, 0.2595916, -0.63553494, -0.05864114, -0.052490678, 0.09671688
44, 910843537, -0.22800867, -0.69038415, 0.25961468, -0.6355961, -0.052189548, -0.08058022, 0.07384777
45, 910860204, -0.22794166, -0.6903773, 0.25965738, -0.6356101, -0.033044714, -0.06931438, 0.121071815
46, 910876871, -0.22786245, -0.69037575, 0.25969127, -0.6356264, -0.020692103, -0.039647065, 0.1253233
47, 910893538, -0.22790037, -0.69031847, 0.25978786, -0.63563555, -0.04375607, -0.0032028288, 0.10161781
48, 910910205, -0.22799705, -0.690205, 0.25985923, -0.6356949, -0.12331735, 0.04490945, 0.12521362
49, 910926872, -0.22803825, -0.69006217, 0.25988716, -0.6358238, -0.16535656, 0.008433032, 0.095173836
50, 910943539, -0.228105, -0.68992305, 0.2598975, -0.6359464, -0.19025987, -0.024161415, 0.11387253
51, 910960206, -0.22807887, -0.68987864, 0.25988996, -0.6360071, -0.10337463, -0.05497491, 0.045632362
52, 910976873, -0.22808048, -0.68982035, 0.25985235, -0.63608515, -0.099079385, -0.020684447, 0.13570976
53, 910993540, -0.22813164, -0.68974, 0.25986797, -0.6361475, 0.048738565, 4.4456727E-4, 0.09798622
54, 911010207, -0.22817647, -0.68969136, 0.25988355, -0.63617784, 0.033540968, 0.0021235966, 0.07837868
55, 911026874, -0.22822402, -0.68965304, 0.25987402, -0.6362062, -0.0030689447, -0.05965516, 0.10307026
56, 911043541, -0.22829549, -0.6895642, 0.25988743, -0.63627124, 0.004320673, -0.04925365, 0.099910736
57, 911060208, -0.22834513, -0.6895511, 0.25994098, -0.6362457, -0.029662237, -0.09374402, 0.0980854
58, 911076875, -0.22843741, -0.689494, 0.26004183, -0.6362333, -0.061035298, -0.06500293, 0.12456417
59, 911093542, -0.22856653, -0.689368, 0.2601215, -0.636291, -0.0774126, 0.02783664, 0.11403465
60, 911110209, -0.22864103, -0.68927866, 0.26016393, -0.6363437, 0.024771884, -0.015761016, 0.059264183
61, 911126876, -0.2287334, -0.6891936, 0.26018614, -0.6363935, -0.004982886, -0.037815597, 0.10712147
62, 911143543, -0.2288018, -0.689137, 0.26018983, -0.63642865, -0.016682448, -0.037007377, 0.08844471
63, 911160210, -0.22886913, -0.68910146, 0.26021442, -0.6364329, -0.115640126, -0.031189669, 0.09992981
64, 911176877, -0.2289043, -0.6890824, 0.26021072, -0.63644254, -0.12432573, -0.059678294, 0.08578777
65, 911193544, -0.22895046, -0.689064, 0.2602025, -0.6364491, -0.10763529, -0.0085050035, 0.12949657
66, 911210211, -0.22904317, -0.68896675, 0.26016456, -0.6365366, -0.0771113, 0.0136556355, 0.11257076
67, 911226878, -0.22902824, -0.6888912, 0.26004472, -0.6366727, 0.021357613, -0.10974777, 0.076664925
68, 911243545, -0.22908959, -0.6888298, 0.25999048, -0.6367393, 0.013582715, -0.09590058, 0.108008385
69, 911260212, -0.229176, -0.68876475, 0.2599606, -0.6367906, 0.0016689154, -0.10449901, 0.10596275
70, 911276879, -0.22922647, -0.6887344, 0.25996855, -0.636802, -0.030202467, -0.053771853, 0.09399605
71, 911293546, -0.2292654, -0.688681, 0.25998875, -0.6368375, -0.10249466, -0.042225845, 0.09868431
72, 911310213, -0.22937465, -0.68863004, 0.26001674, -0.6368419, -0.16686489, -0.0095687015, 0.106788635
73, 911326880, -0.22948068, -0.6886388, 0.26008123, -0.6367678, -0.13112427, -0.07805307, 0.0666666
74, 911343547, -0.22956581, -0.6886759, 0.26012585, -0.63667876, -0.09149441, -0.05311651, 0.106147766
75, 911360214, -0.22966425, -0.68867517, 0.26015317, -0.636633, -0.022206962, -0.0085893795, 0.122665405
76, 911376881, -0.22975308, -0.6886312, 0.26016495, -0.6366436, -0.074401766, -0.07339886, 0.108903885
77, 911393548, -0.22981119, -0.68855804, 0.26017034, -0.6366995, -0.034506936, -0.0016705359, 0.096058846
78, 911410215, -0.22982623, -0.6885288, 0.2601209, -0.6367461, -0.0522081, 0.026536576, 0.10303116
79, 911426882, -0.2299032, -0.68849266, 0.2601148, -0.63675976, -0.11136382, -0.036725413, 0.108504295
80, 911443549, -0.22995287, -0.6884749, 0.26008537, -0.636773, -0.07970103, -0.0732861, 0.10256672
81, 911460216, -0.23001121, -0.68846816, 0.26007935, -0.6367618, -0.06658434, -0.10195879, 0.10266209
82, 911476883, -0.2301306, -0.6884336, 0.26012218, -0.6367384, -0.11310281, -0.060504846, 0.11210823
83, 911493550, -0.23025858, -0.6883532, 0.26016152, -0.63676316, -0.030842775, -0.06512474, 0.10186386
84, 911510217, -0.23036918, -0.6882842, 0.26019216, -0.63678515, -0.08523404, -0.007164596, 0.102843285
85, 911526884, -0.23038487, -0.68831784, 0.2601641, -0.6367545, -0.013976656, -0.04577445, 0.07093811
86, 911543551, -0.23047973, -0.6883159, 0.26016945, -0.6367201, -0.097296365, -0.067724764, 0.113425255
87, 911560218, -0.23048438, -0.68834, 0.26013103, -0.6367081, -0.09272217, -0.12372559, 0.13848782
88, 911576885, -0.23057133, -0.6882976, 0.26016253, -0.63670945, -0.13360253, -0.013263371, 0.08747578
89, 911593552, -0.2305673, -0.6883248, 0.26018283, -0.6366732, -0.08502712, -0.078028485, 0.054079056
90, 911610219, -0.23064283, -0.6883178, 0.2602037, -0.63664514, -0.09703977, -0.03915444, 0.093972206
91, 911626886, -0.2306326, -0.6883669, 0.2601741, -0.63660777, -0.055824205, -0.059922706, 0.09201527
92, 911643553, -0.23072828, -0.68831813, 0.26017866, -0.636624, -0.014925245, -0.019385055, 0.1282196
93, 911660220, -0.23073976, -0.6882921, 0.2601612, -0.63665503, -0.029473647, -0.11032733, 0.09452534
94, 911676887, -0.23082219, -0.68823564, 0.26018754, -0.6366754, -0.06037012, -0.04361151, 0.09628868
95, 911693554, -0.23081651, -0.68823713, 0.2601515, -0.6366905, -0.009799367, -0.06330378, 0.07696152
96, 911710221, -0.23087403, -0.68825334, 0.2601851, -0.6366384, 0.016740227, -0.033676364, 0.07312107
97, 911726888, -0.2308755, -0.68835723, 0.26018375, -0.63652617, 0.051338077, -0.1141674, 0.09125328
98, 911743555, -0.23087643, -0.68847215, 0.26021373, -0.6363894, 0.058757365, -0.095136724, 0.08544636
99, 911760222, -0.2308245, -0.6885585, 0.2602147, -0.6363144, 0.0061267135, -0.10752404, 0.11326218
100, 911776889, -0.2308689, -0.6885651, 0.26025805, -0.6362734, -0.037399586, -0.06500416, 0.13127232
101, 911793556, -0.23089904, -0.68858093, 0.2602953, -0.63622993, -0.04069439, 0.0018642098, 0.09616947
102, 911810223, -0.23081489, -0.68866205, 0.2602432, -0.636194, -0.10571196, -0.0015797896, 0.06732082
103, 911826890, -0.23068534, -0.68880326, 0.26013547, -0.63613224, -0.042940415, -0.037341192, 0.08586311
104, 911843557, -0.23051856, -0.68895507, 0.26001352, -0.6360781, -0.052923564, -0.09107829, 0.09886074
105, 911860224, -0.23039272, -0.6891269, 0.25988352, -0.6359907, 0.029896256, -0.11259577, 0.08070278
106, 911876891, -0.23025547, -0.6892742, 0.25983962, -0.63589877, 0.012904185, -0.1420303, 0.11385536
107, 911893558, -0.23022443, -0.68938917, 0.25985152, -0.63578045, -0.095389515, -0.04995425, 0.13686371
108, 911910225, -0.23017876, -0.6894409, 0.25986362, -0.635736, -0.11077179, -0.018775983, 0.086411476
109, 911926892, -0.23009321, -0.68954164, 0.25984794, -0.635664, -0.05243167, -0.017406853, 0.065808296
110, 911943559, -0.23000376, -0.689683, 0.2598355, -0.63554806, -0.036627404, -0.07559197, 0.08963966
111, 911960226, -0.22993428, -0.6898007, 0.25978634, -0.6354658, -0.030183021, -0.11032119, 0.11368942
112, 911976893, -0.22987007, -0.6898998, 0.25973454, -0.6354023, 0.029739851, -0.021685787, 0.10352421
113, 911993560, -0.22974634, -0.69004214, 0.25969023, -0.6353109, -0.05252605, -0.05216133, 0.06897831
114, 912010227, -0.22948757, -0.69032985, 0.2595549, -0.63514704, -0.018125169, -0.054144226, 0.05508995
115, 912026894, -0.22919178, -0.69058603, 0.25934651, -0.6350605, -0.12150812, 0.013626691, 0.1149416
116, 912043561, -0.22886, -0.69091654, 0.2591226, -0.63491213, -0.061856877, -0.07899305, 0.054039955
117, 912060228, -0.22861286, -0.6912434, 0.25895488, -0.6347138, -0.12048427, -0.09545735, 0.12842178
118, 912076895, -0.22835766, -0.6915147, 0.2588012, -0.63457274, -0.07654749, -0.07422519, 0.12449837
119, 912093562, -0.22819966, -0.691697, 0.25869954, -0.6344722, -0.054395787, -0.057662766, 0.1353674
120, 912110229, -0.22801228, -0.6918955, 0.25865996, -0.63433933, -0.054939542, -0.11789962, 0.100159645
121, 912126896, -0.22800522, -0.6919772, 0.25878677, -0.634201, -0.16042636, -0.068012536, 0.123532295
122, 912143563, -0.22821833, -0.6918943, 0.2590426, -0.63411033, -0.22875042, -0.033470396, 0.13433361
123, 912160230, -0.22857139, -0.69173723, 0.25944638, -0.63398945, -0.23945384, -0.049236998, 0.115392685
124, 912176897, -0.22903962, -0.6915717, 0.25995472, -0.63379294, -0.19423656, -0.01775967, 0.10419464
125, 912193564, -0.22952996, -0.691427, 0.26041603, -0.63358396, -0.16628106, -0.04787234, 0.11946583
126, 912210231, -0.23003094, -0.69136083, 0.2609614, -0.63324994, -0.011853116, -0.046815794, 0.092907906
127, 912226898, -0.23055895, -0.69123673, 0.26152024, -0.63296294, -0.0075668637, 0.043122802, 0.12237167
128, 912243565, -0.23089613, -0.6911172, 0.26185712, -0.6328311, 0.009614857, 0.034288116, 0.11418724
129, 912260232, -0.23120554, -0.69099754, 0.26214883, -0.63272816, 0.0374544, 0.05341904, 0.104206085
130, 912276899, -0.23145775, -0.69093513, 0.2624213, -0.632591, -0.011203531, -0.04947873, 0.10371399
131, 912293566, -0.2317758, -0.69084096, 0.2626883, -0.63246673, -0.016677642, -0.05281544, 0.093034744
132, 912310233, -0.23212387, -0.6907435, 0.26297587, -0.6323258, 0.010810707, -0.013977829, 0.07400894
133, 912326900, -0.23243818, -0.69074184, 0.26326632, -0.63209146, -0.0017389308, -0.03989762, 0.101937294
134, 912343567, -0.23270817, -0.6907789, 0.2635771, -0.6318219, -0.013989788, -0.028977895, 0.0852232
135, 912360234, -0.23292704, -0.6907976, 0.26376423, -0.6316426, -0.038362756, 0.033021245, 0.12006283
136, 912376901, -0.23307623, -0.69081664, 0.26381034, -0.63154745, -0.0065146205, 0.10535004, 0.079419136
137, 912393568, -0.23312566, -0.6908616, 0.26374745, -0.6315063, 0.0029809922, 0.065535225, 0.100925446
138, 912410235, -0.2330567, -0.690909, 0.2635879, -0.6315465, -0.03710695, 0.009739018, 0.11373901
139, 912426902, -0.23293251, -0.690955, 0.26338604, -0.6316264, -0.066138096, -0.09805748, 0.07938194
140, 912443569, -0.23288918, -0.69101226, 0.2632828, -0.63162255, -0.016163843, -0.16436662, 0.12245846
141, 912460236, -0.23292162, -0.6911035, 0.26326674, -0.6315175, -0.09876518, -0.08753795, 0.13078213
142, 912476903, -0.23296843, -0.6911506, 0.2632325, -0.631463, -0.08249617, -0.032481015, 0.11386871
143, 912493570, -0.23301315, -0.6911802, 0.26321164, -0.63142276, -0.104856245, -0.06005916, 0.062924385
144, 912510237, -0.23306435, -0.6912067, 0.26317304, -0.631391, -0.08440536, -0.07634297, 0.106113434
145, 912526904, -0.23310874, -0.6912479, 0.26313767, -0.63134426, -0.11115679, -0.019360244, 0.11929321
146, 912543571, -0.2330292, -0.69128597, 0.2630638, -0.63136274, -0.15597533, -0.04938854, 0.10984421
147, 912560238, -0.23295355, -0.6913646, 0.26303566, -0.6313162, -0.16649882, -0.074558444, 0.101641655
148, 912576905, -0.23288321, -0.6914484, 0.2629896, -0.6312695, -0.15718146, -0.06802427, 0.12118912
149, 912593572, -0.2328596, -0.6915055, 0.26293468, -0.6312387, -0.07689667, -0.04223881, 0.11119652
150, 912610239, -0.2328142, -0.6915444, 0.2628868, -0.63123274, -0.08428791, -0.05589746, 0.10875893
151, 912626906, -0.23277315, -0.69153255, 0.26281375, -0.6312912, -0.0903122, -0.08021969, 0.09908104
152, 912643573, -0.23273008, -0.69151086, 0.26281348, -0.6313309, -0.11587398, -0.06840268, 0.09929943
153, 912660240, -0.23278014, -0.6914372, 0.2628339, -0.6313848, -0.17041712, -0.019688027, 0.10893154
154, 912676907, -0.23281583, -0.69141454, 0.26289374, -0.6313715, -0.081855476, -0.0104534775, 0.05292511
155, 912693574, -0.2328922, -0.69136685, 0.26292437, -0.63138276, -0.07674898, -0.017685015, 0.13484764
156, 912710241, -0.23286517, -0.6913569, 0.26289183, -0.63141716, -0.056140028, -0.06072769, 0.09847927
157, 912726908, -0.2328015, -0.69137067, 0.2628447, -0.6314451, -0.004039941, -0.08807841, 0.112091064
158, 912743575, -0.23275231, -0.6913785, 0.26285583, -0.6314501, -0.022536196, -0.060167454, 0.10629177
159, 912760242, -0.23266517, -0.6913619, 0.26282063, -0.631515, -0.10113112, -0.06016712, 0.09646511
160, 912776909, -0.2326975, -0.6913035, 0.2628508, -0.63155454, -0.070621654, -0.007149285, 0.08265114
161, 912793576, -0.23277852, -0.6912801, 0.26290575, -0.6315274, -0.13260923, -0.026149005, 0.08065605
162, 912810243, -0.23282854, -0.69131655, 0.2629208, -0.6314629, -0.034763586, -0.019668357, 0.093937874
163, 912826910, -0.23275605, -0.69139713, 0.26289213, -0.63141316, -0.035471227, -0.082980976, 0.09469032
164, 912843577, -0.23274213, -0.69146943, 0.26286453, -0.6313506, -0.00448462, -0.034908924, 0.12583828
165, 912860244, -0.23275098, -0.6914678, 0.26285726, -0.6313521, -0.03989684, 0.0074595213, 0.112939835
166, 912876911, -0.23268515, -0.6914903, 0.26278982, -0.63137996, -0.039387453, -0.0053525767, 0.09244919
167, 912893578, -0.23264423, -0.6914658, 0.26270577, -0.63145685, -0.061525963, -0.012784159, 0.120165825
168, 912910245, -0.23255563, -0.6914651, 0.26258713, -0.6315396, -0.06570314, -0.09189098, 0.07122898
169, 912926912, -0.23244657, -0.69152075, 0.2624578, -0.6315726, 0.021353925, -0.110133104, 0.087999344
170, 912943579, -0.23239681, -0.6916068, 0.2624223, -0.63151133, 0.061429743, -0.06802371, 0.09908199
171, 912960246, -0.2323024, -0.69169337, 0.2623916, -0.63146394, 0.08669487, -0.11566147, 0.11420727
172, 912976913, -0.232298, -0.6917382, 0.26241058, -0.6314088, 0.00913408, -0.077653095, 0.13534737
173, 912993580, -0.2322757, -0.69171137, 0.2624099, -0.63144654, -0.034285657, -0.036363658, 0.095041275
174, 913010247, -0.23216493, -0.6917713, 0.2623468, -0.6314478, -0.041896608, -0.06295365, 0.093811035
175, 913026914, -0.23204719, -0.69185615, 0.2622906, -0.63142157, -0.17411737, -0.047895472, 0.13309956
176, 913043581, -0.23195718, -0.6919268, 0.2622263, -0.631404, -0.14333758, -0.07528754, 0.09380627
177, 913060248, -0.23187433, -0.69199514, 0.26216045, -0.6313867, -0.058344927, 0.0018434231, 0.08521652
178, 913076915, -0.23168416, -0.6921642, 0.2620764, -0.6313061, -0.08316174, -0.03511612, 0.116830826
179, 913093582, -0.23155701, -0.69229865, 0.2620356, -0.6312222, -0.10196896, -0.1015064, 0.11970997
180, 913110249, -0.23144391, -0.6923905, 0.26200378, -0.63117635, -0.13764648, -0.016806945, 0.10503769
181, 913126916, -0.23131418, -0.692456, 0.26194626, -0.6311758, -0.15370819, -0.019044533, 0.1001091
182, 913143583, -0.23124588, -0.69252133, 0.2619468, -0.6311291, -0.16185546, 0.00851562, 0.09773922
183, 913160250, -0.23116162, -0.69257534, 0.2618974, -0.6311209, -0.15122518, -0.057565317, 0.1025238
184, 913176917, -0.23117276, -0.69257075, 0.26188785, -0.631126, -0.12547733, 0.0045026685, 0.12670803
185, 913193584, -0.23108657, -0.6925671, 0.26184338, -0.63117987, -0.056236867, -0.08544576, 0.09109688
186, 913210251, -0.23104031, -0.69253933, 0.26181278, -0.63124, -0.06403277, -0.0136403255, 0.11712265
187, 913226918, -0.23093854, -0.6924543, 0.26165998, -0.6314339, -0.05601531, -0.02498696, 0.12577152
188, 913243585, -0.23089792, -0.6923283, 0.26156703, -0.6316255, -0.016449716, 0.031944696, 0.09448719
189, 913260252, -0.2307658, -0.6923158, 0.26147145, -0.63172704, -0.10570017, -0.04724483, 0.078681946
190, 913276919, -0.23069738, -0.69233924, 0.2614176, -0.6317485, -0.059295528, -0.07744321, 0.093468666
191, 913293586, -0.23069459, -0.6923665, 0.26143366, -0.63171303, -0.06232329, -0.05539411, 0.088832855
192, 913310253, -0.23066165, -0.69240415, 0.26144248, -0.63168025, -0.05771373, -0.060960587, 0.109375
193, 913326920, -0.23065016, -0.6924562, 0.26146984, -0.631616, -0.06449902, -0.037726864, 0.1065321
194, 913343587, -0.23067185, -0.69249815, 0.26153225, -0.6315362, -0.10752979, -9.4311294E-4, 0.1240015
195, 913360254, -0.23070656, -0.6924894, 0.26153502, -0.63153183, -0.14999676, -0.0037629523, 0.10356617
196, 913376921, -0.23065878, -0.69248736, 0.2614738, -0.631577, -0.097653426, 0.04563039, 0.08025646
197, 913393588, -0.23060267, -0.69249916, 0.26142526, -0.6316046, -0.09614018, -0.048741806, 0.09612656
198, 913410255, -0.23060045, -0.6924978, 0.26142263, -0.63160795, -0.0831153, -0.043358833, 0.09058857
199, 913426922, -0.23067175, -0.69246036, 0.2614312, -0.6316196, -0.024936391, -0.0142757725, 0.13552284
200, 913443589, -0.23074934, -0.6923996, 0.26153666, -0.6316142, -0.031844337, -0.06410374, 0.107928276
201, 913460256, -0.23089054, -0.6923382, 0.26166156, -0.6315782, -0.12541452, -0.005660577, 0.15253162
202, 913476923, -0.23112836, -0.69216645, 0.26182064, -0.6316135, -0.14370033, 0.014210953, 0.10504627
203, 913493590, -0.23136583, -0.69198704, 0.2618963, -0.6316919, -0.12793994, 0.052937925, 0.08965206
204, 913510257, -0.23152924, -0.69185364, 0.2619444, -0.631758, -0.16341747, 0.009043222, 0.08392048
205, 913526924, -0.23164794, -0.691764, 0.26192963, -0.6318188, -0.02969582, -0.015309855, 0.107954025
206, 913543591, -0.23178044, -0.6916546, 0.26193196, -0.631889, 0.013388091, -0.02562386, 0.11191273
207, 913560258, -0.23178808, -0.69162077, 0.2618766, -0.6319462, 0.034370817, -0.06696616, 0.09584999
208, 913576925, -0.23188287, -0.69152635, 0.26186088, -0.6320212, -0.072097905, -0.060517475, 0.11965561
209, 913593592, -0.23197165, -0.69141895, 0.26186174, -0.6321057, -0.05903363, -0.051714975, 0.10647583
210, 913610259, -0.23210791, -0.6913154, 0.2618765, -0.632163, -0.068201065, 0.007805184, 0.13580132
211, 913626926, -0.23220815, -0.6911981, 0.26186204, -0.6322604, -0.0670084, -0.038428918, 0.072255135
212, 913643593, -0.23232657, -0.6911173, 0.26186615, -0.63230354, -0.04657563, -0.08923934, 0.10493755
213, 913660260, -0.23258464, -0.6909548, 0.2619211, -0.6323635, -0.032827348, -0.0065742983, 0.129282
214, 913676927, -0.23280823, -0.69080144, 0.2620077, -0.63241285, -0.01815618, -0.026454322, 0.07405472
215, 913693594, -0.23290834, -0.69073164, 0.26201862, -0.6324476, -0.063323624, -0.062270038, 0.09990692
216, 913710261, -0.23300311, -0.69063395, 0.26196522, -0.63254154, -0.10336944, 0.018733514, 0.13716125
217, 913726928, -0.23307815, -0.6904908, 0.26189688, -0.6326986, -0.1253459, -0.033348244, 0.11353779
218, 913743595, -0.23325416, -0.69033647, 0.2618886, -0.6328055, -0.09022542, -0.029551094, 0.07236576
219, 913760262, -0.23345862, -0.6901465, 0.26189688, -0.6329338, -0.05414523, 0.0035242406, 0.11838055
220, 913776929, -0.23364899, -0.6900081, 0.26190272, -0.633012, -0.030224148, -0.07761957, 0.076239586
221, 913793596, -0.23383486, -0.6898914, 0.26186508, -0.63308614, 0.03136725, -0.023343358, 0.10393429
222, 913810263, -0.23391846, -0.68974024, 0.26178458, -0.63325334, 0.016452566, -0.081624135, 0.121341705
223, 913826930, -0.23398922, -0.6896142, 0.26168472, -0.6334057, 0.032843217, -0.12321621, 0.090569496
224, 913843597, -0.23407221, -0.6894809, 0.2616351, -0.6335407, 0.07713253, -0.0049850093, 0.10463333
225, 913860264, -0.2340503, -0.68941486, 0.26156518, -0.63364935, -0.011157655, -0.10436937, 0.078927994
226, 913876931, -0.23400484, -0.6893396, 0.2614761, -0.63378483, 0.0052577513, -0.0384183, 0.10617447
227, 913893598, -0.23402815, -0.68924564, 0.2614585, -0.6338857, -0.081937835, -0.13577496, 0.1029892
228, 913910265, -0.23407748, -0.6891856, 0.26145384, -0.6339347, -0.0824979, -0.13543421, 0.068873405
229, 913926932, -0.23415859, -0.6890842, 0.26147047, -0.6340081, -0.06399456, -0.07355342, 0.1263628
230, 913943599, -0.2342741, -0.6889132, 0.26150757, -0.634136, -0.054564375, -0.00822293, 0.1021471
231, 913960266, -0.23426403, -0.6887847, 0.26148647, -0.6342879, -0.026864916, -0.032620374, 0.09114838
232, 913976933, -0.23429035, -0.68861985, 0.2614871, -0.6344568, -0.15456027, -0.0075093647, 0.10694599
233, 913993600, -0.23422126, -0.688506, 0.26139742, -0.634643, -0.10634545, -0.103879996, 0.093011856
234, 914010267, -0.23409699, -0.688465, 0.26128158, -0.634781, 5.164267E-4, 0.008209854, 0.101587296
235, 914026934, -0.23392892, -0.68839604, 0.26111454, -0.63498634, 0.0463334, -0.10099008, 0.13134193
236, 914043601, -0.23384343, -0.68823886, 0.26097777, -0.6352443, 0.06445628, -0.015047674, 0.14923859
237, 914060268, -0.2337909, -0.6879933, 0.26090583, -0.63555926, -0.056551963, -0.0904253, 0.1392889
238, 914076935, -0.23364352, -0.68771785, 0.26077726, -0.6359642, -0.11158533, -0.09005438, 0.14570713
239, 914093602, -0.23356062, -0.6873179, 0.26061925, -0.6364916, -0.057774242, -0.069597356, 0.19517612
240, 914110269, -0.23361036, -0.68662745, 0.26037496, -0.63731784, -0.0630007, -0.050505992, 0.28766918
241, 914126936, -0.23406796, -0.68543357, 0.26030374, -0.63846326, -0.39800566, 0.14997284, 0.33878803
242, 914143603, -0.23484115, -0.6836129, 0.2601423, -0.6401947, -0.44452435, 0.27617618, 0.22479439
243, 914160270, -0.23549962, -0.6815372, 0.25962436, -0.6423726, -0.2764625, 0.6064948, 0.039527893
244, 914176937, -0.23547855, -0.6795129, 0.258544, -0.64495534, -0.13441265, 0.25283194, 0.07469845
245, 914193604, -0.23537728, -0.67740524, 0.25734952, -0.64768153, -0.17888245, 0.14493261, 0.069597244
246, 914210271, -0.23501556, -0.67513967, 0.25602758, -0.6506953, -0.4712171, -0.06635429, 0.17358208
247, 914226938, -0.23486756, -0.6724687, 0.25501522, -0.65390414, -0.70744485, -0.18441685, 0.11443901
248, 914243605, -0.23508726, -0.66931516, 0.25435805, -0.65730774, -0.9690243, -0.10301969, 0.17682648
249, 914260272, -0.23582838, -0.66589826, 0.25409308, -0.660607, -0.9825424, 0.23353595, 0.25648022
250, 914276939, -0.23649642, -0.662482, 0.25398195, -0.66383773, -1.1444215, 0.34372726, 0.21700859
251, 914293606, -0.2369735, -0.65943396, 0.25375065, -0.66678435, -0.93629473, 0.40596446, 0.13606453
252, 914310273, -0.23728892, -0.65666765, 0.25317776, -0.66961396, -0.9858256, 0.3889424, 0.26813793
253, 914326940, -0.23687278, -0.6540825, 0.25194225, -0.6727503, -0.7315452, 0.17395063, 0.20473957
254, 914343607, -0.23596351, -0.6516432, 0.25022846, -0.6760683, -0.37895164, 0.27999893, 0.22719097
255, 914360274, -0.23437999, -0.6491828, 0.24768291, -0.67991257, 0.10046879, 0.4741502, 0.22657776
256, 914376941, -0.23242372, -0.6463769, 0.24461634, -0.68435305, 0.062762044, 0.2968917, 0.23169613
257, 914393608, -0.23077078, -0.64327174, 0.24180795, -0.6888219, -0.05137032, -0.3062341, 0.21307755
258, 914410275, -0.22957492, -0.6396177, 0.23962595, -0.6933717, 0.011892398, -0.7196057, 0.23708916
259, 914426942, -0.2293694, -0.63526094, 0.23831767, -0.6978812, -0.39787424, -0.7743608, 0.2915144
260, 914443609, -0.22970389, -0.6301839, 0.23769456, -0.7025711, -0.47885817, -0.9270639, 0.15415764
261, 914460276, -0.22980478, -0.624629, 0.2370417, -0.7077005, 0.21532904, -0.43584567, 0.008285522
262, 914476943, -0.2298016, -0.61861014, 0.23598836, -0.7133181, 0.85008264, -0.43011817, 0.17826366
263, 914493610, -0.23034202, -0.6118689, 0.2354345, -0.7191175, 0.6941392, -0.25727916, 0.28034878
264, 914510277, -0.23172338, -0.60402524, 0.23665555, -0.72488093, -0.14862041, -0.25002348, 0.30938625
265, 914526944, -0.23336038, -0.59482974, 0.2388018, -0.73122805, -0.5662257, -0.45279524, 0.09491444
266, 914543611, -0.23450813, -0.5852539, 0.24026465, -0.73807657, 0.06519314, -0.34988305, 0.06777954
267, 914560278, -0.23484366, -0.57523966, 0.2405264, -0.7457178, 0.8360879, -1.1867101, 0.24553967
268, 914576945, -0.23505847, -0.5648532, 0.23950705, -0.7538734, 0.8147457, -1.2706368, 0.45600414
269, 914593612, -0.23682483, -0.5532994, 0.23965845, -0.7617993, 0.14801402, -1.1469152, 0.026457787
270, 914610279, -0.23881, -0.54235077, 0.2408542, -0.76864487, -0.57892805, -0.7493484, -0.6056261
271, 914626946, -0.23922028, -0.53331155, 0.24147402, -0.77462447, 0.67455125, 0.38218832, -1.2740412
272, 914643613, -0.23993452, -0.52065045, 0.23980257, -0.78348553, 0.98653245, 1.0150515, 0.56026745
273, 914660280, -0.23591414, -0.51332366, 0.23692104, -0.79038733, 1.1124908, -0.5970624, -1.0503635
274, 914676947, -0.23371157, -0.50458753, 0.23472859, -0.79729116, -0.2747765, -0.67649204, 0.049879074
275, 914693614, -0.23337173, -0.49573845, 0.23477755, -0.80290765, -1.1013136, 0.13215303, 0.17647362
276, 914710281, -0.23270552, -0.48456118, 0.23335677, -0.8103046, -0.336772, -0.24763124, -0.27642536
277, 914726948, -0.23231485, -0.47345737, 0.23164569, -0.81744033, 0.9385479, -0.8869676, -1.2538786
278, 914743615, -0.23237802, -0.46299142, 0.22969286, -0.82394236, 0.85597146, -0.63066536, -0.4280386
279, 914760282, -0.23188269, -0.45277107, 0.22757049, -0.8303258, -0.04008079, -0.8495124, -0.18159866
280, 914776949, -0.23203677, -0.44181967, 0.22647093, -0.8364603, -0.3140794, -0.3464055, -0.6999998
281, 914793616, -0.2328563, -0.4311655, 0.22567639, -0.84198874, -0.08994245, 0.39499468, -1.1204538
282, 914810283, -0.23384283, -0.42091236, 0.22431517, -0.8472504, 0.5338147, 0.65256745, -0.36598206
283, 914826950, -0.2346575, -0.41126332, 0.22393245, -0.85185254, -0.106654406, -0.2581291, 0.055916786
284, 914843617, -0.2344912, -0.40236703, 0.22331247, -0.85629815, 0.050220847, 0.321946, 0.26550007
285, 914860284, -0.23390931, -0.39358172, 0.22202742, -0.8608624, -0.4542656, 0.22560045, 0.14025784
286, 914876951, -0.23361748, -0.38380584, 0.22023007, -0.8658032, -1.4147865, -0.0706026, -0.38388538
287, 914893618, -0.23366487, -0.373927, 0.21914418, -0.87037677, -0.75036573, -0.2143011, 0.07425976
288, 914910285, -0.23409382, -0.36456493, 0.21861401, -0.8743575, -0.52563745, 0.7867491, 0.43977356
289, 914926952, -0.23354085, -0.35613644, 0.21682481, -0.8784149, -0.4244475, 1.4520975, 0.55319977
290, 914943619, -0.23203959, -0.34807536, 0.2141885, -0.8826805, -1.1931545, 0.5434192, 0.19978905
291, 914960286, -0.23028067, -0.3399574, 0.21155757, -0.8869294, -1.1459359, -0.22691493, 0.0731926
292, 914976953, -0.22938316, -0.33172908, 0.20918275, -0.8908323, -0.5988682, -0.6226052, 0.03847599
293, 914993620, -0.22909689, -0.32370988, 0.20681667, -0.8944014, 0.29046887, 0.19265409, -0.1304512
294, 915010287, -0.22902335, -0.31612852, 0.20414852, -0.89773875, 0.84907186, 0.70196545, 0.17679596
295, 915026954, -0.22877948, -0.3086782, 0.20116152, -0.9010616, 0.1840599, 0.65491205, 0.1268549
296, 915043621, -0.22790936, -0.30115685, 0.19837257, -0.90443933, -0.044173397, 0.8353487, 0.05338192
297, 915060288, -0.22651872, -0.29373482, 0.1956777, -0.9078104, 0.11857516, 0.8029426, 0.32487106
298, 915076955, -0.22545977, -0.28659767, 0.19262522, -0.9110025, 0.0021470096, -0.35434136, 0.33589172
299, 915093622, -0.2249705, -0.2795159, 0.18986183, -0.91389936, -0.0992416, -1.4142199, -0.34451866
300, 915110289, -0.22506972, -0.2719712, 0.18816982, -0.9164976, 0.0762985, -1.1211823, 0.0040273666
301, 915126956, -0.22512154, -0.26465094, 0.1866844, -0.9189283, -0.18673214, -0.02335146, 0.34182644
302, 915143623, -0.22463377, -0.25762844, 0.18508957, -0.9213629, -0.051600926, -0.3054603, 0.10796833
303, 915160290, -0.22411045, -0.2508574, 0.18325326, -0.9237227, 0.2450122, -0.6911687, -0.10382843
304, 915176957, -0.22435132, -0.2441249, 0.18133536, -0.92584413, 0.36552978, -0.5908318, -0.12684345
305, 915193624, -0.22519973, -0.23748039, 0.17966828, -0.9276896, 0.2011429, -0.5759364, 0.099663734
306, 915210291, -0.225754, -0.23117226, 0.17843865, -0.9293839, -0.31640518, -0.37525243, 0.44718266
307, 915226958, -0.22542964, -0.22535907, 0.17730889, -0.9311051, -0.042919572, 0.042291053, 0.206851
308, 915243625, -0.22489676, -0.2196886, 0.17583741, -0.93286663, 0.6494923, 0.18052074, -0.2147274
309, 915260292, -0.22473241, -0.21393022, 0.17374305, -0.93463516, 0.9464048, 0.24033345, -0.03194809
310, 915276959, -0.22483148, -0.20815301, 0.17139724, -0.9363474, 0.47181273, 0.42357758, 0.26121902
311, 915293626, -0.22457796, -0.20260115, 0.1693535, -0.9379963, 0.12184465, 0.32019243, 0.20886993
312, 915310293, -0.22376852, -0.19726485, 0.16752294, -0.9396545, 0.2430089, 0.38938832, 0.49996376
313, 915326960, -0.22247632, -0.19219004, 0.16542128, -0.9413839, 0.54824597, 0.19834277, 0.41634846
314, 915343627, -0.22109316, -0.18735889, 0.16309229, -0.9430884, 0.65462923, -0.24078852, 0.075901985
315, 915360294, -0.21982011, -0.18264498, 0.16058934, -0.9447388, 0.49613538, -0.2191895, 0.24708843
316, 915376961, -0.21855639, -0.17832914, 0.1576803, -0.9463452, 0.48435324, 0.16831374, 0.101327896
317, 915393628, -0.21744372, -0.17462516, 0.1546427, -0.9477923, 0.12996684, -0.59683645, -0.0218544
318, 915410295, -0.21658814, -0.17121407, 0.15201235, -0.9490354, -0.892096, -0.7608182, 0.47000217
319, 915426962, -0.21610862, -0.16796039, 0.14952159, -0.95012105, -0.8705149, -0.7048254, 0.5405369
320, 915443629, -0.2161026, -0.16512606, 0.14697208, -0.9510167, -0.34017608, -1.2965652, 0.26634216
321, 915460296, -0.21673931, -0.16255388, 0.1450141, -0.9516152, -0.2683138, -1.428722, 0.24154186
322, 915476963, -0.21786456, -0.16023088, 0.14392856, -0.951917, -0.14238554, -1.1111441, 0.22989845
323, 915493630, -0.21916471, -0.15825497, 0.14322133, -0.95205575, 0.03295858, -0.5896099, 0.08454704
324, 915510297, -0.22061402, -0.15648754, 0.14274101, -0.9520853, -0.054846447, -0.49883264, -0.050923347
325, 915526964, -0.22204866, -0.1549121, 0.14265423, -0.9520225, -0.039528377, -0.29256794, -0.06234455
326, 915543631, -0.22341757, -0.15335554, 0.14277984, -0.95193535, 0.40536097, -0.060767893, -0.0037851334
327, 915560298, -0.22464478, -0.15186468, 0.14305943, -0.9518437, 0.5751, 0.20737502, 0.052536964
328, 915576965, -0.22573422, -0.15029976, 0.14359994, -0.9517529, 0.43544292, 0.27855816, 0.106987
329, 915593632, -0.22643052, -0.1488534, 0.14401492, -0.9517521, 0.43523633, 0.43955615, 0.08431816
330, 915610299, -0.22684458, -0.14754525, 0.14418806, -0.95183104, 0.39964882, 0.7048233, 0.20058823
331, 915626966, -0.22708829, -0.14632954, 0.14403252, -0.95198405, 0.30240208, 0.8878652, 0.16295624
332, 915643633, -0.22708611, -0.14522232, 0.14354816, -0.95222735, 0.32191145, 0.76207703, 0.12113571
333, 915660300, -0.22687744, -0.14429171, 0.14277941, -0.95253396, 0.3214776, 0.5746634, 0.17248917
334, 915676967, -0.22659588, -0.14350964, 0.1418323, -0.9528606, 0.21725205, 0.46205127, 0.2117567
335, 915693634, -0.22636856, -0.14286254, 0.14075577, -0.95317155, 0.043598242, 0.36422232, 0.27271366
336, 915710301, -0.22615428, -0.14227624, 0.13963799, -0.9534745, -0.11961991, 0.2234578, 0.13446331
337, 915726968, -0.22581783, -0.14169978, 0.13853486, -0.95380086, -0.16582365, 0.14356391, 0.1435566
338, 915743635, -0.225277, -0.14124498, 0.13738813, -0.9541621, -0.08006815, 0.20425916, 0.19175434
339, 915760302, -0.22446181, -0.14098975, 0.1360819, -0.95457894, 0.13914165, 0.14010145, 0.14318562
340, 915776969, -0.2234648, -0.14083128, 0.13461794, -0.9550436, 0.2024934, -0.014883029, 0.07501888
341, 915793636, -0.22242852, -0.14067987, 0.13306764, -0.955525, 0.18287894, -0.19443886, 0.06396961
342, 915810303, -0.22150931, -0.14054038, 0.13163015, -0.9559581, 0.07864627, -0.349268, 0.052539825
343, 915826970, -0.2207159, -0.14041938, 0.13050207, -0.956314, -0.041427203, -0.50965434, 0.05275345
344, 915843637, -0.22001947, -0.14030273, 0.12961492, -0.9566122, -0.042036444, -0.5254196, 0.04918289
345, 915860304, -0.21943954, -0.14012545, 0.12884098, -0.95687586, 0.0061318544, -0.53617954, -0.11918068
346, 915876971, -0.21900743, -0.13979694, 0.12803951, -0.95713055, 0.013311482, -0.56140864, -0.1307087
347, 915893638, -0.21881233, -0.13935128, 0.12707372, -0.95736885, -0.11684489, -0.6277414, -0.005675316
348, 915910305, -0.21881115, -0.13896225, 0.12604788, -0.9575613, -0.19394116, -0.6705848, -0.014822006
349, 915926972, -0.21898127, -0.13861948, 0.12519765, -0.9576835, -0.2551401, -0.7227565, 0.027396202
350, 915943639, -0.21923792, -0.13819721, 0.124640286, -0.9577586, -0.20815524, -0.6670686, 0.033890724
351, 915960306, -0.21942927, -0.13775235, 0.12435368, -0.95781606, -0.12876178, -0.5964859, -0.0033330917
352, 915976973, -0.21947518, -0.1373356, 0.12417175, -0.9578891, -0.05849882, -0.54433364, 0.037267685
353, 915993640, -0.21938951, -0.1369855, 0.12409642, -0.9579685, 0.049864314, -0.5150262, 0.060359
354, 916010307, -0.21924873, -0.1367265, 0.12412085, -0.95803463, -0.015098942, -0.41600832, 0.04441738
355, 916026974, -0.21910898, -0.1363842, 0.12437941, -0.9580818, -0.16271517, -0.41033483, 0.06429386
356, 916043641, -0.21892738, -0.13603659, 0.1247044, -0.9581304, -0.067221686, -0.3477298, 0.065039635
357, 916060308, -0.21880193, -0.13561848, 0.12504967, -0.95817345, -0.047526315, -0.17894925, 0.07518196
358, 916076975, -0.21876253, -0.13523072, 0.12545818, -0.9581838, -0.044778, -0.11293414, 0.10838318
359, 916093642, -0.21876198, -0.13487515, 0.12585625, -0.95818186, -0.08236875, 0.013481799, 0.11498451
360, 916110309, -0.21881072, -0.13449106, 0.12624949, -0.958173, -0.11122546, 0.07657104, 0.13127804
361, 916126976, -0.21884757, -0.13415633, 0.1265687, -0.9581694, -0.041031756, 0.008919173, 0.09554005
362, 916143643, -0.21890509, -0.13388951, 0.12680468, -0.9581623, 0.050963998, -0.12377443, 0.07912159
363, 916160310, -0.21910106, -0.13360518, 0.12710273, -0.9581179, 0.024089975, -0.15684153, 0.06367588
364, 916176977, -0.21939977, -0.13325052, 0.12741016, -0.95805794, 0.07267158, -0.17928547, 0.044708252
365, 916193644, -0.2197699, -0.13285069, 0.12769918, -0.95799017, 0.08812613, -0.24557893, 0.021536827
366, 916210311, -0.22016175, -0.13242242, 0.127985, -0.9579213, 0.09859064, -0.19134699, 0.049144745
367, 916226978, -0.22055386, -0.13205612, 0.12822989, -0.957849, 0.1059897, -0.1198351, 0.08000374
368, 916243645, -0.22093706, -0.13171148, 0.12841313, -0.95778364, 0.029672826, -0.10630441, 0.079003334
369, 916260312, -0.22127926, -0.13136485, 0.1285109, -0.957739, -0.04354985, -0.0778637, 0.07474804
370, 916276979, -0.22157563, -0.13103198, 0.12856962, -0.95770824, -0.09609356, -0.068909466, 0.09134865
371, 916293646, -0.22179335, -0.1307131, 0.12866071, -0.95768917, -0.14094898, -0.113513485, 0.110198975
372, 916310313, -0.22192468, -0.13040015, 0.12874977, -0.9576894, -0.14718783, -0.104224004, 0.10037708
373, 916326980, -0.22199966, -0.13011074, 0.12875356, -0.957711, -0.11132884, -0.11001964, 0.09877205
374, 916343647, -0.22206374, -0.12985204, 0.12876551, -0.95772964, -0.13421355, -0.20622146, 0.052336693
375, 916360314, -0.22211283, -0.1295994, 0.12884174, -0.9577422, -0.13453156, -0.2553537, 0.020590782
376, 916376981, -0.22217223, -0.12932998, 0.12901329, -0.9577419, -0.11888953, -0.28775868, 0.07784653
377, 916393648, -0.2222202, -0.12907346, 0.12922584, -0.95773673, -0.10056155, -0.25885785, 0.10974026
378, 916410315, -0.22227727, -0.12885372, 0.12942277, -0.95772636, -0.023041587, -0.23789042, 0.09164333
379, 916426982, -0.22230071, -0.12866618, 0.12967595, -0.95771194, 9.070156E-4, -0.25669312, 0.05748844
380, 916443649, -0.2223501, -0.12847811, 0.12992918, -0.9576913, 0.062505566, -0.24187155, 0.05328369
381, 916460316, -0.22245681, -0.12826845, 0.13016821, -0.9576622, 0.08561362, -0.23691437, 0.062978745
382, 916476983, -0.222637, -0.12806563, 0.13043374, -0.9576114, 0.061673537, -0.2391818, 0.040854454
383, 916493650, -0.22281629, -0.12780981, 0.13066657, -0.9575721, 0.04239859, -0.23462918, -0.013363838
384, 916510317, -0.22302814, -0.12748456, 0.1308913, -0.9575354, 0.088697456, -0.15442647, 0.016227722
385, 916526984, -0.22326216, -0.12715125, 0.13107437, -0.95750016, 0.16623631, -0.16688098, 0.07980442
386, 916543651, -0.22347546, -0.12690845, 0.13122672, -0.9574617, 0.17372432, -0.060289294, 0.081339836
387, 916560318, -0.2236402, -0.12668853, 0.13124023, -0.95745057, 0.110998824, -0.09750688, 0.072081566
388, 916576985, -0.22374496, -0.1265048, 0.13111432, -0.9574676, 0.119334154, -0.04920878, 0.07311344
389, 916593652, -0.22381869, -0.12637891, 0.13097116, -0.9574866, 0.022965314, -0.10173469, 0.07517719
390, 916610319, -0.22381179, -0.12622838, 0.13087283, -0.95752144, -0.13876416, -0.17104444, 0.06738186
391, 916626986, -0.22375302, -0.12604265, 0.13077694, -0.9575728, -0.1383795, -0.19964153, 0.057663918
392, 916643653, -0.22369653, -0.12583205, 0.1307403, -0.9576188, -0.03565336, -0.24240963, 0.09199333
393, 916660320, -0.22366638, -0.12565106, 0.13072419, -0.9576517, 0.0035841141, -0.30664298, 0.087958336
394, 916676987, -0.22370975, -0.1254803, 0.13070941, -0.957666, -0.0035655065, -0.37325433, 0.043605804
395, 916693654, -0.22383624, -0.12529354, 0.1307135, -0.9576603, -0.026564933, -0.35099375, 0.059244156
396, 916710321, -0.22400604, -0.12509544, 0.13075174, -0.95764124, -0.06678989, -0.29763097, 0.03153515
397, 916726988, -0.22419958, -0.12487542, 0.13087422, -0.9576079, -0.08242842, -0.2808486, 0.04059124
398, 916743655, -0.22435795, -0.12463358, 0.13101387, -0.9575833, -0.08421985, -0.255843, 0.05555916
399, 916760322, -0.224533, -0.12437923, 0.1312249, -0.9575465, -0.040531307, -0.21370122, 0.07518864
400, 916776989, -0.22472785, -0.12414873, 0.13138887, -0.9575082, -0.033465255, -0.21715988, 0.05501175
401, 916793656, -0.224944, -0.123928964, 0.13154307, -0.95746464, -0.03207137, -0.25544655, 0.037810326
402, 916810323, -0.2251815, -0.12368902, 0.13171461, -0.9574163, -0.034214105, -0.22592622, 0.04807377
403, 916826990, -0.22542027, -0.12344235, 0.131951, -0.9573594, -0.03688841, -0.19511488, 0.08801365
404, 916843657, -0.22560218, -0.123208076, 0.13220072, -0.9573122, 0.005573463, -0.20059453, 0.080901146
405, 916860324, -0.22572629, -0.12297682, 0.13237752, -0.9572884, 0.044420097, -0.17223473, 0.047429085
406, 916876991, -0.2258004, -0.12277524, 0.13249882, -0.95728, 0.065048136, -0.1649213, 0.057476997
407, 916893658, -0.2258478, -0.12257082, 0.13264087, -0.95727533, 0.031099426, -0.17505325, 0.084132195
408, 916910325, -0.2258707, -0.12238384, 0.13284738, -0.95726526, 0.0051690442, -0.17984328, 0.061452866
409, 916926992, -0.22586188, -0.12217632, 0.13304791, -0.9572659, 0.02522218, -0.16265848, 0.03520584
410, 916943659, -0.22585337, -0.12197553, 0.13323809, -0.95726705, 0.006066896, -0.13009183, 0.09129524
411, 916960326, -0.22585994, -0.12179365, 0.13345574, -0.95725846, -0.012579393, -0.119040735, 0.08374596
412, 916976993, -0.22588272, -0.12161835, 0.13361031, -0.9572537, -0.040704112, -0.13860762, 0.07498646
413, 916993660, -0.22592491, -0.121419586, 0.13372383, -0.95725316, -0.03814953, -0.18013252, 0.055669785
414, 917010327, -0.22597863, -0.12122482, 0.13381395, -0.9572526, -0.015853131, -0.17257519, 0.08574772
415, 917026994, -0.2260718, -0.12103142, 0.13390931, -0.95724165, -0.033085644, -0.17644571, 0.06125164
416, 917043661, -0.22617288, -0.12084059, 0.1340105, -0.9572277, -0.02054492, -0.15267776, 0.06492615
417, 917060328, -0.22627856, -0.12066343, 0.13404933, -0.9572197, -0.028351557, -0.15590641, 0.08825493
418, 917076995, -0.2264054, -0.1205013, 0.1340753, -0.9572065, -0.038330097, -0.1852137, 0.054597855
419, 917093662, -0.22652657, -0.12035668, 0.1340899, -0.957194, -0.0060731824, -0.23291998, 0.0343647
420, 917110329, -0.22665535, -0.120206, 0.13416271, -0.9571722, -0.011928607, -0.23265427, 0.0807085
421, 917126996, -0.22677165, -0.12005458, 0.1343181, -0.9571418, -0.008615726, -0.2143124, 0.08145428
422, 917143663, -0.22686563, -0.11992441, 0.1344182, -0.95712185, 0.019154, -0.21853812, 0.06213951
423, 917160330, -0.22695349, -0.11983425, 0.13446501, -0.95710576, 0.027519641, -0.21599843, 0.035712242
424, 917176997, -0.2270513, -0.11975313, 0.13451567, -0.95708567, -0.0042373305, -0.2292133, 0.06095028
425, 917193664, -0.22717144, -0.1196354, 0.13461442, -0.9570579, -0.016804263, -0.22531015, 0.086107254
426, 917210331, -0.22731002, -0.119520225, 0.13472182, -0.95702434, -0.008077032, -0.19318993, 0.07232189
427, 917226998, -0.22744502, -0.11938638, 0.13480459, -0.95699733, -0.021677237, -0.16119298, 0.074030876
428, 917243665, -0.22757477, -0.11926963, 0.13485761, -0.9569735, -0.03416865, -0.15973139, 0.0547266
429, 917260332, -0.22767468, -0.119147986, 0.1349103, -0.95695746, -0.0142558515, -0.17569269, 0.053563118
430, 917276999, -0.22776632, -0.11903924, 0.13497002, -0.9569407, 0.014608108, -0.17318177, 0.06415558
431, 917293666, -0.22787108, -0.11894808, 0.13503443, -0.9569182, 0.023192542, -0.20073682, 0.08784771
432, 917310333, -0.22796129, -0.11885313, 0.13510188, -0.9568988, 0.0144727435, -0.20033953, 0.08001709
433, 917327000, -0.22803256, -0.11877187, 0.1351877, -0.9568799, 0.009306465, -0.2276262, 0.05443573
434, 917343667, -0.22807488, -0.11872538, 0.13522695, -0.95687014, 0.0044025625, -0.19957134, 0.05955887
435, 917360334, -0.22812253, -0.118652426, 0.13525258, -0.95686406, -0.012344313, -0.21704882, 0.06074047
436, 917377001, -0.22819854, -0.118552804, 0.13530822, -0.9568504, -0.0070619197, -0.24057306, 0.060346603
437, 917393668, -0.22827528, -0.118441686, 0.13540171, -0.95683265, -0.014651749, -0.21326146, 0.04793358
438, 917410335, -0.22835389, -0.118324906, 0.13550012, -0.95681447, 1.131255E-4, -0.17431147, 0.051488876
439, 917427002, -0.22839148, -0.11822555, 0.13558464, -0.9568058, -0.009408414, -0.19803016, 0.058465004
440, 917443669, -0.2284305, -0.118125156, 0.13569008, -0.95679384, 0.022282565, -0.20604533, 0.06076908
441, 917460336, -0.22848867, -0.11802333, 0.13577692, -0.95678025, -0.01750911, -0.19549373, 0.10059166
442, 917477003, -0.22854923, -0.11792773, 0.1358706, -0.9567643, -0.041813575, -0.17703182, 0.08220863
443, 917493670, -0.22861414, -0.11784241, 0.13595286, -0.9567476, -0.013283906, -0.21237597, 0.0443058
444, 917510337, -0.22868349, -0.11777867, 0.13606483, -0.956723, -0.013791755, -0.20050369, 0.047890663
445, 917527004, -0.22873531, -0.11772635, 0.13618386, -0.9567001, 0.003926145, -0.1781811, 0.06521034
446, 917543671, -0.22877549, -0.11767523, 0.13627742, -0.9566834, 0.033551168, -0.17074546, 0.08073902
447, 917560338, -0.22882603, -0.11763814, 0.13636678, -0.9566632, 0.035761233, -0.18534689, 0.08010006
448, 917577005, -0.22889258, -0.11760695, 0.13642348, -0.956643, 0.039402623, -0.16764095, 0.045200348
449, 917593672, -0.22895193, -0.11756624, 0.13644774, -0.9566304, 0.019142656, -0.15746169, 0.067697525
450, 917610339, -0.22900864, -0.11751782, 0.13648313, -0.9566177, 0.0024847097, -0.16415286, 0.06745911
451, 917627006, -0.22906482, -0.11746492, 0.13652761, -0.9566044, -9.766679E-4, -0.16081654, 0.06723499
452, 917643673, -0.22910637, -0.11742001, 0.1365814, -0.9565922, 0.014123644, -0.16898197, 0.017956734
453, 917660340, -0.22912864, -0.11737042, 0.13661803, -0.95658773, -0.0021554471, -0.17748652, 0.04631138
454, 917677007, -0.22915214, -0.11731109, 0.13660951, -0.9565906, -0.026773527, -0.18027686, 0.07120991
455, 917693674, -0.22917327, -0.11725171, 0.13662274, -0.9565909, -0.031116802, -0.198478, 0.09173679
456, 917710341, -0.22919647, -0.11720269, 0.13662091, -0.95659155, -0.006487184, -0.20693417, 0.071344376
457, 917727008, -0.22923501, -0.117151745, 0.13660628, -0.95659083, -0.0042710253, -0.15962882, 0.06611252
458, 917743675, -0.22926362, -0.11710848, 0.13657714, -0.95659333, -0.038034894, -0.19029912, 0.0422678
459, 917760342, -0.22928727, -0.11707842, 0.13656285, -0.9565934, -0.034065805, -0.20617755, 0.03895855
460, 917777009, -0.22934066, -0.117024384, 0.13658985, -0.9565834, -0.0027793837, -0.20507409, 0.0656271
461, 917793676, -0.22938755, -0.116970375, 0.13662226, -0.956574, -0.01449515, -0.18265672, 0.062934875
462, 917810343, -0.22942124, -0.116929814, 0.13661306, -0.95657223, -0.0022301844, -0.17775947, 0.064741135
463, 917827010, -0.22944148, -0.116891496, 0.1366044, -0.9565733, 0.002100044, -0.18655294, 0.061107635
464, 917843677, -0.22947559, -0.11683238, 0.13659137, -0.95657426, -0.00614764, -0.16105106, 0.051751137
465, 917860344, -0.22951706, -0.116789624, 0.1365523, -0.95657516, 0.0075104823, -0.18180571, 0.05646801
466, 917877011, -0.22954017, -0.116739124, 0.13652387, -0.9565798, 8.3750306E-4, -0.17600821, 0.05282402
467, 917893678, -0.22955686, -0.11669862, 0.13651305, -0.95658225, 0.041807428, -0.19243893, 0.060232162
468, 917910345, -0.22957183, -0.11666293, 0.13650776, -0.95658374, 0.017355613, -0.21488117, 0.049263954
469, 917927012, -0.22957495, -0.11663225, 0.13648641, -0.95658976, 0.013733363, -0.20071028, 0.043056488
470, 917943679, -0.22957046, -0.11659891, 0.13645485, -0.9565994, -0.011057018, -0.18664843, 0.07328606
471, 917960346, -0.22957072, -0.11658542, 0.13642412, -0.9566054, -0.0065910895, -0.17064139, 0.061302185
472, 917977013, -0.2295763, -0.116562165, 0.13638678, -0.95661217, -0.012231467, -0.1913035, 0.05324459
473, 917993680, -0.22959043, -0.11652624, 0.13635199, -0.9566182, -0.029694702, -0.20995288, 0.055312157
474, 918010347, -0.22961624, -0.11647706, 0.13631268, -0.9566237, -0.026240729, -0.1994389, 0.061992645
475, 918027014, -0.22962452, -0.11643546, 0.13630486, -0.9566278, -0.00822131, -0.20703287, 0.06877804
476, 918043681, -0.22963153, -0.116412096, 0.13630195, -0.9566293, -0.0023063184, -0.20016482, 0.060386658
477, 918060348, -0.229648, -0.11638691, 0.13625817, -0.95663476, -0.010634663, -0.24896921, 0.0663414
478, 918077015, -0.2296834, -0.11635433, 0.13625683, -0.9566304, -0.0179748, -0.24660969, 0.05347824
479, 918093682, -0.229733, -0.1163086, 0.13628644, -0.95661974, -0.027636372, -0.20862116, 0.06755066
480, 918110349, -0.2297711, -0.11625026, 0.13630246, -0.9566154, -0.028450377, -0.18706557, 0.059742928
481, 918127016, -0.22981718, -0.11620768, 0.13631943, -0.9566071, -0.03769831, -0.18345256, 0.07100582
482, 918143683, -0.22984038, -0.11615746, 0.13634238, -0.9566044, -0.029284807, -0.16830352, 0.08128834
483, 918160350, -0.22985043, -0.11612109, 0.13634405, -0.95660615, -0.009033667, -0.15055934, 0.07514095
484, 918177017, -0.22987427, -0.1160815, 0.13636012, -0.956603, -0.014684158, -0.1817326, 0.053819656
485, 918193684, -0.22991195, -0.11605282, 0.13639818, -0.9565919, -5.927564E-4, -0.19892089, 0.052620888
486, 918210351, -0.22994724, -0.11604033, 0.13641179, -0.95658296, 0.02989796, -0.1881294, 0.05462742
487, 918227018, -0.2299853, -0.11605203, 0.13643119, -0.95656973, -0.015055553, -0.1847262, 0.06778526
488, 918243685, -0.23002154, -0.116035365, 0.13646986, -0.9565576, -0.026105475, -0.21134332, 0.07728195
489, 918260352, -0.23006067, -0.116011605, 0.1365355, -0.9565417, -0.010647962, -0.15841782, 0.07748318
490, 918277019, -0.23010437, -0.11600335, 0.13656186, -0.95652837, 0.015967067, -0.16779056, 0.057439804
491, 918293686, -0.23013027, -0.11597715, 0.13657075, -0.95652395, 0.019547855, -0.19151087, 0.03972912
492, 918310353, -0.23015764, -0.11595362, 0.13658005, -0.95651895, 0.016362015, -0.18221498, 0.055927277
493, 918327020, -0.23017956, -0.11593251, 0.13661416, -0.9565113, 0.0014349532, -0.18548892, 0.06197071
494, 918343687, -0.23019262, -0.115897104, 0.13665225, -0.9565071, 0.0041180584, -0.15857205, 0.052700996
495, 918360354, -0.23019741, -0.115873255, 0.1366692, -0.9565064, 0.0077937013, -0.157684, 0.059170723
496, 918377021, -0.23017518, -0.11587258, 0.13664241, -0.95651567, 0.0045971307, -0.15205508, 0.045381546
497, 918393688, -0.23017341, -0.115873046, 0.13662449, -0.9565186, 0.011457916, -0.16503023, 0.029670715
498, 918410355, -0.23016804, -0.11588089, 0.136607, -0.95652145, 0.004690084, -0.1965294, 0.045999527
499, 918427022, -0.2301623, -0.115870155, 0.1366001, -0.9565251, 0.0015157531, -0.19672738, 0.06785011
500, 918443689, -0.23016106, -0.11586896, 0.13665223, -0.95651805, -0.0022034745, -0.20085967, 0.042051315
501, 918460356, -0.23013303, -0.11593519, 0.13664621, -0.95651764, 0.049252197, -0.20098238, 0.07364273
502, 918477023, -0.23002708, -0.11608246, 0.13651472, -0.9565441, 0.012764545, -0.13378097, 0.1132288
503, 918493690, -0.22988516, -0.11626515, 0.13641535, -0.95657027, -0.06260171, -0.20470987, 0.1303587
504, 918510357, -0.22964953, -0.11652297, 0.13634835, -0.9566049, -0.053774033, -0.30968422, 0.08118248
505, 918527024, -0.22926031, -0.1168211, 0.13644537, -0.95664805, -0.17317481, -0.42159277, 0.029531479
506, 918543691, -0.22885984, -0.11707573, 0.1364267, -0.95671564, -0.22219853, -0.289525, -0.0074567795
507, 918560358, -0.22858758, -0.11710925, 0.13660347, -0.95675135, -0.15416552, -0.3046124, 0.048300743
508, 918577025, -0.22839591, -0.11710099, 0.13697813, -0.9567446, 0.05281692, -0.35348204, 0.06076908
509, 918593692, -0.22830188, -0.11712005, 0.13724677, -0.9567262, 0.12788509, -0.21170838, 0.06329918
510, 918610359, -0.22819157, -0.11723042, 0.13740212, -0.95671654, 0.17191158, -0.083239675, 0.11659908
511, 918627026, -0.22800975, -0.117568895, 0.1372816, -0.95673573, 0.15070766, -0.1068084, 0.10219383
512, 918643693, -0.22773819, -0.11798508, 0.1369141, -0.9568019, -0.031699948, -0.15385391, -0.008246422
513, 918660360, -0.22748423, -0.118120104, 0.13660596, -0.9568896, -0.18764661, -0.13279007, -0.031067848
514, 918677027, -0.22735177, -0.1179514, 0.13666172, -0.95693403, -0.13462311, -0.080043145, 0.030395508
515, 918693694, -0.22725616, -0.117753446, 0.1369789, -0.95693576, -0.04159378, -0.039065678, 0.17494488
516, 918710361, -0.22704943, -0.11774572, 0.13720137, -0.9569539, 0.0074346554, 0.12810332, 0.20413685
517, 918727028, -0.22670247, -0.11794788, 0.13703787, -0.95703465, 0.025522301, 0.109386824, 0.12249184
518, 918743695, -0.2263402, -0.11817016, 0.13671324, -0.95713943, -0.05279851, -0.088675916, 0.010951996
519, 918760362, -0.22609529, -0.118284166, 0.13648945, -0.9572151, -0.14611654, -0.25889763, 0.02401638
520, 918777029, -0.22600582, -0.118289165, 0.1364802, -0.9572369, -0.12507892, -0.2597931, 0.08189106
521, 918793696, -0.2259915, -0.118271425, 0.136552, -0.9572323, -0.02969459, -0.10213967, 0.033922195
522, 918810363, -0.22598633, -0.118322834, 0.13657014, -0.95722455, 0.01744094, -0.01831767, 0.054405212
523, 918827030, -0.22590776, -0.11835862, 0.13628429, -0.9572795, 0.042361964, 0.22532631, 0.11266804
524, 918843697, -0.22578883, -0.1183735, 0.1358676, -0.95736504, -0.07842648, 0.21325843, 0.08691406
525, 918860364, -0.22560433, -0.11847482, 0.13535984, -0.95746785, -0.19385463, 0.05166421, 0.107255936
526, 918877031, -0.22541723, -0.11847889, 0.13485806, -0.95758224, -0.1181732, -0.003849424, 0.08658314
527, 918893698, -0.22529142, -0.11845664, 0.13459356, -0.9576517, 0.10291785, -0.046940766, 0.094488144
528, 918910365, -0.2251216, -0.11847794, 0.13423389, -0.9577396, 0.11068744, -0.022865683, 0.10351372
529, 918927032, -0.22482069, -0.11862715, 0.13373156, -0.95786196, 0.23586626, -0.051432274, 0.13557053
530, 918943699, -0.22432241, -0.11904928, 0.13299975, -0.9580283, 0.272347, -0.16020265, 0.13922977
531, 918960366, -0.22371235, -0.11973049, 0.13221435, -0.9581948, 0.20102379, -0.43269852, 0.026432991
532, 918977033, -0.22306712, -0.120312646, 0.13145714, -0.95837647, 0.08073489, -0.43332058, -0.11841488
533, 918993700, -0.22257924, -0.12051548, 0.13125074, -0.9584926, 0.16062099, -0.4568961, -0.09962845
534, 919010367, -0.22218367, -0.120557174, 0.13132703, -0.9585688, 0.21523571, -0.5322912, -0.06492424
535, 919027034, -0.2218061, -0.12057535, 0.13155209, -0.95862305, 0.25317124, -0.5638974, -0.020778656
536, 919043701, -0.22147518, -0.12078427, 0.1317517, -0.9586459, 0.33962166, -0.54961044, 0.08850765
537, 919060368, -0.22113697, -0.121094055, 0.13188967, -0.9586657, 0.26083994, -0.37961468, -0.06660652
538, 919077035, -0.22086856, -0.121177636, 0.13230978, -0.9586592, 0.0031322546, -0.2353222, -0.17725945
539, 919093702, -0.22073953, -0.121007346, 0.1331587, -0.9585931, -0.18543462, -0.24674791, -0.06919193
540, 919110369, -0.22054452, -0.12087183, 0.134107, -0.9585228, -0.22145484, -0.2666821, -0.0382576
541, 919127036, -0.22040528, -0.120779164, 0.13554865, -0.95836365, 0.074984826, -0.2754986, -0.012037277
542, 919143703, -0.22002596, -0.121396266, 0.13690521, -0.95818007, 0.6085297, -0.13349624, -0.3081293
543, 919160370, -0.2194918, -0.12302087, 0.13703686, -0.95807654, 0.9094292, -0.8866882, 0.17199802
544, 919177037, -0.21918122, -0.12584597, 0.13894795, -0.95750517, 1.1359112, -1.5328789, 0.38588333
545, 919193704, -0.21904247, -0.12935695, 0.14302804, -0.9564678, 1.8880309, -2.501908, 0.18943691
546, 919210371, -0.21901408, -0.13479297, 0.1475818, -0.95503074, 2.9786, -2.1886346, 0.5682621
547, 919227038, -0.2195586, -0.14271185, 0.1509549, -0.9532264, 2.915127, -1.3953615, 0.110637665
548, 919243705, -0.22067793, -0.15029146, 0.1539436, -0.951323, 2.4564264, -0.5714911, -0.27955914
549, 919260372, -0.22138204, -0.15738338, 0.15704685, -0.9495035, 2.0815914, -0.437126, 0.24921799
550, 919277039, -0.22176395, -0.16501562, 0.16072537, -0.94750106, 1.9743838, 0.18500984, 0.34305477
551, 919293706, -0.2221279, -0.17326765, 0.16420737, -0.9453432, 1.9687012, 0.482289, 0.6602287
552, 919310373, -0.22193514, -0.18133913, 0.1665457, -0.94346374, 2.099699, 0.4364504, 0.38842392
553, 919327040, -0.22189714, -0.18975559, 0.16829553, -0.94150496, 0.5775804, -0.059994787, 0.40256882
554, 919343707, -0.22196016, -0.19942637, 0.17015328, -0.9391545, -0.9868804, 0.08703846, 0.62125874
555, 919360374, -0.22167787, -0.21002331, 0.17262127, -0.93645686, -1.6464779, 0.10235468, 0.48905373
556, 919377041, -0.22124879, -0.22107667, 0.17602912, -0.9333747, -1.8222281, -0.16273822, 0.2570896
557, 919393708, -0.22084746, -0.23249985, 0.17991088, -0.92994756, -1.4248378, 0.02871862, 0.5580635
558, 919410375, -0.22070093, -0.24412194, 0.18399036, -0.92619854, -1.0121174, 0.42471394, 0.47459888
559, 919427042, -0.22089215, -0.25583103, 0.18767384, -0.9222452, -0.6166622, 0.646617, 0.47261047
560, 919443709, -0.22129583, -0.267519, 0.19080673, -0.91818035, -0.92512584, 0.5033927, 0.32286167
561, 919460376, -0.22164682, -0.27905643, 0.19387993, -0.9140083, -1.2012728, 0.51255083, 0.12902546
562, 919477043, -0.22192912, -0.29033414, 0.19718343, -0.9097102, -1.4496928, 0.5215625, 0.19046116
563, 919493710, -0.2224303, -0.3010576, 0.200746, -0.90531236, -1.5222174, 0.6111593, 0.4160242
564, 919510377, -0.22304681, -0.31147015, 0.2040922, -0.9008792, -1.475079, 0.6243202, 0.30405426
565, 919527044, -0.22377592, -0.3218966, 0.20715106, -0.8963235, -1.2175428, 0.45772806, -0.06571579
566, 919543711, -0.22463131, -0.33248645, 0.20994268, -0.8915818, -0.74666125, 0.12655231, -0.102023125
567, 919560378, -0.22559786, -0.3431659, 0.21224023, -0.8867339, -0.71807075, 0.03783538, 0.15535927
568, 919577045, -0.22648777, -0.35417667, 0.21396007, -0.8817503, -0.8065012, -0.14724095, 0.1709032
569, 919593712, -0.22751905, -0.36504456, 0.21592274, -0.8765588, -1.0731015, 0.00188617, -0.02332306
570, 919610379, -0.22874512, -0.3757371, 0.21829359, -0.8711176, -0.9816405, 0.5066372, -0.24487019
571, 919627046, -0.22980003, -0.38638967, 0.2207449, -0.86554426, -0.47953868, 0.82228583, -0.16781235
572, 919643713, -0.23045783, -0.39723396, 0.22293767, -0.8598799, -0.2157706, 0.9800185, -0.16527748
573, 919660380, -0.2306531, -0.4081523, 0.22479454, -0.8542123, -0.124820255, 0.66262656, -0.00442791
574, 919677047, -0.23043332, -0.4194603, 0.2262809, -0.84838134, -0.30919105, 0.16971937, 0.01793766
575, 919693714, -0.23026183, -0.43062016, 0.22785479, -0.8423944, -0.59034365, -0.06701253, -0.12979889
576, 919710381, -0.2305555, -0.44143033, 0.2293875, -0.83628064, -0.51464075, -0.08672158, -0.06889534
577, 919727048, -0.23140056, -0.45190647, 0.23096316, -0.8299944, -0.8281366, 0.019534362, -0.095080376
578, 919743715, -0.23221797, -0.46224803, 0.23221204, -0.8236987, -0.8072547, 0.3940758, -0.36535168
579, 919760382, -0.23261291, -0.47287673, 0.23350964, -0.8171612, -0.4241673, 0.41337, -0.42611122
580, 919777049, -0.23265108, -0.48362884, 0.23426688, -0.8106145, -0.522122, 0.6076904, -0.1358347
581, 919793716, -0.23259075, -0.4944945, 0.23458505, -0.803957, -0.56800663, 0.34193605, -0.016292572
582, 919810383, -0.23305419, -0.50474584, 0.23566075, -0.79710823, -1.1205133, 0.28197545, -0.30305004
583, 919827050, -0.23373012, -0.51504326, 0.23699953, -0.789894, -0.6474713, 0.06230893, -0.47326565
584, 919843717, -0.2340475, -0.5254344, 0.23828885, -0.78253376, -0.060316537, 0.6938907, -0.35766506
585, 919860384, -0.23370717, -0.5356861, 0.23886056, -0.775479, 0.34838194, 0.5840757, -0.33819485
586, 919877051, -0.23297712, -0.54559314, 0.23862879, -0.76883453, 0.74580514, 0.04137996, -0.516345
587, 919893718, -0.23270799, -0.55530083, 0.2391532, -0.7617704, 0.011026677, 0.31237042, -0.7497549
588, 919910385, -0.23209427, -0.5650541, 0.24001902, -0.75447834, 0.047525838, -0.108491175, -0.39408207
589, 919927052, -0.23158489, -0.57400626, 0.24112086, -0.7474935, 0.12774095, -0.09766689, -0.1490345
590, 919943719, -0.23057933, -0.5828066, 0.2415301, -0.74083287, 0.4381873, -0.4007898, -0.22591972
591, 919960386, -0.22919823, -0.5913888, 0.24125296, -0.7345236, 0.7087689, -0.830192, -0.1712265
592, 919977053, -0.22909498, -0.59977144, 0.24234074, -0.72736585, 0.22309588, -0.89192957, -0.20325279
593, 919993720, -0.22898771, -0.6076903, 0.24382567, -0.720296, -0.22740577, -1.3794227, -0.22951317
594, 920010387, -0.22896728, -0.6151587, 0.24508364, -0.7135041, -0.30903807, -1.2718942, 0.008225441
595, 920027054, -0.22919771, -0.6220713, 0.24623102, -0.70701224, -0.016190607, -1.4859171, 0.21052551
596, 920043721, -0.22996074, -0.62803507, 0.24684115, -0.70125574, 0.28695476, -1.4580531, 0.38860703
597, 920060388, -0.23190401, -0.6327274, 0.24804778, -0.69595206, 0.39659595, -0.9185129, 0.39248943
598, 920077055, -0.234653, -0.63707745, 0.25036436, -0.6902089, 0.4923247, -0.7161867, 0.081980705
599, 920093722, -0.23796815, -0.64093375, 0.25366637, -0.68427235, -0.008042779, 0.057149246, 0.066272736
600, 920110389, -0.24049564, -0.644889, 0.25637266, -0.6786409, -0.25589105, 0.39214522, 0.12390232
601, 920127056, -0.24291067, -0.6486686, 0.25901094, -0.67315465, -0.16919361, 0.7145453, 0.22251987
602, 920143723, -0.24428076, -0.65275216, 0.26065907, -0.66805595, 0.3039902, 0.47829136, 0.23208427
603, 920160390, -0.24475774, -0.65704465, 0.26166487, -0.6632632, 0.5694833, 0.05561293, 0.06511688
604, 920177057, -0.24441135, -0.66139275, 0.26151162, -0.6591166, 0.7252717, -0.40918103, 0.40615368
605, 920193724, -0.244179, -0.6649546, 0.26107213, -0.65578496, 0.6022171, -0.16709538, 0.28041744
606, 920210391, -0.24326405, -0.6679111, 0.26014274, -0.6534854, 0.5886717, -0.38954386, 0.3276577
607, 920227058, -0.24260253, -0.67049867, 0.26018688, -0.65105957, 0.26586056, -0.78209126, 0.15684795
608, 920243725, -0.24281554, -0.6725638, 0.26108468, -0.64848566, -0.056298275, -1.0109771, 0.32464695
609, 920260392, -0.24430062, -0.6739497, 0.26287282, -0.6457609, 0.007457789, -0.5281269, 0.13035583
610, 920277059, -0.24574932, -0.6752374, 0.26467803, -0.6431232, 0.4567083, -0.32046303, -0.011882782
611, 920293726, -0.24672414, -0.67656475, 0.2661172, -0.6407568, 0.385352, -0.05627151, 0.21392441
612, 920310393, -0.24731906, -0.6777871, 0.2670173, -0.63885844, 0.47920257, 0.01999357, 0.19168663
613, 920327060, -0.24778022, -0.6788653, 0.2678678, -0.6371766, 0.44447643, 0.10168789, 0.1510601
614, 920343727, -0.24807177, -0.6798804, 0.26846114, -0.63572955, 0.07140289, 0.2665744, 0.1520977
615, 920360394, -0.24779655, -0.6810736, 0.26873475, -0.6344428, 0.07702027, 0.16571708, -0.055113792
616, 920377061, -0.24720429, -0.68227464, 0.2686665, -0.63341135, -0.013752696, 0.054572925, 0.061858177
617, 920393728, -0.24659957, -0.6835694, 0.26847935, -0.6323295, -0.22669366, 0.14835739, 0.08199978
618, 920410395, -0.24629748, -0.6846974, 0.26832432, -0.6312918, -0.21280998, 0.081084244, 0.102526665
619, 920427062, -0.24575783, -0.6858535, 0.26820984, -0.6302952, -0.4259264, -0.2633604, 0.08385563
620, 920443729, -0.24549757, -0.6869096, 0.26842886, -0.62915206, -0.23905778, -0.14077672, 0.197649
621, 920460396, -0.24577264, -0.6876937, 0.26891628, -0.6279789, -0.08887428, 0.07848188, 0.17880154
622, 920477063, -0.24607532, -0.68840027, 0.2694764, -0.6268452, 0.02322741, 0.14490233, 0.040369034
623, 920493730, -0.2461546, -0.6892046, 0.26993963, -0.6257299, -0.08490308, 0.1617019, 0.21482658
624, 920510397, -0.24613582, -0.6899288, 0.27027065, -0.62479556, -0.043204606, 0.06578523, 0.15097809
625, 920527064, -0.24613254, -0.69064736, 0.27041733, -0.6239391, -0.07198062, 0.15873164, 0.016762733
626, 920543731, -0.24602115, -0.6915592, 0.27044043, -0.62296224, -0.065128654, 0.16588819, 0.0067796707
627, 920560398, -0.24574223, -0.6926226, 0.27032974, -0.621938, -0.015217209, 0.22497295, 0.09813595
628, 920577065, -0.24522999, -0.6936518, 0.27009392, -0.621095, -0.011434308, 0.26256916, 0.22177887
629, 920593732, -0.24441436, -0.6946577, 0.26971167, -0.6204581, -0.15206029, 0.028012209, 0.10038853
630, 920610399, -0.24361083, -0.69553834, 0.2692289, -0.61999696, -0.28123692, 0.004435056, 0.13862514
631, 920627066, -0.24305926, -0.6962785, 0.26892436, -0.6195147, -0.34993446, -0.07726742, 0.13856411
632, 920643733, -0.24270442, -0.6970454, 0.26867843, -0.6188981, -0.30317006, 0.031228224, 0.12611675
633, 920660400, -0.24237204, -0.69776064, 0.26847973, -0.6183083, -0.23589675, 0.12500845, 0.16983128
634, 920677067, -0.24194719, -0.69841677, 0.2683118, -0.6178063, -0.19357121, 0.03838321, 0.14047813
635, 920693734, -0.24165832, -0.6989632, 0.26813862, -0.61737657, -0.22291534, 0.14813332, 0.16908169
636, 920710401, -0.2414013, -0.69942796, 0.26806659, -0.616982, -0.33168137, -0.005590059, 0.06262112
637, 920727068, -0.2412852, -0.69989324, 0.2680666, -0.6164997, -0.23997183, 0.026967844, 0.13806248
638, 920743735, -0.24124357, -0.70033157, 0.26814562, -0.61598355, -0.18352754, 0.08987914, 0.13203812
639, 920760402, -0.24121599, -0.70072466, 0.26826173, -0.6154965, -0.23061492, 0.12980348, 0.18798637
640, 920777069, -0.2410859, -0.7011182, 0.2682829, -0.61509, -0.1500523, 0.14214799, 0.07470322
641, 920793736, -0.24095933, -0.70145196, 0.26836872, -0.6147215, -0.26811928, 0.017590133, 0.17330265
642, 920810403, -0.24093163, -0.7017143, 0.2684928, -0.61437875, -0.2627402, 0.053688705, 0.11085701
643, 920827070, -0.24101776, -0.7018613, 0.26859114, -0.6141339, -0.28558698, 0.061162084, 0.2053423
644, 920843737, -0.24115317, -0.7019245, 0.26872596, -0.6139494, -0.242212, 0.110697694, 0.15377808
645, 920860404, -0.24126162, -0.7019549, 0.26883817, -0.613823, -0.21327825, 0.123659775, 0.18355083
646, 920877071, -0.2413336, -0.7020392, 0.26889405, -0.6136737, -0.1996534, 0.18536007, 0.11410999
647, 920893738, -0.24130133, -0.7021187, 0.26891458, -0.6135865, -0.26505044, 0.089100644, 0.056658745
648, 920910405, -0.2412051, -0.7022517, 0.26882726, -0.6135104, -0.12848553, 0.103834845, 0.07179546
649, 920927072, -0.24101645, -0.7024484, 0.2686998, -0.61341506, -0.04275244, 0.07741338, 0.13534927
650, 920943739, -0.2407652, -0.70260245, 0.26848638, -0.6134307, -0.13711911, 0.107410826, 0.16781807
651, 920960406, -0.24055304, -0.70265746, 0.26827198, -0.6135447, -0.14694932, 0.05039312, 0.1578455
652, 920977073, -0.24037465, -0.7027378, 0.26815715, -0.61357296, -0.11130537, 0.0012375913, 0.09745312
653, 920993740, -0.24026354, -0.70276195, 0.26805228, -0.61363465, -0.16339278, 0.016588684, 0.12890339
654, 921010407, -0.24029249, -0.70273656, 0.26799124, -0.61367905, -0.08939775, 0.04394343, 0.16103649
655, 921027074, -0.24031049, -0.7026637, 0.2679709, -0.61376417, -0.17108095, 0.010992702, 0.13395596
656, 921043741, -0.24026921, -0.7025817, 0.26794338, -0.6138863, -0.21326768, 0.057055257, 0.10048199
657, 921060408, -0.2403982, -0.7024238, 0.26801196, -0.6139865, -0.1515572, 0.039418746, 0.19276619
658, 921077075, -0.24040517, -0.702269, 0.26805663, -0.61414135, -0.19756998, 0.035929818, 0.1192379
659, 921093742, -0.24037848, -0.7021387, 0.26800096, -0.6143251, -0.1121636, 0.06578445, 0.07956028
660, 921110409, -0.24039853, -0.70192456, 0.26800117, -0.61456174, -0.179381, 0.0122199, 0.11451244
661, 921127076, -0.2403596, -0.70169044, 0.26794526, -0.61486864, -0.14471659, -0.07832877, 0.12280655
662, 921143743, -0.24060792, -0.70136464, 0.26802295, -0.6151094, -0.026905261, 0.0749297, 0.11621189
663, 921160410, -0.24077708, -0.70105135, 0.26818255, -0.6153308, -0.12628113, -0.09509336, 0.08761692
664, 921177077, -0.24105352, -0.7008602, 0.26847568, -0.6153124, -0.056161765, -0.029523268, 0.0672884
665, 921193744, -0.2413564, -0.70070106, 0.26878977, -0.6152378, -0.002887452, 0.050156083, 0.067219734
666, 921210411, -0.2415796, -0.7005815, 0.26901776, -0.6151867, 0.062329214, 0.060290944, 0.09016895
667, 921227078, -0.24163468, -0.7004572, 0.26907462, -0.6152817, 0.13177474, 0.09938761, 0.049489975
668, 921243745, -0.24143368, -0.70040476, 0.26893246, -0.6154825, 0.23436914, -0.025338322, 0.054864883
669, 921260412, -0.24137448, -0.7002947, 0.26879814, -0.61568964, 0.19876935, 0.0060325027, 0.12646866
670, 921277079, -0.24128914, -0.7001955, 0.2686621, -0.6158951, 0.15528534, -0.08429679, 0.112483025
671, 921293746, -0.24126658, -0.7000834, 0.26858246, -0.61606616, 0.119135424, -0.004224842, 0.09789944
672, 921310413, -0.24115866, -0.69999295, 0.2684952, -0.6162493, 0.056114268, -0.08006066, 0.052189827
673, 921327080, -0.24115764, -0.69992286, 0.26848716, -0.6163328, -0.05094095, -0.07153018, 0.10943127
674, 921343747, -0.2412795, -0.69980156, 0.26851466, -0.61641085, 7.3278724E-4, 0.052876797, 0.06105137
675, 921360414, -0.24132895, -0.69970536, 0.26847836, -0.6165165, -0.010449287, 0.06991441, 0.098602295
676, 921377081, -0.2412662, -0.69963497, 0.2683843, -0.6166618, -0.06723985, -0.014441619, 0.07864475
677, 921393748, -0.2412096, -0.69967484, 0.26832289, -0.6166655, -0.038768824, -0.035893053, 0.051136017
678, 921410415, -0.24109569, -0.6997623, 0.26818508, -0.6166708, -0.002446964, 0.030111665, 0.105526924
679, 921427082, -0.2409181, -0.6998772, 0.26797876, -0.61669934, 0.032840256, 0.024334637, 0.11629486
680, 921443749, -0.24073847, -0.69993365, 0.26781154, -0.6167782, -0.042986684, -0.041106157, 0.08221626
681, 921460416, -0.24059844, -0.6999694, 0.2676794, -0.6168498, -0.040144045, -0.085658655, 0.11375332
682, 921477083, -0.24071696, -0.6998546, 0.26772937, -0.61691177, -0.07281912, -0.026084185, 0.12509346
683, 921493750, -0.24089365, -0.69969684, 0.26785046, -0.6169693, -0.09819991, -0.0153686395, 0.08452797
684, 921510417, -0.24102382, -0.69962764, 0.26801476, -0.6169256, -0.12057574, -0.031463694, 0.06830406
685, 921527084, -0.24120188, -0.6995542, 0.2681495, -0.6168808, -0.09516204, 0.06862898, 0.11157036
686, 921543751, -0.2412666, -0.6994628, 0.26817885, -0.61694634, -0.037932385, 0.07760884, 0.1025486
687, 921560418, -0.24115591, -0.699459, 0.26813844, -0.6170114, -0.009892795, -0.008660903, 0.07044697
688, 921577085, -0.24119304, -0.6993956, 0.26813704, -0.6170693, -0.072199605, 0.010214766, 0.14660072
689, 921593752, -0.24122015, -0.69925976, 0.26810914, -0.6172249, -0.07775485, 0.009329654, 0.081121445
690, 921610419, -0.24131644, -0.69914156, 0.26812613, -0.61731386, -0.11088684, 0.005701592, 0.077754974
691, 921627086, -0.24142471, -0.69915956, 0.26821464, -0.6172126, -0.013348529, 0.030160615, 0.051366806
692, 921643753, -0.24147412, -0.69914246, 0.26830104, -0.61717504, -0.024593744, 0.039796595, 0.14931107
693, 921660420, -0.24136189, -0.6991006, 0.26818794, -0.61731565, 0.05011423, 0.004845202, 0.09541798
694, 921677087, -0.24140538, -0.6990475, 0.26819167, -0.617357, 0.044281494, -0.0076857163, 0.10937977
695, 921693754, -0.24149211, -0.6989432, 0.26820904, -0.61743367, -0.05006003, -0.006303736, 0.15678501
696, 921710421, -0.24156743, -0.69884765, 0.26819125, -0.61752003, -0.060640406, 0.119052164, 0.083592415
697, 921727088, -0.24156597, -0.69878036, 0.26811928, -0.6176281, -0.02213298, 0.109213345, 0.11479473
698, 921743755, -0.24156636, -0.69866407, 0.26806727, -0.61778194, -0.11092339, -0.013148373, 0.14850044
699, 921760422, -0.2415165, -0.69853497, 0.267954, -0.61799663, -0.10434557, -0.013898259, 0.088264465
700, 921777089, -0.24152096, -0.69837797, 0.26790968, -0.6181915, -0.07176655, 0.013169607, 0.09592724
701, 921793756, -0.24150568, -0.6982873, 0.26792014, -0.6182954, -0.046864744, -0.009209405, 0.1064167
702, 921810423, -0.24169514, -0.6981653, 0.26800632, -0.61832166, -0.012091269, 0.07968527, 0.12956333
703, 921827090, -0.24175693, -0.69802946, 0.26802072, -0.61844456, -0.02460844, 0.07787415, 0.10232067
704, 921843757, -0.2418745, -0.69786495, 0.2680539, -0.61856985, 0.030984372, 0.03431438, 0.1331873
705, 921860424, -0.24204743, -0.69768035, 0.2681355, -0.6186752, -0.028607478, 0.006712429, 0.061592102
706, 921877091, -0.24210803, -0.6975531, 0.268177, -0.618777, -0.11030286, -0.0034875844, 0.12859058
707, 921893758, -0.24221185, -0.6973395, 0.26816893, -0.61898065, -0.08463693, 0.074024364, 0.14407158
708, 921910425, -0.24228278, -0.697088, 0.26819155, -0.61922616, -0.16173281, 0.07820673, 0.08817196
709, 921927092, -0.24240586, -0.69685674, 0.2682077, -0.6194311, -0.20330364, 0.030011084, 0.1342411
710, 921943759, -0.24266905, -0.69659054, 0.26831472, -0.61958116, -0.17359877, 0.05358388, 0.08526039
711, 921960426, -0.24290147, -0.69635534, 0.26836985, -0.61973065, -0.13932541, 0.03287082, 0.07387638
712, 921977093, -0.24306028, -0.69624287, 0.26843262, -0.61976755, -0.050097357, 0.049487893, 0.072268486
713, 921993760, -0.24315047, -0.6961654, 0.2684835, -0.6197973, -0.056448977, -0.024930412, 0.107687
714, 922010427, -0.24317716, -0.6960488, 0.2684772, -0.61992043, 0.019234408, -0.052852545, 0.1453247
715, 922027094, -0.24328066, -0.6958431, 0.2684667, -0.62011534, 0.038644217, 0.028607758, 0.13487339
716, 922043761, -0.24344988, -0.6955313, 0.26845646, -0.6204031, 0.0011664582, -0.02414711, 0.13901329
717, 922060428, -0.24360941, -0.69518924, 0.26846611, -0.6207195, -0.06394074, 0.04200099, 0.059841156
718, 922077095, -0.24368048, -0.6949861, 0.2684549, -0.62092406, -0.015248892, 0.015610368, 0.05343342
719, 922093762, -0.2438321, -0.6948011, 0.26850134, -0.6210515, -0.013692627, -0.0079914825, 0.086016655
720, 922110429, -0.24393636, -0.6947049, 0.26849782, -0.62111956, 0.06974124, -0.063186444, 0.07403278
721, 922127096, -0.24395232, -0.69467777, 0.26844785, -0.6211652, 0.1570711, -0.010222924, 0.12391567
722, 922143763, -0.24393448, -0.6945791, 0.26837543, -0.62131387, 0.09631095, -0.018436689, 0.11121559
723, 922160430, -0.24394979, -0.69446045, 0.2683425, -0.62145466, 0.011587247, -0.105859086, 0.07745266
724, 922177097, -0.2439269, -0.69444925, 0.2683613, -0.62146795, 0.076791115, -0.056558724, 0.0420084
725, 922193764, -0.24393475, -0.6944124, 0.2683887, -0.6214942, 0.01169945, 0.004429021, 0.1411705
726, 922210431, -0.24390808, -0.69435346, 0.26834774, -0.62158805, 0.07339774, 0.0071877297, 0.08854294
727, 922227098, -0.24394609, -0.6942683, 0.26839253, -0.621649, -0.07552168, -0.07853307, 0.09904289
728, 922243765, -0.24405251, -0.694258, 0.2684774, -0.6215824, -0.049190506, -0.054331753, 0.060668945
729, 922260432, -0.24418226, -0.6943188, 0.2686281, -0.62139827, 0.008541548, 0.027857536, 0.071336746
730, 922277099, -0.24420506, -0.6943295, 0.2686838, -0.6213532, -0.0200452, 0.038462892, 0.12840462
731, 922293766, -0.24414146, -0.6942889, 0.2686154, -0.62145305, 0.008219689, -0.03685449, 0.115385056
732, 922310433, -0.24399701, -0.6943457, 0.2685685, -0.6214667, 0.045890395, 0.005709415, 0.06060314
733, 922327100, -0.24388848, -0.6943869, 0.26845592, -0.6215119, 0.046931796, 0.053645793, 0.11503887
734, 922343767, -0.24369618, -0.69447947, 0.26836672, -0.6215224, -0.0631984, -0.03302717, 0.067765236
735, 922360434, -0.24364519, -0.69458205, 0.26834598, -0.62143666, -0.12628543, -0.04625254, 0.10437584
736, 922377101, -0.24360539, -0.69463974, 0.26837265, -0.6213764, -0.11788241, -0.00810145, 0.12136364
737, 922393768, -0.24353358, -0.69467187, 0.26836112, -0.62137353, -0.07748976, 0.04998532, 0.09582615
738, 922410435, -0.24349411, -0.69471186, 0.26835245, -0.6213479, -0.010755611, 0.010163022, 0.098091125
739, 922427102, -0.24345255, -0.6947269, 0.26831517, -0.62136376, -0.014004484, 0.016221676, 0.100465775
740, 922443769, -0.24338108, -0.69473815, 0.26824903, -0.6214076, -0.027547749, 0.028874075, 0.097415924
741, 922460436, -0.24328472, -0.69480056, 0.26824173, -0.6213787, -0.061773337, -0.0032043934, 0.07897091
742, 922477103, -0.24320254, -0.6948986, 0.26825178, -0.6212969, -0.085280135, 0.011174642, 0.108730316
743, 922493770, -0.24311073, -0.6949955, 0.26821184, -0.6212416, -0.07722395, 0.06140862, 0.13613033
744, 922510437, -0.24292043, -0.6950459, 0.2681355, -0.62129277, -0.10089632, 0.014885292, 0.070822716
745, 922527104, -0.24278937, -0.69503146, 0.26802436, -0.62140805, -0.17441867, -0.00419992, 0.14869499
746, 922543771, -0.24268027, -0.6949795, 0.26787764, -0.6215721, -0.02523858, 0.050000183, 0.09544468
747, 922560438, -0.24255288, -0.6949678, 0.26780114, -0.6216677, 0.04079307, 0.082396485, 0.068743706
748, 922577105, -0.2424035, -0.6950869, 0.26771563, -0.62162983, -0.006586871, -0.014270855, 0.097958565
749, 922593772, -0.24239261, -0.6951756, 0.2677145, -0.6215353, -0.024455111, 0.04980327, 0.13922119
750, 922610439, -0.24246551, -0.6952191, 0.26778078, -0.6214295, -0.023579834, 0.005089055, 0.11599827
751, 922627106, -0.24247214, -0.6952797, 0.26784903, -0.62132967, -0.06701421, -0.007526575, 0.065937996
752, 922643773, -0.24236578, -0.6953268, 0.26784405, -0.62132055, -0.12389122, -0.012396028, 0.13144207
753, 922660440, -0.24240924, -0.6952443, 0.26785108, -0.62139297, -0.12847643, 0.04517342, 0.12488651
754, 922677107, -0.24241929, -0.6952007, 0.26780182, -0.6214591, -0.05752324, 0.10951856, 0.088394165
755, 922693774, -0.2423887, -0.6951635, 0.26775166, -0.6215342, -0.08435228, 0.06333295, 0.11180496
756, 922710441, -0.2422364, -0.6952015, 0.26762658, -0.62160504, -0.008624974, -0.014261803, 0.11262894
757, 922727108, -0.24209112, -0.69525224, 0.26753646, -0.6216436, 0.04511475, 0.014431338, 0.08742237
758, 922743775, -0.24197322, -0.6952201, 0.26745927, -0.6217587, -0.009623965, -0.025991092, 0.13845825
759, 922760442, -0.241955, -0.6951393, 0.26741615, -0.62187463, 0.038039893, 0.028553892, 0.10033035
760, 922777109, -0.24194023, -0.69509465, 0.26747206, -0.62190616, -0.09113987, -0.045570605, 0.09799099
761, 922793776, -0.24199633, -0.69503516, 0.26752838, -0.6219268, -0.13174781, -0.0060189804, 0.10615921
762, 922810443, -0.24209471, -0.6949426, 0.26758334, -0.6219682, -0.10483423, 0.07985827, 0.13071823
763, 922827110, -0.2421956, -0.69480455, 0.26758382, -0.622083, -0.08273198, 0.05901636, 0.08805084
764, 922843777, -0.24218714, -0.69471043, 0.26755092, -0.62220556, -0.04582686, 0.03432645, 0.1172905
765, 922860444, -0.24219005, -0.6946162, 0.26751542, -0.6223247, -0.023591792, 0.06962462, 0.1001997
766, 922877111, -0.2421235, -0.6945594, 0.26747182, -0.6224327, -0.035095446, -0.0023586205, 0.05574894
767, 922893778, -0.24200203, -0.6945394, 0.26739517, -0.62253535, 0.043903533, -2.6162193E-4, 0.103022575
768, 922910445, -0.24195988, -0.69448864, 0.26732746, -0.62263745, -0.02062734, 0.062026076, 0.12958717
769, 922927112, -0.24196912, -0.69441366, 0.26735377, -0.62270606, -0.11795382, 0.0027622848, 0.072431564
770, 922943779, -0.24190503, -0.6944665, 0.2674184, -0.62264436, -0.123840034, -0.10100394, 0.06860542
771, 922960446, -0.24205215, -0.6943988, 0.26751956, -0.6226191, -0.07418747, 0.0925404, 0.13964367
772, 922977113, -0.24218348, -0.6942647, 0.2675745, -0.6226941, -0.014633505, 0.007178342, 0.08943558
773, 922993780, -0.2422701, -0.6941075, 0.2675901, -0.62282896, 0.0130229825, -0.013949779, 0.114414215
774, 923010447, -0.24226433, -0.6940242, 0.26754773, -0.6229423, 0.0849718, 0.008960746, 0.06840801
775, 923027114, -0.24229343, -0.69397134, 0.26754922, -0.6229893, 0.0016215865, 0.021893205, 0.1077137
776, 923043781, -0.24228893, -0.6938562, 0.2674839, -0.6231471, -0.090901434, -0.011650836, 0.11769104
777, 923060448, -0.2422498, -0.69385743, 0.2674742, -0.6231652, 0.005469027, -0.021185564, 0.051966667
778, 923077115, -0.24222389, -0.69384086, 0.26749456, -0.623185, -0.052736484, 0.024155939, 0.13416576
779, 923093782, -0.24221544, -0.6937765, 0.2674856, -0.6232638, -0.02697455, 0.035311025, 0.11143017
780, 923110449, -0.24217978, -0.69367844, 0.26746967, -0.6233934, -0.03776626, -0.02712542, 0.07851219
781, 923127116, -0.24222581, -0.69359666, 0.26746255, -0.6234697, -0.010244716, 0.014755543, 0.13588524
782, 923143783, -0.24234666, -0.69348645, 0.2675405, -0.62351197, 0.014581929, 0.023656387, 0.08415127
783, 923160450, -0.24238336, -0.693444, 0.26757553, -0.62352985, -0.06030821, -0.012830761, 0.06266403
784, 923177117, -0.24226351, -0.6934769, 0.26749507, -0.6235744, 9.376369E-5, -0.028598594, 0.080771446
785, 923193784, -0.24225523, -0.6935311, 0.26748404, -0.6235221, -0.0072764084, 0.08599538, 0.14869785
786, 923210451, -0.24225669, -0.69349796, 0.26747105, -0.62356395, 0.006697454, 0.0504975, 0.1411848
787, 923227118, -0.2421231, -0.693521, 0.26748708, -0.62358326, -0.10972821, -0.04483994, 0.06565666
788, 923243785, -0.242045, -0.6934915, 0.26748565, -0.62364703, -0.13023603, -0.0395457, 0.10913563
789, 923260452, -0.24211265, -0.69337225, 0.26751903, -0.623739, -0.015312258, 0.116564915, 0.12007713
790, 923277119, -0.24222583, -0.6932988, 0.2675953, -0.62374395, -0.019824874, 0.06531563, 0.07885742
791, 923293786, -0.24219635, -0.69332504, 0.26762477, -0.6237137, -0.055803474, -0.020339232, 0.057112694
792, 923310453, -0.24210414, -0.6933998, 0.26762688, -0.62366545, -0.012474929, -0.010214766, 0.12963581
793, 923327120, -0.24209824, -0.6934516, 0.26762956, -0.623609, 0.037126563, 0.07699977, 0.13658047
794, 923343787, -0.242017, -0.6934506, 0.26757726, -0.6236641, 0.019270169, 0.0064934986, 0.103648186
795, 923360454, -0.24190639, -0.693416, 0.26739147, -0.623825, 0.0939435, 0.13457368, 0.2201643
796, 923377121, -0.24172533, -0.6932545, 0.26713362, -0.6241851, 0.056854766, 0.13277441, 0.14558601
797, 923393788, -0.24152833, -0.69307166, 0.26696596, -0.6245362, -0.16858225, -0.05310634, 0.059033394
798, 923410455, -0.24139598, -0.69287753, 0.26681387, -0.62486756, -0.020521227, -0.15701707, 0.116155624
799, 923427122, -0.24120364, -0.6926292, 0.266549, -0.62533, 0.17515168, -0.11242221, 0.20596409
800, 923443789, -0.2408766, -0.69219065, 0.26604748, -0.62615454, 0.32512596, -0.18551318, 0.2812462
801, 923460456, -0.24070974, -0.6915012, 0.2656731, -0.6271389, 0.2798884, 0.041384093, 0.269063
802, 923477123, -0.24044478, -0.69064975, 0.26536456, -0.6283084, 0.18778542, 0.024758084, 0.15884113
803, 923493790, -0.24044135, -0.68944174, 0.26510635, -0.62974364, -0.08527394, 0.16890629, 0.32855892
804, 923510457, -0.2406018, -0.68777114, 0.26451534, -0.63175446, -0.019578896, 0.3930579, 0.31440353
805, 923527124, -0.24065304, -0.68539184, 0.26322696, -0.63485104, 0.0043499535, 0.2892195, 0.12924004
806, 923543791, -0.2403801, -0.68237, 0.26123944, -0.6390171, 0.0058353646, 0.20119843, 0.16640186
807, 923560458, -0.239787, -0.67879605, 0.25896952, -0.6439515, -0.063411295, 0.13233331, 0.1722517
808, 923577125, -0.23891968, -0.67476875, 0.25686046, -0.6493286, -0.6027273, -0.0041984674, 0.36447144
809, 923593792, -0.23812208, -0.6700945, 0.25505456, -0.6551479, -1.1049684, -0.14338501, 0.3792057
810, 923610459, -0.23735945, -0.6648291, 0.253208, -0.6614748, -0.8900475, -0.19237804, 0.28360558
811, 923627126, -0.23657408, -0.6589816, 0.2511702, -0.6683487, -0.5198971, 0.0048771645, 0.44262123
812, 923643793, -0.2361208, -0.6526888, 0.2489026, -0.67549413, -0.88717127, 0.49453694, 0.41722202
813, 923660460, -0.2359822, -0.6457201, 0.24691367, -0.68292904, -1.4308059, 0.22682464, 0.5029049
814, 923677127, -0.2346055, -0.6385902, 0.24558455, -0.6905443, -2.15617, -0.16410433, 0.2849636
815, 923693794, -0.23275208, -0.63110876, 0.24490401, -0.69824827, -2.496599, -0.33936363, -0.051865578
816, 923710461, -0.23095375, -0.6234782, 0.24398568, -0.7059793, -1.8676847, -0.2856063, -0.045898438
817, 923727128, -0.23035842, -0.6162499, 0.24263288, -0.71295214, -1.5533767, 0.0950918, -0.060588837
818, 923743795, -0.23186597, -0.6081973, 0.24291013, -0.71925604, -0.9984479, 0.7102646, 0.28606415
819, 923760462, -0.23251191, -0.599686, 0.24308419, -0.7261028, -0.13149111, 0.49449313, -0.020975113
820, 923777129, -0.23279649, -0.5912914, 0.24269266, -0.7329946, 0.74766165, 0.13414644, -0.0091667175
821, 923793796, -0.23194528, -0.5828396, 0.24220562, -0.7401596, 0.71478856, -0.38847134, 0.19769382
822, 923810463, -0.23076898, -0.5738449, 0.24149618, -0.7477484, 0.37041923, -0.27162904, 0.26146603
823, 923827130, -0.23029554, -0.5643677, 0.24126394, -0.7551458, 0.34814578, -0.13742258, 0.018774033
824, 923843797, -0.23000376, -0.5551889, 0.24159382, -0.76190317, 0.5108957, -0.41099304, -0.6941118
825, 923860464, -0.22941764, -0.5454519, 0.24120648, -0.7692007, -0.10524203, -0.3919047, -0.043956757
826, 923877131, -0.22900158, -0.5349898, 0.24015881, -0.776961, 0.3829471, 0.29612517, 0.32761765
827, 923893798, -0.22768651, -0.52548903, 0.2380034, -0.7844585, 1.1152304, -0.20792471, -0.18301296
828, 923910465, -0.22682773, -0.51726156, 0.23613793, -0.79071426, 0.6053422, -1.1463786, -0.2146616
829, 923927132, -0.22608325, -0.5089239, 0.23452987, -0.7967928, -0.362084, -0.5707612, 0.13147736
830, 923943799, -0.22527356, -0.500295, 0.23245707, -0.8030696, -0.038660757, -1.1462165, -0.44295216
831, 923960466, -0.22604091, -0.4917787, 0.23168656, -0.80831975, -0.21752052, -0.5002032, -0.5486603
832, 923977133, -0.22738895, -0.48305812, 0.23184942, -0.8131392, 0.09512874, -0.0821618, -0.44725227
833, 923993800, -0.22777069, -0.47415665, 0.23190463, -0.81824, 0.27004382, 0.43955544, 0.055395126
834, 924010467, -0.22792926, -0.46513662, 0.23116837, -0.8235641, 0.8082026, 0.3308175, 0.025809288
835, 924027134, -0.22833778, -0.45619583, 0.23072438, -0.82856154, 0.5000445, -0.4403822, -0.22556591
836, 924043801, -0.22909431, -0.44686624, 0.22980833, -0.83367544, -0.005600173, 0.5432469, -0.6807718
837, 924060468, -0.22917338, -0.43760234, 0.22838996, -0.8389411, 0.7899351, 1.063243, -0.3178587
838, 924077135, -0.22910401, -0.42837042, 0.22723468, -0.84402305, 0.48714364, -0.39845163, 0.026721
839, 924093802, -0.22849093, -0.41984576, 0.22446784, -0.8491973, 0.75476724, -0.58474016, -0.35799026
840, 924110469, -0.22845672, -0.4114977, 0.22122802, -0.85412866, 0.79152703, -1.0683984, -0.61566544
841, 924127136, -0.22903563, -0.40264222, 0.21867487, -0.8588387, 0.40311328, -0.6315317, -0.8938408
842, 924143803, -0.22909811, -0.39364973, 0.21639678, -0.86355466, 0.7739719, 0.35524523, -0.78674984
843, 924160470, -0.22884636, -0.38410726, 0.21414514, -0.868466, 0.61632353, 0.9263792, -0.09553051
844, 924177137, -0.2289177, -0.37339514, 0.21273905, -0.8734502, -0.47420105, -0.63708067, 0.41742325
845, 924193804, -0.22909035, -0.36277142, 0.21176195, -0.87810683, -0.64740556, -1.7980893, -0.35564518
846, 924210471, -0.22965072, -0.35160834, 0.21093594, -0.8826882, -0.8078996, -1.3820672, -1.195157
847, 924227138, -0.2309018, -0.3398557, 0.21004656, -0.88716584, -0.24373119, -0.22157548, -0.95603466
848, 924243805, -0.23169273, -0.32856575, 0.20733821, -0.89183754, 0.5872288, 1.3544602, 0.103731155
849, 924260472, -0.2322604, -0.3173499, 0.20422395, -0.8964581, -0.3358717, 0.21395531, 0.70770264
850, 924277139, -0.23199813, -0.30662313, 0.20204265, -0.9007431, -1.503916, -1.1931059, 0.13668919
851, 924293806, -0.23203024, -0.2957363, 0.20114286, -0.9045684, -1.2079594, -0.93176955, -0.5436163
852, 924310473, -0.2329168, -0.28419167, 0.20009026, -0.90826714, 0.05498072, 0.98947686, -0.4839859
853, 924327140, -0.23398626, -0.27289265, 0.19780485, -0.91195047, 0.97493535, 2.2554922, 0.90163326
854, 924343807, -0.23439805, -0.26218122, 0.19493487, -0.91559774, -0.14598908, 1.5227016, 0.8292875
855, 924360474, -0.23423462, -0.25162166, 0.19265237, -0.919079, -0.96953875, 0.24127363, 0.7356329
856, 924377141, -0.23370887, -0.24167089, 0.19095773, -0.9222313, -1.1635603, -0.41938445, 0.60695934
857, 924393808, -0.23314053, -0.23222975, 0.18933372, -0.9251313, -0.5372853, 0.12987566, -0.013461113
858, 924410475, -0.23299032, -0.22301438, 0.18708102, -0.92789066, 0.59228414, 1.2453063, 0.30255795
859, 924427142, -0.23260236, -0.21390222, 0.18358873, -0.9308261, 0.91776854, 1.5639027, 0.5445242
860, 924443809, -0.23152545, -0.20491931, 0.17972583, -0.9338647, 0.30670407, 0.5847668, 0.31021786
861, 924460476, -0.23002131, -0.19631422, 0.17631106, -0.93673134, -0.051858835, 0.022506637, 0.20602417
862, 924477143, -0.22865467, -0.18805242, 0.17302758, -0.9393697, 0.23566416, -0.31366473, 0.1516552
863, 924493810, -0.22764225, -0.18044336, 0.16978453, -0.94169676, 0.7005077, -0.3476407, 0.3931284
864, 924510477, -0.22673273, -0.17302178, 0.1665203, -0.94388926, 0.8121076, 0.2452641, 0.4841261
865, 924527144, -0.2254721, -0.16635041, 0.16292012, -0.94601655, 0.42167002, 0.32219014, 0.9867306
866, 924543811, -0.22411662, -0.16025673, 0.15937822, -0.9479917, -0.8325833, 0.35087806, 0.6466541
867, 924560478, -0.22347608, -0.1549723, 0.15642491, -0.9495124, -1.0624872, -0.12989922, 1.0556889
868, 924577145, -0.22341311, -0.15119357, 0.15460303, -0.9504344, -0.052335337, -0.61011416, 0.67628956
869, 924593812, -0.22370212, -0.14886907, 0.15312369, -0.9509727, 0.407942, -0.92280376, 0.6506109
870, 924610479, -0.22405437, -0.14739616, 0.15150842, -0.95137775, 0.67245257, -0.81374, 0.38704205
871, 924627146, -0.2247505, -0.14618024, 0.1499862, -0.95164233, 0.5374858, -0.8652074, -0.17904282
872, 924643813, -0.22574405, -0.14468686, 0.1489682, -0.9517954, 0.1662049, -0.9094762, -0.61647034
873, 924660480, -0.22659583, -0.14300655, 0.1481232, -0.9519786, 0.5587897, -1.1798558, -0.47901726
874, 924677147, -0.22759333, -0.14138596, 0.14741604, -0.9520926, 0.7291223, -1.112389, -0.3359003
875, 924693814, -0.22874814, -0.13989668, 0.14697239, -0.95210445, 1.3058033, -1.0092376, -0.30674362
876, 924710481, -0.22995378, -0.13863985, 0.14695945, -0.9519997, 1.365569, -0.9397819, -0.16179848
877, 924727148, -0.23094681, -0.13723686, 0.14697511, -0.9519604, 0.7686118, -0.35838443, -0.16973495
878, 924743815, -0.23159763, -0.13563599, 0.1467445, -0.95206714, 0.7784551, -0.20786323, -0.036501884
879, 924760482, -0.23201604, -0.13406666, 0.14638871, -0.9522423, 0.5094733, -0.20311946, -0.009986877
880, 924777149, -0.23239864, -0.13250564, 0.14611688, -0.95240927, 0.18833375, 0.08136743, 0.107536316
881, 924793816, -0.23285306, -0.13106483, 0.14591607, -0.9525285, -0.15884365, 0.37065086, 0.22167492
882, 924810483, -0.23320977, -0.12988895, 0.14578414, -0.95262235, -0.28770572, 0.49298078, 0.29430008
883, 924827150, -0.23339236, -0.12904072, 0.14565073, -0.9527133, -0.28332016, 0.5269546, 0.33974743
884, 924843817, -0.23340471, -0.12849905, 0.14540276, -0.9528214, -0.24952036, 0.44678843, 0.36977768
885, 924860484, -0.23332456, -0.12820162, 0.14493081, -0.952953, -0.14047317, 0.40534806, 0.3032589
886, 924877151, -0.23334205, -0.12798584, 0.14433606, -0.953068, -0.18350841, 0.27662426, 0.19750881
887, 924893818, -0.23349622, -0.12779947, 0.14389528, -0.95312196, -0.23214956, 0.11231132, 0.12429237
888, 924910485, -0.23361059, -0.12756555, 0.14368212, -0.95315737, -0.17212932, 0.12720098, 0.038095474
889, 924927152, -0.23355985, -0.1272156, 0.14342986, -0.9532546, -0.06409502, 0.12560196, 0.01575756
890, 924943819, -0.23334274, -0.1268671, 0.14328173, -0.9533766, 0.12676732, -0.04474207, 0.07699013
891, 924960486, -0.23298024, -0.12651153, 0.14316352, -0.9535302, 0.2957136, -0.050300136, 0.0147275925
892, 924977153, -0.23253451, -0.12610425, 0.14289084, -0.9537337, 0.30411294, -0.10420072, 0.038170815
893, 924993820, -0.23212601, -0.1256731, 0.14263637, -0.9539282, 0.19642268, -0.19802113, 0.03170967
894, 925010487, -0.23175342, -0.12514658, 0.14241523, -0.954121, 0.04453409, -0.1058801, 0.045571327
895, 925027154, -0.23136702, -0.12455502, 0.14224325, -0.9543179, 0.007393585, 0.047256812, 0.06889534
896, 925043821, -0.23086007, -0.12410129, 0.14193057, -0.9545462, 0.083194986, 0.07583627, 0.084267616
897, 925060488, -0.23025574, -0.123904735, 0.14130715, -0.95481014, 0.21268956, -0.028562022, 0.117176056
898, 925077155, -0.22977586, -0.12377078, 0.14066485, -0.95503813, 0.23906705, -0.21811064, 0.093919754
899, 925093822, -0.22944112, -0.12368206, 0.14002818, -0.95522356, 0.120525286, -0.26783642, 0.09914398
900, 925110489, -0.22920223, -0.123551436, 0.13959944, -0.95536053, -0.031547483, -0.33872905, 0.05194187
901, 925127156, -0.22904259, -0.123358876, 0.13937269, -0.95545673, -0.16438961, -0.30043808, 0.012784004
902, 925143823, -0.22887193, -0.123187214, 0.1392504, -0.9555377, -0.14101131, -0.23528223, -0.015619278
903, 925160490, -0.22866468, -0.12312333, 0.1389226, -0.95564336, -0.06032559, -0.205657, 0.056300163
904, 925177157, -0.22853705, -0.12311677, 0.1385619, -0.95572704, -0.08925915, -0.2741192, 0.08156586
905, 925193824, -0.22849718, -0.1231121, 0.13818334, -0.955792, -0.09646118, -0.27676058, 0.043642998
906, 925210491, -0.22854747, -0.12303572, 0.1378001, -0.9558452, -0.1563062, -0.28995264, 0.030878067
907, 925227158, -0.22866353, -0.12290138, 0.13748352, -0.9558801, -0.26087794, -0.28302762, 0.032331467
908, 925243825, -0.22882076, -0.12272698, 0.13735008, -0.9558841, -0.3814995, -0.33961278, 0.02810955
909, 925260492, -0.22895621, -0.12249527, 0.13725525, -0.9558952, -0.2760205, -0.36150098, 0.014881134
910, 925277159, -0.22921014, -0.12221563, 0.13722573, -0.95587415, -0.13853802, -0.41490632, 0.07063961
911, 925293826, -0.22956724, -0.12191592, 0.1373816, -0.9558045, -0.110031016, -0.37804586, 0.090434074
912, 925310493, -0.22996645, -0.12166877, 0.13768576, -0.9556961, -0.063482404, -0.2864496, 0.097325325
913, 925327160, -0.23034716, -0.121481046, 0.1382229, -0.95555073, -0.017436692, -0.3080681, 0.039801598
914, 925343827, -0.23067588, -0.121315815, 0.13873391, -0.95541847, 0.044404343, -0.1972174, 0.0021076202
915, 925360494, -0.23098947, -0.12118591, 0.13904494, -0.955314, 0.17384256, -0.11943486, 0.008625984
916, 925377161, -0.2313412, -0.12101434, 0.13920024, -0.9552281, 0.23551172, -0.13504356, 0.060548782
917, 925393828, -0.2316466, -0.12090881, 0.1393206, -0.9551498, 0.27801806, -0.18427412, 0.0578022
918, 925410495, -0.23194844, -0.120795265, 0.13950615, -0.9550638, 0.3097435, -0.13400328, 0.032447815
919, 925427162, -0.23222497, -0.1206365, 0.1398481, -0.9549666, 0.30724007, -0.10689711, 0.034124374
920, 925443829, -0.23243457, -0.120528996, 0.1402886, -0.9548646, 0.33781418, -0.066179685, 0.07539177
921, 925460496, -0.23257306, -0.12044468, 0.14072756, -0.9547769, 0.35176373, 0.094878316, 0.045315742
922, 925477163, -0.23259668, -0.120460935, 0.14091277, -0.9547418, 0.4342071, 0.19412397, 0.10175896
923, 925493830, -0.23250364, -0.12060651, 0.14083588, -0.95475745, 0.3449261, 0.11212365, 0.097950935
924, 925510497, -0.23235387, -0.12083374, 0.14055999, -0.95480585, 0.25109968, 0.030106328, 0.09216118
925, 925527164, -0.23218969, -0.1210598, 0.14032444, -0.9548518, 0.1659145, -0.04517071, 0.06559086
926, 925543831, -0.23200636, -0.12126366, 0.14025454, -0.9548807, 0.09024757, -0.10845528, 0.09709263
927, 925560498, -0.23177359, -0.12148196, 0.14028946, -0.9549045, 0.05820772, -0.074615024, 0.08392048
928, 925577165, -0.2315295, -0.12170295, 0.14030753, -0.9549328, 0.03021219, -0.025774062, 0.07147789
929, 925593832, -0.23128192, -0.121909216, 0.14021708, -0.9549798, -0.048157822, -0.018646736, 0.068024635
930, 925610499, -0.23107079, -0.12209095, 0.140029, -0.9550353, -0.14444187, 0.014097745, 0.10183334
931, 925627166, -0.23087473, -0.122230984, 0.13986947, -0.95508814, -0.22623593, -0.04239764, 0.074710846
932, 925643833, -0.23065284, -0.12234043, 0.13969336, -0.95515347, -0.19143024, -0.10577253, 0.024777412
933, 925660500, -0.23046163, -0.122419104, 0.13952094, -0.9552147, -0.11995915, -0.14379947, 0.029997826
934, 925677167, -0.23039454, -0.12244852, 0.13936874, -0.9552494, -0.2033657, -0.13380428, 0.08280945
935, 925693834, -0.23039429, -0.12245228, 0.13930042, -0.9552589, -0.22062024, -0.17870785, 0.08189201
936, 925710501, -0.23039638, -0.12243684, 0.13919264, -0.95527613, -0.27086478, -0.13296492, 0.06597614
937, 925727168, -0.23043531, -0.12238336, 0.13904512, -0.9552951, -0.24434277, -0.16017668, 0.053702354
938, 925743835, -0.23053835, -0.12229856, 0.13890116, -0.955302, -0.17828408, -0.2341394, 0.05155468
939, 925760502, -0.23069894, -0.122157864, 0.13881467, -0.9552939, -0.10235944, -0.24725518, 0.027628899
940, 925777169, -0.23089167, -0.12205054, 0.13875553, -0.95526963, -0.06387679, -0.22987732, 0.0628767
941, 925793836, -0.23110469, -0.121930905, 0.1387122, -0.9552397, -0.096393175, -0.19332923, 0.05668068
942, 925810503, -0.231281, -0.1218126, 0.13861434, -0.9552263, -0.07054904, -0.13518667, 0.058883667
943, 925827170, -0.23136999, -0.12173105, 0.13849771, -0.955232, -0.053427197, -0.13848254, 0.026737213
944, 925843837, -0.23139071, -0.121628955, 0.138473, -0.9552435, -0.08149464, -0.11790345, 0.078948975
945, 925860504, -0.23131374, -0.121510506, 0.13850285, -0.955273, -0.03237479, -0.10613504, 0.07056904
946, 925877171, -0.23117177, -0.121432394, 0.13857414, -0.955307, 0.04954377, -0.11021656, 0.09902668
947, 925893838, -0.23103137, -0.12136255, 0.13869381, -0.95533246, 0.094634935, -0.084655896, 0.08697033
948, 925910505, -0.2309232, -0.12128078, 0.13880028, -0.9553535, 0.052835025, -0.07803567, 0.056645393
949, 925927172, -0.23079541, -0.12120193, 0.13887005, -0.95538425, 0.047404192, -0.09985472, 0.041085243
950, 925943839, -0.2306856, -0.12112897, 0.13886583, -0.9554206, 0.07815382, -0.0893811, 0.024269104
951, 925960506, -0.23058464, -0.121055655, 0.13882059, -0.95546085, 0.118572146, -0.104698025, 0.035541534
952, 925977173, -0.23054759, -0.12097776, 0.13877231, -0.95548666, 0.14929433, -0.14439322, 0.0642643
953, 925993840, -0.23054402, -0.12090758, 0.13875565, -0.9554989, 0.16430946, -0.09781357, 0.05105591
954, 926010507, -0.23054308, -0.12084845, 0.13875903, -0.9555061, 0.1901522, -0.08088338, 0.056985855
955, 926027174, -0.2305083, -0.12081219, 0.13876441, -0.95551825, 0.21785443, -0.09004218, 0.06973648
956, 926043841, -0.23044974, -0.12081571, 0.13872068, -0.95553833, 0.17668353, -0.10617984, 0.06111622
957, 926060508, -0.23039909, -0.1208254, 0.138657, -0.95555854, 0.11424758, -0.16211545, 0.06395054
958, 926077175, -0.23033382, -0.12084291, 0.1386349, -0.9555752, 0.076133035, -0.18700455, 0.026872635
959, 926093842, -0.23025736, -0.120838776, 0.13866186, -0.9555903, 0.030581713, -0.13148862, 0.021406174
960, 926110509, -0.23019564, -0.12085592, 0.13865069, -0.95560473, 0.022280637, -0.11219138, 0.050456047
961, 926127176, -0.23019174, -0.12086256, 0.13858746, -0.95561385, -0.044688873, -0.117675185, 0.068362236
962, 926143843, -0.23020631, -0.12088327, 0.13849138, -0.9556217, -0.09675434, -0.11874372, 0.052025795
963, 926160510, -0.2302404, -0.12083303, 0.13837388, -0.95563686, -0.19677399, -0.1766137, 0.052549362
964, 926177177, -0.23029561, -0.120729186, 0.13841048, -0.95563126, -0.23212172, -0.20569861, 0.042713165
965, 926193844, -0.23034452, -0.12054983, 0.13852924, -0.95562506, -0.22537546, -0.18128823, 0.060751915
966, 926210511, -0.2304095, -0.12032698, 0.13864733, -0.9556204, -0.20027167, -0.16597782, 0.057764053
967, 926227178, -0.23053388, -0.12007522, 0.13874431, -0.9556079, -0.23073946, -0.12549523, 0.07189274
968, 926243845, -0.23070718, -0.11978516, 0.13886033, -0.95558566, -0.22020641, -0.076554246, 0.07102966
969, 926260512, -0.23087528, -0.1194658, 0.13895632, -0.955571, -0.18381979, -0.08589458, 0.086839676
970, 926277179, -0.23103812, -0.119184926, 0.13905717, -0.95555216, -0.05710013, -0.06042153, 0.08358097
971, 926293846, -0.23119782, -0.11891751, 0.13914204, -0.9555345, 0.02576554, -0.07091541, 0.07706261
972, 926310513, -0.23135023, -0.11866241, 0.13924423, -0.95551443, 0.055653106, -0.098299325, 0.061035156
973, 926327180, -0.23147768, -0.11843514, 0.1393878, -0.9554909, 0.08068994, -0.14782378, 0.039411545
974, 926343847, -0.23159069, -0.11819379, 0.13958138, -0.9554651, 0.14012642, -0.16713971, 0.057510376
975, 926360514, -0.23166548, -0.11796859, 0.13978098, -0.9554456, 0.14748466, -0.13493131, 0.04347515
976, 926377181, -0.23170571, -0.117791474, 0.13996015, -0.95543146, 0.1770556, -0.17182156, 0.046909332
977, 926393848, -0.23174602, -0.117639735, 0.14013347, -0.95541495, 0.20313601, -0.17263009, 0.032917976
978, 926410515, -0.23180045, -0.117507346, 0.14022283, -0.95540494, 0.1571233, -0.14499718, 0.033312798
979, 926427182, -0.23188016, -0.117359705, 0.14026214, -0.9553979, 0.111007236, -0.120710716, 0.049782753
980, 926443849, -0.23199886, -0.11720107, 0.1403432, -0.9553767, 0.09635881, -0.100966975, 0.070272446
981, 926460516, -0.23214412, -0.1170316, 0.1404388, -0.95534813, 0.075360805, -0.08423267, 0.06980038
982, 926477183, -0.23228893, -0.11688311, 0.1404967, -0.9553226, 0.044181693, -0.07479604, 0.04141426
983, 926493850, -0.23242164, -0.116723485, 0.14050028, -0.95530933, 0.021964395, -0.09646864, 0.07809448
984, 926510517, -0.23258367, -0.1165618, 0.14051324, -0.9552877, -6.1717513E-4, -0.049888205, 0.10195446
985, 926527184, -0.23275991, -0.1163921, 0.1404935, -0.9552684, -0.049961347, -0.052544262, 0.080106735
986, 926543851, -0.23292035, -0.11622283, 0.14045687, -0.9552553, -0.06287923, -0.08815432, 0.07813072
987, 926560518, -0.23304814, -0.11607167, 0.1404244, -0.9552473, -0.046768997, -0.11611783, 0.06835079
988, 926577185, -0.23314427, -0.115923405, 0.14040008, -0.9552454, -0.039919414, -0.1500605, 0.054106712
989, 926593852, -0.23320198, -0.115805365, 0.14039996, -0.95524555, -0.015541666, -0.17841485, 0.06262684
990, 926610519, -0.23326892, -0.11568242, 0.14047332, -0.95523334, -0.018435962, -0.21721797, 0.07738304
991, 926627186, -0.23336042, -0.1155611, 0.14059141, -0.95520836, -0.03671857, -0.18943016, 0.046658516
992, 926643853, -0.23348434, -0.11544395, 0.14071429, -0.9551742, -0.045635477, -0.15100741, 0.06806469
993, 926660520, -0.23360556, -0.11532461, 0.14086397, -0.9551368, -0.023133172, -0.14821152, 0.05983448
994, 926677187, -0.23372692, -0.11520292, 0.14100163, -0.95510155, 0.025221985, -0.120821804, 0.033740044
995, 926693854, -0.2338769, -0.11506527, 0.14115764, -0.9550584, 0.054336, -0.10150221, 0.062973976
996, 926710521, -0.2340437, -0.11492346, 0.14129078, -0.955015, 0.077447265, -0.09462334, 0.053717613
997, 926727188, -0.23421572, -0.114795364, 0.14137995, -0.9549749, 0.07778287, -0.107588015, 0.077106476
998, 926743855, -0.23435576, -0.11466233, 0.14152001, -0.9549357, 0.098165326, -0.098896295, 0.047175407
999, 926760522, -0.23446046, -0.11452785, 0.14165363, -0.9549064, 0.10124368, -0.0639166, 0.057650566
1000, 926777189, -0.23455712, -0.114398725, 0.14174235, -0.954885, 0.087429106, -0.037916906, 0.06576347
1001, 926793856, -0.23461342, -0.114305496, 0.14179608, -0.95487434, 0.11735095, -0.036570773, 0.06974983
1002, 926810523, -0.23461491, -0.11423944, 0.14179882, -0.9548815, 0.08646579, -0.046376422, 0.046977043
1003, 926827190, -0.23459063, -0.114204645, 0.14178506, -0.95489365, 0.10207007, -0.088393845, 0.08638382
1004, 926843857, -0.23455276, -0.11419182, 0.14176919, -0.9549069, 0.07316484, -0.07244261, 0.07166481
1005, 926860524, -0.23450606, -0.11419115, 0.14172436, -0.9549251, 0.037142713, -0.06473014, 0.061644554
1006, 926877191, -0.23443449, -0.11418888, 0.1416726, -0.9549506, -9.5976464E-4, -0.059852384, 0.043847084
1007, 926893858, -0.23436835, -0.11419108, 0.14157005, -0.9549818, 0.008091225, -0.071705945, 0.06941509
1008, 926910525, -0.23430005, -0.11419824, 0.1414535, -0.955015, 0.019136313, -0.11176718, 0.06933308
1009, 926927192, -0.23424324, -0.11421056, 0.141397, -0.95503575, 0.03312758, -0.12508537, 0.065665245
1010, 926943859, -0.2341809, -0.11421139, 0.1413276, -0.9550613, -0.025069967, -0.11166053, 0.04625225
1011, 926960526, -0.23416382, -0.11418432, 0.14125729, -0.955079, -0.05817788, -0.117719136, 0.034049034
1012, 926977193, -0.23416226, -0.11414981, 0.1412242, -0.95508844, -0.06352512, -0.1562039, 0.034464836
1013, 926993860, -0.23417075, -0.11409472, 0.1412099, -0.9550951, -0.023169996, -0.15569834, 0.055152893
1014, 927010527, -0.23417014, -0.11406149, 0.14115609, -0.9551073, 0.021509461, -0.14166848, 0.07032013
1015, 927027194, -0.23416837, -0.114041165, 0.14104937, -0.9551258, 0.020218926, -0.13594429, 0.071035385
1016, 927043861, -0.23420398, -0.11402117, 0.14099945, -0.9551268, -0.014924491, -0.1630677, 0.054232597
1017, 927060528, -0.23426278, -0.113979675, 0.1409886, -0.955119, -0.011288242, -0.1512885, 0.047887802
1018, 927077195, -0.23432212, -0.113926426, 0.1409991, -0.9551092, 6.711256E-4, -0.13859616, 0.04536152
1019, 927093862, -0.23435275, -0.11386867, 0.14103085, -0.9551039, 0.019362787, -0.12534025, 0.062084198
1020, 927110529, -0.23437794, -0.11382746, 0.14101948, -0.95510423, 0.02622159, -0.08589343, 0.057891846
1021, 927127196, -0.23440713, -0.11379107, 0.14098966, -0.95510584, 0.036644503, -0.08673892, 0.06788254
1022, 927143863, -0.23443194, -0.11374936, 0.14095317, -0.9551101, 0.012180367, -0.117597625, 0.0583601
1023, 927160530, -0.23446147, -0.11369139, 0.14093012, -0.9551131, 0.02023798, -0.12565348, 0.04497814
1024, 927177197, -0.2344898, -0.11363649, 0.14095004, -0.9551098, 0.037027884, -0.119944565, 0.06361294
1025, 927193864, -0.23450033, -0.1135956, 0.14096053, -0.9551106, 0.02537294, -0.10835707, 0.070072174
1026, 927210531, -0.23450013, -0.1135598, 0.14096037, -0.9551149, 0.047457166, -0.12314368, 0.076994896
1027, 927227198, -0.23448876, -0.11353567, 0.14096265, -0.9551202, 0.02719862, -0.10312505, 0.06619263
1028, 927243865, -0.23446737, -0.113494605, 0.1409446, -0.95513296, 0.003692434, -0.08946961, 0.05879116
1029, 927260532, -0.23445317, -0.11344684, 0.14093123, -0.9551441, -2.5519592E-4, -0.0983718, 0.056012154
1030, 927277199, -0.23444402, -0.11340691, 0.14093323, -0.9551508, -0.002264354, -0.11746257, 0.057836533
1031, 927293866, -0.23445119, -0.113359936, 0.1409474, -0.9551526, 0.019592112, -0.11465209, 0.052954674
1032, 927310533, -0.23445839, -0.113324404, 0.14094391, -0.9551555, -0.020044139, -0.10528804, 0.0631876
1033, 927327200, -0.23446895, -0.113266446, 0.1409371, -0.95516074, -0.031716824, -0.113887504, 0.06668854
1034, 927343867, -0.23448798, -0.113220446, 0.14099492, -0.95515305, 0.010179451, -0.1072397, 0.06593895
1035, 927360534, -0.2344992, -0.11320757, 0.14106213, -0.9551419, 0.052787893, -0.13347143, 0.008925438
1036, 927377201, -0.23450398, -0.11322526, 0.14110553, -0.95513225, 0.08324902, -0.12689845, 0.05276966
1037, 927393868, -0.23450412, -0.11328659, 0.14108495, -0.95512795, 0.08109209, -0.07467772, 0.10168362
1038, 927410535, -0.23451947, -0.11334154, 0.14106211, -0.955121, 0.05833501, -0.059979815, 0.056987762
1039, 927427202, -0.23448935, -0.113413036, 0.14101765, -0.95512646, 0.0873735, -0.06790075, 0.062360764
1040, 927443869, -0.23441593, -0.113532834, 0.14086956, -0.9551521, -0.004815978, -0.048121978, 0.05662632
1041, 927460536, -0.23431967, -0.113662444, 0.1406516, -0.95519245, -0.046611924, -0.002314812, 0.08477306
1042, 927477203, -0.23420674, -0.11378987, 0.1405834, -0.955215, -0.03218704, -0.041443296, 0.104634285
1043, 927493870, -0.23407401, -0.11391718, 0.1403745, -0.95526314, 0.012895385, 0.05988524, 0.027180672
1044, 927510537, -0.23395997, -0.11401516, 0.13999358, -0.95533526, -0.03568541, 0.09906309, 0.044779778
1045, 927527204, -0.23384719, -0.11407315, 0.13956954, -0.9554181, -0.09450698, 0.055322167, 0.11551094
1046, 927543871, -0.23377328, -0.114139296, 0.13913323, -0.955492, -0.13760106, 0.03758851, 0.15560722
1047, 927560538, -0.23373637, -0.114174806, 0.13875557, -0.9555514, -0.13266592, -0.0664302, 0.08122158
1048, 927577205, -0.23360007, -0.11427442, 0.13847773, -0.95561326, 0.018700631, -0.11591491, 0.05441761
1049, 927593872, -0.23331226, -0.114462085, 0.1379543, -0.9557368, 0.05993011, -0.032490067, 0.066986084
1050, 927610539, -0.23306887, -0.114556886, 0.13756958, -0.95584035, 0.03555932, -0.15282483, 0.070705414
1051, 927627206, -0.23284535, -0.11460984, 0.13741623, -0.95591044, 0.04887122, -0.20186128, 0.026227951
1052, 927643873, -0.23254415, -0.11466733, 0.13718711, -0.95600975, 0.12938263, -0.21482047, -0.0033712387
1053, 927660540, -0.23220879, -0.11471839, 0.13692783, -0.9561223, 0.12115743, -0.25748035, 0.0362463
1054, 927677207, -0.2319133, -0.11472484, 0.13679577, -0.9562122, 0.15170531, -0.1923299, 0.050639153
1055, 927693874, -0.23161568, -0.11475223, 0.1366989, -0.9562949, 0.10200704, -0.1603015, 0.074463844
1056, 927710541, -0.23132959, -0.11479979, 0.13659139, -0.9563738, 0.060051702, -0.18988082, 0.041407585
1057, 927727208, -0.23100471, -0.11489235, 0.13656169, -0.9564455, 0.17531541, -0.18056011, 0.00839901
1058, 927743875, -0.23073095, -0.11513908, 0.13641496, -0.95650274, 0.2647957, -0.16135392, 0.056191444
1059, 927760542, -0.23063067, -0.115245864, 0.13640085, -0.9565161, 0.12176067, -0.22593594, 0.041540146
1060, 927777209, -0.23068188, -0.11532724, 0.13664511, -0.9564591, 0.07575259, -0.23356865, -0.059951782
1061, 927793876, -0.23076582, -0.11544321, 0.13680688, -0.9564018, 0.118325464, -0.24271946, -0.04903984
1062, 927810543, -0.2307954, -0.11549948, 0.13698548, -0.95636225, 0.065447696, -0.33985594, -0.008753777
1063, 927827210, -0.23079227, -0.11544386, 0.13757853, -0.9562845, -0.0014164295, -0.24588278, 0.026632309
1064, 927843877, -0.23080824, -0.115464665, 0.13812345, -0.95619977, 0.113704, -0.31905878, 0.14454079
1065, 927860544, -0.23078208, -0.11577785, 0.13876086, -0.9560758, 0.119458675, -0.2455527, 0.1279316
1066, 927877211, -0.23069939, -0.11615898, 0.13915098, -0.9559929, 0.043236904, -0.0019839848, 0.050421715
1067, 927893878, -0.23059528, -0.11655928, 0.13927075, -0.95595187, -0.011962833, 0.0048949616, 0.11580181
1068, 927910545, -0.2304406, -0.117017806, 0.13937876, -0.95591724, -0.04473701, -0.12570791, 0.10820389
1069, 927927212, -0.2302719, -0.11747225, 0.13946226, -0.95589006, -0.008965915, -0.10829449, 0.05028534
1070, 927943879, -0.23012564, -0.117862, 0.13964789, -0.9558502, 0.015965028, -0.028136453, 0.05022049
1071, 927960546, -0.22989056, -0.11823179, 0.13971944, -0.95585066, 0.09198857, 0.2815485, 0.11908531
1072, 927977213, -0.2294607, -0.1187225, 0.13951315, -0.9559233, 0.129432, 0.36899295, 0.21486473
1073, 927993880, -0.22845992, -0.11940398, 0.13922685, -0.95611995, 0.08764342, 0.20532353, 0.23181057
1074, 928010547, -0.22700885, -0.120358914, 0.1384969, -0.9564518, -0.058005273, 0.15550056, 0.13422012
1075, 928027214, -0.2256337, -0.12098976, 0.13778435, -0.9568003, -0.31298923, -0.087285444, -0.0033979416
1076, 928043881, -0.2243381, -0.12141042, 0.13770993, -0.95706236, -0.2956554, -0.20664759, 0.04471588
1077, 928060548, -0.22267568, -0.121985435, 0.13773717, -0.9573736, -0.109256096, 0.23784597, 0.19118881
1078, 928077215, -0.22085641, -0.12275861, 0.13724172, -0.9577671, 0.0126383165, 0.43487623, 0.2746191
1079, 928093882, -0.219212, -0.12367229, 0.13632065, -0.9581588, 0.0041452153, 0.24519438, 0.18990135
1080, 928110549, -0.21764775, -0.124631464, 0.13532338, -0.95853245, -0.24641658, 0.03802123, 0.013653755
1081, 928127216, -0.21614419, -0.12536696, 0.13516274, -0.9587993, -0.19727731, -0.09149768, -0.21240711
1082, 928143883, -0.21507406, -0.12567592, 0.13554265, -0.95894593, 0.10909578, -0.12906687, -0.4546852
1083, 928160550, -0.21470541, -0.12582467, 0.1360036, -0.9589437, 0.49771228, -0.6149371, -0.5850897
1084, 928177217, -0.21466796, -0.12626632, 0.13646957, -0.9588279, 0.923753, -0.6633567, -0.34275246
1085, 928193884, -0.2150975, -0.1274658, 0.13594878, -0.95864683, 1.8211077, -0.8501592, 0.16103458
1086, 928210551, -0.21564804, -0.13010721, 0.13694155, -0.95802695, 2.2635071, -2.1535904, 0.5121517
1087, 928227218, -0.21630658, -0.13646066, 0.14045008, -0.9564854, 3.4103966, -2.4735959, 0.21356773
1088, 928243885, -0.21744286, -0.14406916, 0.14369042, -0.95462877, 2.355003, -2.7619874, 0.08565521
1089, 928260552, -0.21943925, -0.15017717, 0.14668687, -0.9527731, 1.6522672, -0.25856337, -0.42919636
1090, 928277219, -0.22111051, -0.15653992, 0.14906712, -0.95099145, 1.8534267, 0.12280198, 0.4155159
1091, 928293886, -0.22151724, -0.16401173, 0.15185215, -0.9491954, 1.4793174, -0.08771878, 0.6304426
1092, 928310553, -0.2217888, -0.17212498, 0.1549397, -0.94719416, 1.3651025, -0.4949738, 0.46804523
1093, 928327220, -0.22215916, -0.18007298, 0.15851843, -0.94503516, 1.0388802, -0.75467867, 0.06309223
1094, 928343887, -0.22259314, -0.18772922, 0.16174857, -0.94289327, 1.7120012, -0.44131616, -0.0076675415
1095, 928360554, -0.22346112, -0.19552508, 0.16420467, -0.94067657, 0.8563914, 0.406392, 0.49796295
1096, 928377221, -0.22443852, -0.20413275, 0.16643666, -0.9382198, -0.66497743, 0.45695055, 0.7751684
1097, 928393888, -0.22493832, -0.21349582, 0.16939962, -0.93548197, -1.572462, 0.25004908, 0.4159212
1098, 928410555, -0.22527587, -0.22330089, 0.17345671, -0.932363, -1.5784062, 0.4638813, 0.48106194
1099, 928427222, -0.22576708, -0.23329751, 0.17818654, -0.92889804, -1.4716142, 0.6825324, 0.6149359
1100, 928443889, -0.22638094, -0.24348217, 0.18312852, -0.9251662, -1.2503428, 0.71037745, 0.6561966
1101, 928460556, -0.22718623, -0.25396693, 0.1873674, -0.9212931, -0.90364325, 1.1731051, 0.77002525
1102, 928477223, -0.22820604, -0.26455724, 0.19069198, -0.9173704, -1.4072912, 0.94909734, 0.7290554
1103, 928493890, -0.22913623, -0.27536166, 0.1940186, -0.91325223, -1.8068866, 0.40044022, 0.59821796
1104, 928510557, -0.23008075, -0.28632724, 0.19783205, -0.9088137, -1.9698349, 0.51179093, 0.47741795
1105, 928527224, -0.23139738, -0.2971238, 0.20190528, -0.9041058, -1.7376763, 0.6739555, 0.45938683
1106, 928543891, -0.23301259, -0.30791703, 0.2057348, -0.8992029, -1.2568724, 0.56483835, 0.3665352
1107, 928560558, -0.2347771, -0.31885564, 0.2090319, -0.89415705, -0.7417596, 0.6109909, 0.28645897
1108, 928577225, -0.23654078, -0.33009276, 0.21208656, -0.88887954, -0.5814446, 0.8229828, 0.097351074
1109, 928593892, -0.23824666, -0.34151265, 0.21515468, -0.8833552, -0.7450121, 0.56511104, -0.1374197
1110, 928610559, -0.23984222, -0.35321003, 0.21838914, -0.8775106, -0.75391114, 0.22886726, -0.20292664
1111, 928627226, -0.24161068, -0.36502665, 0.22161557, -0.8713593, -0.6789172, 0.24237852, 0.09298515
1112, 928643893, -0.2433829, -0.37686244, 0.22451445, -0.8650626, -0.7043821, 0.8306315, 0.04819107
1113, 928660560, -0.24525973, -0.38852686, 0.22718298, -0.85865176, -0.49858084, 1.2002954, 0.080244064
1114, 928677227, -0.24678403, -0.4003892, 0.22941649, -0.8521471, -0.4012323, 1.364516, 0.007338524
1115, 928693894, -0.24778323, -0.4129047, 0.23135738, -0.8453325, -0.4545022, 1.3600097, -0.18466377
1116, 928710561, -0.24809977, -0.4258942, 0.23301037, -0.8383119, -0.6912843, 0.8445711, -0.2849493
1117, 928727228, -0.24809271, -0.4389962, 0.23434515, -0.8311527, -0.59559435, 0.7714509, -0.46495152
1118, 928743895, -0.24765824, -0.45216823, 0.23518659, -0.823952, -0.29187936, 0.42189714, -0.34039974
1119, 928760562, -0.24716708, -0.4651614, 0.2358497, -0.81664485, -0.5049213, 0.5450492, -0.55552864
1120, 928777229, -0.24640977, -0.47813287, 0.2364335, -0.809179, -0.77637094, -0.06377048, -0.58311653
1121, 928793896, -0.24547401, -0.49132052, 0.2363544, -0.8015507, -0.67319584, -0.1790036, -0.68870735
1122, 928810563, -0.24521579, -0.5036785, 0.23696262, -0.793742, -0.719118, 0.10242895, -0.79942894
1123, 928827230, -0.24569479, -0.51545614, 0.23825681, -0.78560376, -0.29400614, 0.0084285615, -0.8883209
1124, 928843897, -0.24525826, -0.52734715, 0.23960444, -0.7773954, 0.40458503, -0.36548156, -0.94967175
1125, 928860564, -0.24408655, -0.5393534, 0.24042612, -0.7692304, 0.5999124, 0.35978734, -0.60634804
1126, 928877231, -0.24201927, -0.55069226, 0.24055369, -0.76177365, 0.31879988, -0.2673538, -0.50594807
1127, 928893898, -0.24113627, -0.5613703, 0.24096313, -0.7540914, 0.5464565, -0.3952973, -0.57376194
1128, 928910565, -0.24080618, -0.57160556, 0.24210669, -0.7460994, 0.5517806, -0.5402344, -0.36918545
1129, 928927232, -0.23950952, -0.58209616, 0.2429752, -0.7380803, 0.090553425, -1.0171393, -0.09261227
1130, 928943899, -0.23889776, -0.5917524, 0.24452212, -0.7300453, -0.34746212, -0.7357507, -0.27307892
1131, 928960566, -0.2384669, -0.60090804, 0.24606638, -0.722146, -0.24201575, -1.8361704, -0.09522438
1132, 928977233, -0.23971191, -0.6091012, 0.24765065, -0.71428525, 0.03052807, -1.8317664, 0.14584923
1133, 928993900, -0.2429193, -0.6161396, 0.25100648, -0.705945, 0.08691765, -1.6449597, 0.21722507
1134, 929010567, -0.24652281, -0.62255263, 0.25457796, -0.69774294, -0.021620743, -1.1521604, -0.020908356
1135, 929027234, -0.24994174, -0.62899417, 0.25793907, -0.68946606, 0.3335761, -3.2375852E-4, -0.07856655
1136, 929043901, -0.25221196, -0.63510954, 0.26051888, -0.68202305, 1.0428109, 0.2613783, 0.3867073
1137, 929060568, -0.2533058, -0.64032674, 0.26209685, -0.6761091, 1.1679419, -0.30354723, 0.51633644
1138, 929077235, -0.25455788, -0.64488184, 0.26353994, -0.67072695, 1.1281269, -0.6502801, 0.53439903
1139, 929093902, -0.25616333, -0.64902943, 0.26547894, -0.6653288, 1.0529366, -0.6979851, 0.33957863
1140, 929110569, -0.25714818, -0.6526824, 0.26713657, -0.6606958, 0.8426872, -0.68260086, 0.34559345
1141, 929127236, -0.25734857, -0.6558897, 0.26800385, -0.6570804, 0.8580127, -0.35506743, 0.5441866
1142, 929143903, -0.25723803, -0.65817046, 0.26813573, -0.6547854, 0.91936564, -0.09057974, 0.41146755
1143, 929160570, -0.25690347, -0.66017693, 0.26822045, -0.6528594, 0.9510644, -0.031016558, 0.19305134
1144, 929177237, -0.2563692, -0.66200376, 0.26829845, -0.65118504, 0.24042395, -0.0023038597, 0.14158535
1145, 929193904, -0.25620788, -0.66359293, 0.26878265, -0.6494291, -0.27570423, -0.18928519, 0.08795452
1146, 929210571, -0.25677443, -0.6649269, 0.26990262, -0.6473734, -0.75966865, -0.0745067, 0.0156002045
1147, 929227238, -0.25744256, -0.66637486, 0.27115038, -0.6450937, -0.49225667, -0.032347355, 0.068377495
1148, 929243905, -0.25785497, -0.6676341, 0.27204436, -0.6432478, -0.22991246, 0.16231534, 0.21761227
1149, 929260572, -0.25824022, -0.66877383, 0.27261865, -0.6416641, 0.004478585, 0.17208363, 0.23582458
1150, 929277239, -0.25840536, -0.66979516, 0.27320248, -0.64028245, -0.015333547, 0.2311419, 0.10103607
1151, 929293906, -0.25873595, -0.6709788, 0.27403873, -0.63855004, -0.14919563, 0.20051235, -0.051241875
1152, 929310573, -0.25871387, -0.67229617, 0.2745459, -0.6369536, 0.12785281, 0.266868, 0.11171436
1153, 929327240, -0.25833195, -0.67370164, 0.2746544, -0.6355753, 0.29247162, 0.34971496, 0.15117073
1154, 929343907, -0.2579607, -0.6748699, 0.2745512, -0.6345304, 0.057306375, 0.20832972, 0.21256351
1155, 929360574, -0.25762492, -0.67589283, 0.27451712, -0.6335922, -0.06554903, -0.033352714, 0.047424316
1156, 929377241, -0.25753075, -0.6769594, 0.27474052, -0.6323938, -0.08104468, 0.16909169, 0.0035905838
1157, 929393908, -0.25745812, -0.6781151, 0.27496794, -0.6310849, 0.15045004, 0.14807533, 0.112252235
1158, 929410575, -0.25746542, -0.6793092, 0.27513468, -0.6297237, 0.25854364, 0.27338105, 0.19366646
1159, 929427242, -0.2570132, -0.6805712, 0.274923, -0.6286373, 0.16597971, 0.2203213, 0.07875061
1160, 929443909, -0.25614434, -0.68181217, 0.27449074, -0.62783545, -0.028368153, 0.061147556, -0.006544113
1161, 929460576, -0.25553334, -0.6828336, 0.27401927, -0.6271799, -0.18917936, 0.19986518, 0.18581104
1162, 929477243, -0.2550521, -0.6837792, 0.27353844, -0.6265554, -3.651643E-4, 0.32183418, 0.17450523
1163, 929493910, -0.2543095, -0.68482995, 0.27310535, -0.625898, -0.22564505, 0.14797373, 0.12817001
1164, 929510577, -0.2536325, -0.68583304, 0.27269197, -0.62525433, -0.2547381, 0.0239008, 0.13403893
