sep=,
DeviceTag:,46,,,,,,,,,,,,,,,,,
FirmwareVersion:,1.6.0,,,,,,,,,,,,,,,,,
AppVersion:,2020.4,,,,,,,,,,,,,,,,,
SyncStatus:,Synced,,,,,,,,,,,,,,,,,
OutputRate:,60Hz,,,,,,,,,,,,,,,,,
FilterProfile:,General,,,,,,,,,,,,,,,,,
Measurement Mode:,Sensor fusion Mode - Complete (Quaternion),,,,,,,,,,,,,,,,,
StartTime:,2021-03-24 15:26:35.002 +0800,,,,,,,,,,,,,,,,,
© Xsens Technologies B. V. 2005-2021,,,,,,,,,,,,,,,,,,,

PacketCounter,SampleTimeFine,Quat_W,Quat_X,Quat_Y,Quat_Z,FreeAcc_X,FreeAcc_Y,FreeAcc_Z
1, 910110189, 0.5873593, 0.07503624, -0.79865515, -0.10737185, 0.014197096, 0.003597078, 0.119540215
2, 910126856, 0.5874194, 0.07509499, -0.7986039, -0.10738346, 0.022180084, 0.018707, 0.10380268
3, 910143523, 0.5874707, 0.07510905, -0.79856014, -0.107417986, 0.020856887, 0.034984834, 0.1304779
4, 910160190, 0.58752215, 0.07513252, -0.798517, -0.10744085, 0.05206466, 0.027549788, 0.14873505
5, 910176857, 0.58757967, 0.075154975, -0.79847115, -0.10745079, 0.07186567, 0.033249088, 0.108986855
6, 910193524, 0.5876443, 0.075189754, -0.7984183, -0.10746768, 0.08333636, 0.008814904, 0.1409111
7, 910210191, 0.587725, 0.07522831, -0.79835534, -0.107467145, 0.070186645, 0.009455212, 0.15818024
8, 910226858, 0.5878148, 0.07525742, -0.7982834, -0.10748904, 0.06736189, 0.009372485, 0.11568546
9, 910243525, 0.58791107, 0.07528987, -0.798208, -0.107499294, 0.054031573, 0.01032018, 0.15475368
10, 910260192, 0.58801645, 0.07529462, -0.7981249, -0.10753689, 0.08365777, 0.04974742, 0.13724422
11, 910276859, 0.5881139, 0.0753088, -0.79804647, -0.10757663, 0.023444274, 0.019269694, 0.11510849
12, 910293526, 0.5882181, 0.07533842, -0.7979667, -0.10757703, 9.611633E-4, 0.016651902, 0.12539291
13, 910310193, 0.5883252, 0.07536871, -0.797886, -0.10756965, -0.022585984, 0.031073553, 0.11576271
14, 910326860, 0.58841825, 0.07535673, -0.79781514, -0.10759339, -0.016410768, 0.039989933, 0.121665
15, 910343527, 0.588494, 0.07532481, -0.79775566, -0.10764258, 0.010397376, -0.0054482957, 0.11178398
16, 910360194, 0.58856755, 0.0753685, -0.7976986, -0.10763303, -0.013598528, -0.016206058, 0.10244846
17, 910376861, 0.5886356, 0.0754473, -0.79764396, -0.10761007, 0.0067371274, -0.013375518, 0.12572002
18, 910393528, 0.5887056, 0.07552904, -0.7975913, -0.107560195, 0.01711394, 0.0026557809, 0.09039593
19, 910410195, 0.58877766, 0.07560347, -0.79753405, -0.10753872, 0.029312383, 0.0040803966, 0.14447594
20, 910426862, 0.58884126, 0.07562823, -0.7974847, -0.10753929, 0.05206958, 0.037114747, 0.13460732
21, 910443529, 0.58889985, 0.07564305, -0.7974342, -0.10758215, 0.047942635, 0.01367877, 0.124884605
22, 910460196, 0.58896387, 0.0756801, -0.79738456, -0.10757327, 0.05631677, 0.006602936, 0.12263298
23, 910476863, 0.58904344, 0.07567576, -0.7973261, -0.10757421, 0.03466194, 0.033462014, 0.14353752
24, 910493530, 0.58912086, 0.075643554, -0.7972667, -0.107613325, 0.029767456, 0.009225022, 0.12320137
25, 910510197, 0.58919233, 0.0756264, -0.7972101, -0.10765353, 0.060667228, 0.0051364116, 0.1329794
26, 910526864, 0.5892748, 0.07558615, -0.7971445, -0.10771603, 0.07430018, -0.005918986, 0.13424492
27, 910543531, 0.5893606, 0.0755614, -0.7970748, -0.107779965, 0.08398991, 0.0043149455, 0.13255024
28, 910560198, 0.5894461, 0.075540245, -0.79700786, -0.10782188, 0.027142072, 0.024676753, 0.1060276
29, 910576865, 0.5895424, 0.075548686, -0.79693335, -0.10784065, -0.017578112, 0.017534133, 0.1236887
30, 910593532, 0.5896309, 0.075565465, -0.79686683, -0.10783676, -0.028462587, 0.040435366, 0.11521435
31, 910610199, 0.58970237, 0.07556011, -0.7968107, -0.10786493, -0.034090195, 0.0318744, 0.11465931
32, 910626866, 0.5897729, 0.075561196, -0.796759, -0.10785955, 0.0010259245, -0.014031473, 0.12604332
33, 910643533, 0.5898472, 0.07557863, -0.79670554, -0.10783594, 0.035260957, 0.046043277, 0.1250763
34, 910660200, 0.5898966, 0.07554136, -0.7966701, -0.10785321, 0.01818099, 0.019342253, 0.13974285
35, 910676867, 0.5899674, 0.075530104, -0.79661834, -0.10785591, -0.0029231024, 0.024484867, 0.13882542
36, 910693534, 0.59002644, 0.07550861, -0.79657763, -0.10784907, 0.02899097, 0.034757942, 0.123187065
37, 910710201, 0.59007305, 0.07543023, -0.7965429, -0.107905924, 0.04819029, 0.008774001, 0.12719154
38, 910726868, 0.59012324, 0.07538729, -0.79650736, -0.10792383, 0.036292695, -0.030107446, 0.11561775
39, 910743535, 0.5901813, 0.07537158, -0.7964671, -0.10791437, 0.011967777, 0.011133851, 0.11279297
40, 910760202, 0.5902278, 0.07534422, -0.7964346, -0.10791899, -0.010539977, 0.00503421, 0.124287605
41, 910776869, 0.59028244, 0.075358175, -0.79639757, -0.10788316, 0.0014103667, -0.013459363, 0.13831234
42, 910793536, 0.59032947, 0.075341806, -0.796366, -0.10787068, 0.041260045, 0.0125567345, 0.10786629
43, 910810203, 0.590371, 0.07532186, -0.79633725, -0.1078699, 0.013521193, -0.004194528, 0.1303482
44, 910826870, 0.59041363, 0.07532208, -0.7963075, -0.10785532, 0.009265059, -0.006018338, 0.12544537
45, 910843537, 0.5904523, 0.075306185, -0.7962809, -0.10785119, 0.0047036065, 0.021853784, 0.09845734
46, 910860204, 0.59046715, 0.07527246, -0.7962731, -0.107851595, -0.037658826, 0.031532694, 0.11845875
47, 910876871, 0.5904818, 0.0752573, -0.7962647, -0.107844085, -0.013499289, 0.006780014, 0.13933468
48, 910893538, 0.5904811, 0.075255774, -0.7962664, -0.107836135, 0.005930693, -0.023808852, 0.12171936
49, 910910205, 0.590505, 0.075246446, -0.7962509, -0.10782576, 0.07253353, -0.021891696, 0.13144779
50, 910926872, 0.59054005, 0.075216606, -0.796224, -0.10785283, 0.13986726, -0.0146164065, 0.1403408
51, 910943539, 0.5905901, 0.07518966, -0.7961829, -0.10790168, 0.13052844, -0.021731494, 0.15197754
52, 910960206, 0.59064275, 0.07516564, -0.7961383, -0.107959524, 0.082961306, 0.025685383, 0.12635517
53, 910976873, 0.5906856, 0.07510509, -0.79609954, -0.10805301, 0.0034604275, 0.026451975, 0.121022224
54, 910993540, 0.5907351, 0.07506807, -0.79605496, -0.10813666, -0.045232765, -0.034164708, 0.13164139
55, 911010207, 0.5907746, 0.07505382, -0.79601794, -0.108203195, -0.04335794, -0.014587461, 0.109007835
56, 911026874, 0.59080434, 0.075026475, -0.7959892, -0.108271256, -0.036656573, 0.0250546, 0.118177414
57, 911043541, 0.59080684, 0.0750046, -0.79597956, -0.10834436, -0.02983138, -0.00759064, 0.12576008
58, 911060208, 0.5908048, 0.07500036, -0.79597414, -0.108396426, -0.026146099, 0.0051025213, 0.11198044
59, 911076875, 0.59078944, 0.074999616, -0.795976, -0.10846728, 0.013016948, 0.0081685325, 0.13426685
60, 911093542, 0.5907676, 0.07493185, -0.79598224, -0.108587496, 0.029653016, 0.0041896384, 0.115942955
61, 911110209, 0.5907367, 0.07489464, -0.795995, -0.1086872, -0.0022995013, -0.050601378, 0.13211823
62, 911126876, 0.59071857, 0.074898876, -0.79600227, -0.10873042, 0.0031993645, 0.0027779029, 0.123874664
63, 911143543, 0.59069496, 0.07491864, -0.7960121, -0.108772494, -0.0045256903, -0.007959631, 0.13030815
64, 911160210, 0.59067357, 0.07494309, -0.7960217, -0.10880256, 0.034887996, 0.020715864, 0.11973572
65, 911176877, 0.5906479, 0.074921116, -0.7960307, -0.10889113, 0.103789136, 0.009803502, 0.14113331
66, 911193544, 0.5906297, 0.07490667, -0.7960334, -0.10897928, 0.10425136, -0.018974015, 0.1324606
67, 911210211, 0.5906236, 0.07491611, -0.79602796, -0.109045565, 0.046125922, -0.016511014, 0.116662025
68, 911226878, 0.59063214, 0.0749583, -0.7960152, -0.10906382, -0.014808181, 0.023133535, 0.111403465
69, 911243545, 0.5906116, 0.07496409, -0.79602325, -0.10911308, -0.05990952, 0.04993243, 0.12301731
70, 911260212, 0.5905758, 0.07497042, -0.7960433, -0.10915619, -0.061628334, 0.014050807, 0.12224579
71, 911276879, 0.5905367, 0.074995615, -0.79606855, -0.10916488, -0.016494809, -0.00816585, 0.116464615
72, 911293546, 0.5904958, 0.075027645, -0.796093, -0.10918559, 0.08079368, 0.004259654, 0.15108585
73, 911310213, 0.59046584, 0.07499419, -0.79610616, -0.109275326, 0.115313016, 0.016597206, 0.14635658
74, 911326880, 0.59044564, 0.074937455, -0.7961115, -0.10938394, 0.12541133, -0.013874595, 0.14368343
75, 911343547, 0.5904379, 0.07493033, -0.79610795, -0.109457396, 0.040346324, 0.009830491, 0.123431206
76, 911360214, 0.5904275, 0.074913695, -0.7961053, -0.109543264, -0.0030437994, 0.018306019, 0.1463499
77, 911376881, 0.5904194, 0.07488792, -0.79610175, -0.10963095, -0.0071854945, 0.019936657, 0.1191082
78, 911393548, 0.5904086, 0.07485179, -0.79610133, -0.10971653, 0.037488934, -0.00974103, 0.13735867
79, 911410215, 0.59039706, 0.07481543, -0.79610133, -0.109803066, 0.038376726, 0.0013811704, 0.1352911
80, 911426882, 0.590396, 0.074815236, -0.7960954, -0.10985226, 0.057063304, 0.010810455, 0.13282108
81, 911443549, 0.5904029, 0.074818775, -0.79608065, -0.10991935, 0.03403412, 0.028279632, 0.12458706
82, 911460216, 0.59040457, 0.07480193, -0.7960715, -0.10998792, 0.023442933, 0.025320722, 0.113126755
83, 911476883, 0.5904054, 0.07476114, -0.7960615, -0.110083394, 0.028601164, 0.006543118, 0.12142086
84, 911493550, 0.5904004, 0.07468969, -0.7960547, -0.11020804, 0.034784876, 0.020067496, 0.1332779
85, 911510217, 0.5903955, 0.07467124, -0.7960472, -0.1103, 0.027260087, -0.010117258, 0.13302994
86, 911526884, 0.5903989, 0.07467231, -0.79603726, -0.11035376, 0.035459884, 2.2680977E-4, 0.11299038
87, 911543551, 0.59041804, 0.07468961, -0.7960149, -0.11040129, 0.028695934, 0.011072245, 0.14261532
88, 911560218, 0.59043235, 0.07468721, -0.7959994, -0.11043789, 0.03313624, 0.031479985, 0.13231087
89, 911576885, 0.5904448, 0.07466208, -0.79598314, -0.11050563, 0.05257248, 0.021590821, 0.13320541
90, 911593552, 0.5904728, 0.07465497, -0.7959552, -0.11056171, 0.050852325, 0.016572395, 0.12294102
91, 911610219, 0.5904978, 0.074619986, -0.7959296, -0.1106362, 0.047836244, 0.022580145, 0.13110733
92, 911626886, 0.59051526, 0.07457868, -0.79591125, -0.11070294, 0.017679876, 0.0055259666, 0.12075901
93, 911643553, 0.59053874, 0.07456909, -0.79588884, -0.110745035, 6.146606E-4, 0.02615462, 0.12216377
94, 911660220, 0.5905554, 0.074511185, -0.7958704, -0.11082732, 0.02497936, 0.045286965, 0.123467445
95, 911676887, 0.5905642, 0.07445911, -0.7958566, -0.11091459, -1.01921905E-4, 0.013739648, 0.1301794
96, 911693554, 0.5905637, 0.0744198, -0.79585415, -0.11096063, 0.011399608, 0.02782267, 0.09978485
97, 911710221, 0.5905661, 0.07436525, -0.7958508, -0.11100966, -0.035719607, 0.012801174, 0.12086582
98, 911726888, 0.5905605, 0.07434272, -0.79585606, -0.11101621, -0.044281464, 0.024952807, 0.11373997
99, 911743555, 0.5905299, 0.07433941, -0.7958827, -0.110989496, -0.06822688, 0.025506154, 0.10608482
100, 911760222, 0.59048295, 0.074342735, -0.7959216, -0.110958174, -0.05313484, 0.03934219, 0.13033295
101, 911776889, 0.5904203, 0.07429761, -0.79597145, -0.11096443, 0.0029606526, 0.04454412, 0.1267519
102, 911793556, 0.5903637, 0.07427247, -0.79601574, -0.11096453, 0.049044553, -0.0250717, 0.14120102
103, 911810223, 0.59033155, 0.07433013, -0.79604757, -0.11086978, 0.07606503, -0.011293355, 0.12846088
104, 911826890, 0.5902954, 0.07437468, -0.79608196, -0.11078447, 0.06434491, 0.034408394, 0.13142014
105, 911843557, 0.59026253, 0.074424565, -0.79611784, -0.11066884, -0.004782283, 0.025189854, 0.09955311
106, 911860224, 0.590216, 0.07447618, -0.79616547, -0.110540256, -0.062217515, 0.043423817, 0.12334919
107, 911876891, 0.59016407, 0.074521914, -0.79621714, -0.11041333, -0.06511335, 0.055061635, 0.12434292
108, 911893558, 0.59009993, 0.0745343, -0.7962767, -0.11031786, 0.020794751, 0.008732819, 0.15137768
109, 911910225, 0.5900393, 0.074546814, -0.79633325, -0.11022632, 0.08018259, -0.0023536193, 0.13917065
110, 911926892, 0.58997744, 0.07453865, -0.7963909, -0.11014617, 0.0886135, 0.0066578924, 0.12034416
111, 911943559, 0.58992076, 0.07454394, -0.7964436, -0.110064745, 0.030644521, 0.03292237, 0.13030815
112, 911960226, 0.58985853, 0.07453882, -0.79650515, -0.10995705, -0.056483064, 0.040342916, 0.10303688
113, 911976893, 0.5897934, 0.07457874, -0.796569, -0.10981779, -0.057628345, -0.0115857385, 0.122104645
114, 911993560, 0.5897366, 0.07468334, -0.7966282, -0.109621376, 0.022125995, 0.0045013553, 0.110284805
115, 912010227, 0.5896847, 0.074812114, -0.79668367, -0.10940926, 0.06991262, 0.004289102, 0.1529522
116, 912026894, 0.58965635, 0.074990824, -0.79672444, -0.10914256, 0.07446602, 0.01153491, 0.15065193
117, 912043561, 0.5896437, 0.07520528, -0.79675645, -0.10882925, 0.075519666, -0.0033587571, 0.12742615
118, 912060228, 0.5896346, 0.07534919, -0.7967847, -0.10857232, 0.06922644, 0.036143024, 0.15107822
119, 912076895, 0.58960575, 0.075427875, -0.79682624, -0.10836809, 0.003089843, 0.021800056, 0.10225773
120, 912093562, 0.58955175, 0.07546002, -0.7968836, -0.108218044, -0.025888612, 0.021205485, 0.13211727
121, 912110229, 0.5894773, 0.075441234, -0.7969553, -0.10810962, -0.026291382, 0.0303323, 0.11753082
122, 912126896, 0.5893905, 0.07534512, -0.79703164, -0.10808576, 0.042551503, -0.0031860375, 0.13440228
123, 912143563, 0.58928156, 0.07509339, -0.79711753, -0.108222805, 0.12136977, -0.005588578, 0.14077759
124, 912160230, 0.5891759, 0.074764155, -0.7971942, -0.10846161, 0.16613673, -0.03999147, 0.14798164
125, 912176897, 0.5890752, 0.074365474, -0.7972633, -0.10877264, 0.14812964, 0.0030147429, 0.14463425
126, 912193564, 0.5889711, 0.07393226, -0.7973279, -0.10915758, 0.07899976, 0.018591221, 0.13658237
127, 912210231, 0.58885926, 0.07346983, -0.7973979, -0.109561175, 0.017859133, -0.016010623, 0.12830353
128, 912226898, 0.5887593, 0.07307502, -0.79745865, -0.10992064, -0.039001223, -0.044675127, 0.103055954
129, 912243565, 0.58866346, 0.07273249, -0.79752046, -0.110211454, -0.044031158, -0.053569097, 0.11448574
130, 912260232, 0.5885728, 0.07247036, -0.7975775, -0.11045483, 5.949915E-4, -0.02056146, 0.1393261
131, 912276899, 0.5884681, 0.07219624, -0.7976456, -0.11070017, 0.001035759, -0.0074648857, 0.11925602
132, 912293566, 0.5883586, 0.07198036, -0.7977137, -0.11093221, -0.023362916, 0.012875548, 0.093663216
133, 912310233, 0.5882341, 0.071782894, -0.7977911, -0.111162946, -0.039077323, -0.041065507, 0.12432575
134, 912326900, 0.58809626, 0.07151931, -0.7978792, -0.11142923, -0.008629835, -0.02157076, 0.13077068
135, 912343567, 0.5879932, 0.07147604, -0.7979434, -0.11154155, 0.009117988, -0.013711989, 0.12359238
136, 912360234, 0.5878705, 0.071380235, -0.79802155, -0.11169012, 0.019358905, -0.017455272, 0.13526535
137, 912376901, 0.58777004, 0.07135304, -0.79808503, -0.11178335, 0.025512217, -0.054736815, 0.12309265
138, 912393568, 0.5876876, 0.07137357, -0.79813796, -0.111825556, 0.034942675, -0.04551794, 0.11812782
139, 912410235, 0.5875964, 0.07131845, -0.7981998, -0.111898564, -0.011390667, -7.4985804E-4, 0.124949455
140, 912426902, 0.58753043, 0.07140706, -0.79824525, -0.111864135, 0.002190427, 0.04438263, 0.10858154
141, 912443569, 0.5874599, 0.07151568, -0.7982952, -0.11180893, -0.00257174, 0.03498668, 0.13384628
142, 912460236, 0.5873973, 0.07176008, -0.7983402, -0.11166056, 0.008359385, 0.04859574, 0.13620567
143, 912476903, 0.587325, 0.07190426, -0.7983902, -0.11159078, 0.029735269, -0.0034476314, 0.113762856
144, 912493570, 0.5872412, 0.071903236, -0.7984481, -0.111617364, 0.06159704, 0.029031958, 0.109311104
145, 912510237, 0.5871477, 0.071871266, -0.79851353, -0.11166267, 0.06056754, 0.027817696, 0.14144135
146, 912526904, 0.58708215, 0.07192434, -0.7985598, -0.111641206, 0.050532255, -0.022715315, 0.14556026
147, 912543571, 0.5870439, 0.071946405, -0.79858947, -0.11161649, 0.08952543, 0.023199946, 0.12619781
148, 912560238, 0.5870214, 0.072011925, -0.79860675, -0.11156812, 0.12892942, 0.016949294, 0.1410265
149, 912576905, 0.5870301, 0.07214906, -0.79860276, -0.111462206, 0.099479355, 0.022331012, 0.14078045
150, 912593572, 0.5870347, 0.07226236, -0.79860187, -0.11137128, 0.032878045, 0.005088298, 0.12840843
151, 912610239, 0.5870381, 0.07231481, -0.7986003, -0.11133025, -0.0010402293, 0.020725518, 0.1149025
152, 912626906, 0.587043, 0.07244156, -0.7985988, -0.11123289, 0.0343374, 0.022802597, 0.12314987
153, 912643573, 0.5870836, 0.07269173, -0.798573, -0.11104028, 0.053937253, 0.008394225, 0.14178944
154, 912660240, 0.58710927, 0.07280843, -0.79855305, -0.11097155, 0.097786024, 0.008118549, 0.14376163
155, 912676907, 0.5871058, 0.07264489, -0.79855233, -0.11110242, 0.105921, 0.0027688507, 0.13699627
156, 912693574, 0.5871826, 0.072952405, -0.7984994, -0.1108757, 0.04881791, -0.022029381, 0.13749695
157, 912710241, 0.5872136, 0.07290257, -0.79847974, -0.11088592, -0.0068587186, 0.020103315, 0.12662506
158, 912726908, 0.58723104, 0.072814375, -0.7984711, -0.110913865, -0.018091585, 0.026357373, 0.12495518
159, 912743575, 0.5872367, 0.07277213, -0.79847044, -0.11091641, -0.021132702, 0.025818316, 0.122364044
160, 912760242, 0.58722657, 0.07261103, -0.7984786, -0.11101779, 0.028340995, -0.015986877, 0.11415005
161, 912776909, 0.58715236, 0.07197925, -0.79852504, -0.11148575, 0.07875658, -0.02147669, 0.13703251
162, 912793576, 0.5871884, 0.07206708, -0.7984965, -0.111443594, 0.104883455, -0.008719799, 0.13776684
163, 912810243, 0.5871838, 0.07188123, -0.79849374, -0.11160748, 0.043863077, -0.010496001, 0.14086342
164, 912826910, 0.5872292, 0.07199946, -0.79846054, -0.11152985, -0.019118851, 0.0052561588, 0.13746548
165, 912843577, 0.58723706, 0.07201578, -0.7984531, -0.11153125, -0.03549073, 0.02635296, 0.1222105
166, 912860244, 0.58724254, 0.07193184, -0.7984461, -0.11160566, -0.018913666, -0.012700174, 0.12346363
167, 912876911, 0.58726096, 0.07192262, -0.7984319, -0.11161663, 0.04579557, -0.015133727, 0.12619877
168, 912893578, 0.58728117, 0.071953, -0.79841673, -0.11159924, 0.039649107, 0.013917757, 0.12378883
169, 912910245, 0.5872995, 0.071939155, -0.7984039, -0.11160314, 0.013371439, 0.016076896, 0.11499691
170, 912926912, 0.5873074, 0.071902335, -0.7983997, -0.11161542, -0.02467136, 0.028611502, 0.11295986
171, 912943579, 0.5873179, 0.07204356, -0.7983961, -0.11149458, -0.09031086, 0.011551401, 0.098591805
172, 912960246, 0.58733845, 0.072437525, -0.79839057, -0.11117114, -0.10224064, 0.022184052, 0.1092062
173, 912976913, 0.5873215, 0.072718635, -0.79841477, -0.110902674, -0.049483534, 0.031656697, 0.10581207
174, 912993580, 0.58726746, 0.072803274, -0.7984626, -0.11078823, 0.018202895, -0.00978699, 0.12580776
175, 913010247, 0.587222, 0.07286062, -0.7985071, -0.110671066, 0.0483311, -0.01716775, 0.14575386
176, 913026914, 0.5871774, 0.072948046, -0.7985495, -0.11054389, 0.10313916, 0.014585477, 0.14692974
177, 913043581, 0.5871343, 0.07293866, -0.7985872, -0.11050745, 0.07384287, 0.016141212, 0.10681915
178, 913060248, 0.58712363, 0.07305284, -0.798603, -0.11037401, 0.04807227, -0.00809522, 0.12617397
179, 913076915, 0.5871172, 0.073142804, -0.79861796, -0.110240065, 0.018600302, -0.0060171643, 0.13634872
180, 913093582, 0.58712125, 0.07321176, -0.7986242, -0.11012764, 0.052249283, 0.044391237, 0.13049603
181, 913110249, 0.58710974, 0.073215336, -0.7986404, -0.11007007, 0.07421256, 0.008987232, 0.14404774
182, 913126916, 0.58712685, 0.07331323, -0.798634, -0.10995919, 0.10311726, -0.024481067, 0.13106918
183, 913143583, 0.5871503, 0.07327134, -0.79862005, -0.10996416, 0.10777482, -0.040237837, 0.13490963
184, 913160250, 0.5871992, 0.073299654, -0.7985881, -0.10991593, 0.10609177, 0.012815339, 0.14288616
185, 913176917, 0.58725524, 0.073302194, -0.798547, -0.109913334, 0.056795366, -0.012001856, 0.16287804
186, 913193584, 0.58731526, 0.073294654, -0.7985043, -0.10990803, 0.021108564, -0.0021097946, 0.10858917
187, 913210251, 0.58735824, 0.073232874, -0.7984747, -0.10993408, -0.01188016, 0.0060165776, 0.13189602
188, 913226918, 0.5873546, 0.0727929, -0.79847705, -0.11022821, 0.0034716032, -0.0067849034, 0.13083553
189, 913243585, 0.5874206, 0.0728618, -0.7984313, -0.11016345, 0.027963258, -0.01379508, 0.11017609
190, 913260252, 0.5874806, 0.07288431, -0.79839146, -0.110115334, 0.054064654, -0.008799397, 0.12545776
191, 913276919, 0.58755225, 0.07295385, -0.79834175, -0.11004834, 0.042564914, 0.0020700654, 0.12085152
192, 913293586, 0.587599, 0.07285537, -0.7983068, -0.110118665, 0.009400507, 0.022019044, 0.11864948
193, 913310253, 0.58764267, 0.07280819, -0.79827654, -0.110135436, 0.007919064, 0.0091696745, 0.14058399
194, 913326920, 0.5876985, 0.07278437, -0.7982368, -0.11014194, 0.018064316, 0.017196976, 0.13805962
195, 913343587, 0.58775467, 0.07273989, -0.7981932, -0.11018714, 0.06297924, -0.020878932, 0.15911102
196, 913360254, 0.587835, 0.07276306, -0.79813135, -0.110190876, 0.08774359, -0.02686486, 0.14015675
197, 913376921, 0.58788884, 0.07257913, -0.7980839, -0.11036822, 0.10447666, -0.023825783, 0.14522266
198, 913393588, 0.5879751, 0.072547585, -0.7980153, -0.11042544, 0.046737902, -0.024439773, 0.113087654
199, 913410255, 0.58804435, 0.07234336, -0.797958, -0.110605, -0.023175165, 0.0105795665, 0.12618732
200, 913426922, 0.58810776, 0.07222669, -0.7979022, -0.11074642, -0.03690914, 0.0038246978, 0.10966301
201, 913443589, 0.5881697, 0.0720918, -0.79784644, -0.11090781, -0.0069601936, -0.033841398, 0.13376904
202, 913460256, 0.58825415, 0.07213475, -0.79777116, -0.11097354, 0.046321273, -0.010157853, 0.159935
203, 913476923, 0.588266, 0.071636856, -0.79774, -0.111455865, 0.112421684, -0.038695205, 0.13254261
204, 913493590, 0.58837575, 0.071735404, -0.7976414, -0.11151913, 0.13181855, -0.07285041, 0.12985992
205, 913510257, 0.58847195, 0.07160383, -0.797549, -0.1117561, 0.10521157, -0.005149878, 0.13336563
206, 913526924, 0.58858, 0.07152082, -0.797448, -0.11196084, 0.010480075, -0.0084911175, 0.13031673
207, 913543591, 0.588713, 0.071723625, -0.7973331, -0.11194982, -0.0669019, -0.028188169, 0.117385864
208, 913560258, 0.5888132, 0.071740195, -0.79724205, -0.11206076, -0.062188458, 0.016791774, 0.13320732
209, 913576925, 0.5888836, 0.07164703, -0.7971712, -0.11225479, 0.002433162, 0.0011447216, 0.13199615
210, 913593592, 0.58891875, 0.071304895, -0.797121, -0.11264414, 0.025138503, -0.018992621, 0.116116524
211, 913610259, 0.5890165, 0.07139672, -0.79702556, -0.112750165, 0.02096775, -0.03806649, 0.16274929
212, 913626926, 0.5890943, 0.07136683, -0.79694504, -0.11293074, 0.026709352, 0.01899522, 0.10958958
213, 913643593, 0.5891667, 0.071393825, -0.79686993, -0.11306666, -0.010607031, 0.042532645, 0.11705971
214, 913660260, 0.58921134, 0.071186475, -0.7968119, -0.11337387, -0.04031235, 0.001792993, 0.12093544
215, 913676927, 0.5892959, 0.071247324, -0.7967278, -0.11348567, -7.818483E-4, -0.028622761, 0.12752438
216, 913693594, 0.58934975, 0.07109644, -0.7966651, -0.11374122, 0.05959213, -0.0042856373, 0.1331482
217, 913710261, 0.5894108, 0.07101233, -0.796594, -0.11397488, 0.054806717, -0.03395905, 0.17529011
218, 913726928, 0.5894999, 0.07103316, -0.7965029, -0.11413761, 0.056588117, -0.024467712, 0.14112282
219, 913743595, 0.58959013, 0.071023375, -0.7964102, -0.11432464, 0.04812502, 0.0065232255, 0.11929035
220, 913760262, 0.5896643, 0.07095963, -0.79632294, -0.11458951, -0.0070111277, 0.011654636, 0.11999512
221, 913776929, 0.58975583, 0.07093856, -0.79622656, -0.114800885, -0.0065010977, -0.005667059, 0.12500477
222, 913793596, 0.5898379, 0.07095574, -0.79613936, -0.11497331, -0.032799184, 0.012235658, 0.11159611
223, 913810263, 0.5899113, 0.071051344, -0.7960637, -0.11506089, -0.059397228, 0.016351342, 0.12639618
224, 913826930, 0.5899762, 0.071136385, -0.7959962, -0.1151423, -0.06809591, 0.061125178, 0.09605694
225, 913843597, 0.5900076, 0.0712331, -0.79595584, -0.11520135, -0.06331317, -0.02168886, 0.105903625
226, 913860264, 0.59003985, 0.07137618, -0.79591995, -0.115195446, -0.03129986, -0.0016916299, 0.10921383
227, 913876931, 0.5900504, 0.071466446, -0.79589754, -0.11523984, 7.1479444E-4, 0.02767082, 0.13433456
228, 913893598, 0.5900656, 0.07152419, -0.79587287, -0.11529697, 0.019755863, 0.028800398, 0.14224148
229, 913910265, 0.5900695, 0.07154313, -0.79585683, -0.11537593, 0.02209649, 0.07154806, 0.10503483
230, 913926932, 0.5900748, 0.07155597, -0.7958404, -0.11545428, -0.0033853273, 0.0127912, 0.13100815
231, 913943599, 0.59008384, 0.07153489, -0.7958219, -0.11554786, -0.014366519, -0.0044943984, 0.13142395
232, 913960266, 0.5901034, 0.071550146, -0.79579824, -0.115602165, 0.035754025, -0.0079900855, 0.13603592
233, 913976933, 0.59013903, 0.07157392, -0.795763, -0.11564714, 0.07573915, -0.0052496768, 0.14291763
234, 913993600, 0.5901697, 0.071597904, -0.7957327, -0.115685955, 0.072358295, 0.024794012, 0.0879488
235, 914010267, 0.59020257, 0.07164474, -0.79570377, -0.1156868, -0.0384487, 0.021822939, 0.124928474
236, 914026934, 0.5902277, 0.07173006, -0.7956866, -0.115624696, -0.12556332, 0.023147644, 0.10143471
237, 914043601, 0.59025437, 0.07180725, -0.79566526, -0.11558758, -0.11026868, 0.009666453, 0.1610651
238, 914060268, 0.59028333, 0.07189953, -0.7956439, -0.11552864, -0.030490743, 0.04784351, 0.09545994
239, 914076935, 0.59026545, 0.07188821, -0.7956486, -0.11559511, -0.01382383, 0.054975525, 0.111255646
240, 914093602, 0.5902156, 0.071777456, -0.7956714, -0.11576047, -0.093765475, 0.13962944, 0.14251137
241, 914110269, 0.59010744, 0.07145782, -0.7957235, -0.11615146, -0.10049992, 0.05128812, 0.16007519
242, 914126936, 0.59002095, 0.07125272, -0.79576385, -0.11644041, 0.08825946, -0.20445023, 0.16864681
243, 914143603, 0.58995545, 0.0709512, -0.79577744, -0.116862625, 0.25469345, -0.14308666, 0.048042297
244, 914160270, 0.58992726, 0.07068574, -0.79576063, -0.11727914, 0.05200744, -0.21691681, 0.05488968
245, 914176937, 0.5899455, 0.07065976, -0.7957155, -0.1175091, -0.1031633, -0.18785582, 0.029881477
246, 914193604, 0.59004664, 0.071030095, -0.7955996, -0.11756288, -0.025019147, -0.15710801, 0.23147774
247, 914210271, 0.59021074, 0.07169753, -0.7954443, -0.11738487, 0.1367041, -0.05943123, 0.11012936
248, 914226938, 0.5904816, 0.07258582, -0.7952042, -0.11710384, 0.11011008, -0.14417122, -0.034487724
249, 914243605, 0.59085757, 0.07339371, -0.7948813, -0.11689665, 0.3545787, -0.05316454, 0.168787
250, 914260272, 0.59130895, 0.07383013, -0.7944958, -0.116960645, 0.85672426, -0.10778733, 0.3120346
251, 914276939, 0.5918563, 0.07386419, -0.79402506, -0.11736504, 1.0371171, -0.05510262, 0.29177952
252, 914293606, 0.59257126, 0.07371829, -0.7934079, -0.11802129, 0.99611723, -0.24054523, 0.35557365
253, 914310273, 0.5935525, 0.073784105, -0.7926082, -0.11842319, 0.8786245, -0.17221305, 0.31059456
254, 914326940, 0.59464186, 0.07381165, -0.7917265, -0.118836895, 0.7161793, 0.05231396, 0.26103973
255, 914343607, 0.59579045, 0.0737581, -0.7907899, -0.11935241, 0.24898332, -0.12513497, 0.12737083
256, 914360274, 0.59707135, 0.07401211, -0.7897757, -0.11950958, -0.19839591, -0.23978989, 0.11075497
257, 914376941, 0.5983729, 0.07433201, -0.7887564, -0.11953335, -0.38441008, 0.1176126, 0.11738205
258, 914393608, 0.5995608, 0.074203834, -0.7878054, -0.119932, -0.39210162, 0.4785251, 0.044963837
259, 914410275, 0.60053533, 0.07353475, -0.7870269, -0.12057779, -0.55365455, 0.5996229, -0.04104042
260, 914426942, 0.6013915, 0.072546214, -0.7863258, -0.1214796, -0.23392017, 0.5384559, 0.14684486
261, 914443609, 0.6021482, 0.07150353, -0.78570855, -0.12234101, -0.27624816, 0.38581008, -0.092084885
262, 914460276, 0.6027194, 0.07053634, -0.7852565, -0.12298864, -0.77892077, 0.37005246, -0.0870018
263, 914476943, 0.60315216, 0.06973879, -0.78495675, -0.12323644, -1.298123, 0.25299352, -0.07564926
264, 914493610, 0.60341793, 0.069036156, -0.78478914, -0.12339842, -1.4038755, -0.044380564, 0.15637207
265, 914510277, 0.6036709, 0.06895497, -0.7846548, -0.1230602, -0.67021793, -0.19813554, 0.048430443
266, 914526944, 0.60376865, 0.06908755, -0.78466856, -0.12241738, -0.15083951, 0.49233276, -0.29624176
267, 914543611, 0.60357785, 0.0692099, -0.78491837, -0.12168503, -0.23833142, 0.84478116, 0.006552696
268, 914560278, 0.602925, 0.06941095, -0.78567904, -0.119885735, -0.76937985, 1.3428698, -0.2604046
269, 914576945, 0.60176384, 0.06892319, -0.78687966, -0.11811193, -0.7044306, 1.2888414, -0.020401001
270, 914593612, 0.60047895, 0.067870654, -0.78820264, -0.116427705, -0.85411364, 0.53361684, -0.011896133
271, 914610279, 0.5990582, 0.06672515, -0.7896547, -0.114554524, -0.6962719, 0.022811286, -0.1241045
272, 914626946, 0.59747386, 0.065516874, -0.79120916, -0.11278759, -0.4742505, 0.05092305, -0.31852436
273, 914643613, 0.59588647, 0.06447403, -0.7927335, -0.111069456, -0.6976161, -0.5642445, 0.107133865
274, 914660280, 0.594609, 0.064500205, -0.79409164, -0.10816021, -0.4124346, -0.52057135, 0.25209427
275, 914676947, 0.5932664, 0.06456929, -0.7955309, -0.1048629, -0.49075308, 0.3637521, -0.042723656
276, 914693614, 0.5913314, 0.06373596, -0.7973933, -0.10212266, -0.504787, 1.0376828, -0.17586994
277, 914710281, 0.58925265, 0.061970335, -0.799319, -0.100151934, -0.41601214, 1.3054729, -0.45523453
278, 914726948, 0.5873596, 0.059600197, -0.80105793, -0.098806426, -0.31308666, 0.56037486, -0.00825882
279, 914743615, 0.58532655, 0.057420537, -0.8029157, -0.0970675, -0.10006362, -0.04247632, 0.10057545
280, 914760282, 0.58282924, 0.055175357, -0.8052112, -0.09434381, -0.063897885, 0.2508111, -0.15452099
281, 914776949, 0.5798881, 0.051973432, -0.8077954, -0.09217164, -0.21415626, 0.5674473, -0.3210535
282, 914793616, 0.5771831, 0.048034623, -0.8100992, -0.09105857, -0.42098665, -0.13410304, -0.050994873
283, 914810283, 0.5751743, 0.044772185, -0.8118121, -0.0901733, -0.0036633774, -1.1102369, 0.25874043
284, 914826950, 0.57357275, 0.042540148, -0.8132542, -0.088443756, 0.63992697, -1.0407916, 0.5321989
285, 914843617, 0.57157093, 0.040782895, -0.81500524, -0.08608117, 0.71340775, -0.15552367, -0.04116726
286, 914860284, 0.5693996, 0.03865338, -0.8168508, -0.083935075, 0.40351912, 0.3518917, -0.022766113
287, 914876951, 0.56767595, 0.036183126, -0.81833386, -0.08224919, 0.38685623, 0.2102845, 0.22233295
288, 914893618, 0.56648064, 0.03346128, -0.8193924, -0.08109422, 0.9934959, -0.5683786, 0.53939533
289, 914910285, 0.5656179, 0.03125294, -0.820195, -0.07987498, 1.3959078, -1.1457105, 0.7629633
290, 914926952, 0.5649409, 0.029991172, -0.82085836, -0.078320846, 1.1925516, -1.2806684, 0.6307411
291, 914943619, 0.56455845, 0.029516164, -0.8213615, -0.07594812, 0.9090062, -0.37863514, 0.19588757
292, 914960286, 0.56429106, 0.028506787, -0.8217486, -0.07411116, 0.4538073, 1.0388203, 0.102739334
293, 914976953, 0.56409776, 0.026640024, -0.8219756, -0.073760435, 0.3470137, 0.89382094, 0.27359962
294, 914993620, 0.563987, 0.024636842, -0.82209027, -0.07402537, 0.1557617, -0.6787426, 0.39271927
295, 915010287, 0.5641653, 0.023925416, -0.82202137, -0.07366416, 0.20468378, -1.1257224, 0.36372757
296, 915026954, 0.56438947, 0.02358843, -0.8219298, -0.073074475, 0.16629364, -1.2924615, 0.39214134
297, 915043621, 0.5645576, 0.023692043, -0.8218821, -0.072275326, -0.10346951, -1.0875496, 0.15438366
298, 915060288, 0.56487244, 0.024036113, -0.8217361, -0.07135483, -0.312822, -0.37508062, 0.36242104
299, 915076955, 0.5652613, 0.024292523, -0.82151955, -0.070677206, -0.13165987, 0.61554414, 0.20741081
300, 915093622, 0.5656273, 0.023838988, -0.82128733, -0.07060472, 0.30117342, 0.64049, 0.025579453
301, 915110289, 0.5660409, 0.022957051, -0.8210211, -0.07067798, 0.6497137, -0.25655365, 0.235116
302, 915126956, 0.5663776, 0.022450432, -0.8208503, -0.07012583, 0.30265397, -0.34284708, 0.19718552
303, 915143623, 0.5667568, 0.022421291, -0.82065624, -0.06933817, -0.42230672, 0.45730823, 0.038499832
304, 915160290, 0.56738067, 0.022209764, -0.8202993, -0.06852289, -0.2730251, 0.54430777, 0.110630035
305, 915176957, 0.56796706, 0.021287471, -0.81997824, -0.067794256, 0.19760959, 0.3800757, 0.05541706
306, 915193624, 0.568453, 0.019844158, -0.81967646, -0.067808196, 0.39856875, -0.121443264, 0.21434784
307, 915210291, 0.5690741, 0.018850442, -0.8192729, -0.0677588, 0.11271004, -0.42865655, 0.33824444
308, 915226958, 0.5696353, 0.018552667, -0.81895596, -0.0669537, -0.1017945, -0.2281511, 0.05801773
309, 915243625, 0.5698705, 0.018194413, -0.81887496, -0.06603684, -0.36337486, 0.11099808, -0.2768793
310, 915260292, 0.5702009, 0.017731043, -0.81868535, -0.0656607, -0.5116529, -0.42137015, 0.37014866
311, 915276959, 0.5706444, 0.017703172, -0.8184485, -0.06476086, -0.104008175, -0.86265475, 0.2849579
312, 915293626, 0.5708613, 0.017799905, -0.81837076, -0.06379809, 0.06336905, -0.7617631, 0.10927868
313, 915310293, 0.5708797, 0.018209852, -0.8183924, -0.063236274, -0.1586173, -0.7180055, 0.3060999
314, 915326960, 0.570708, 0.019148355, -0.8185375, -0.06263164, -0.44516405, -0.48350266, 0.12722683
315, 915343627, 0.57056797, 0.020407952, -0.8186428, -0.06212996, -0.6961199, -0.13226227, 0.41994858
316, 915360294, 0.57071465, 0.021927796, -0.81853634, -0.061667673, -0.48595425, 0.058599748, 0.46973515
317, 915376961, 0.57065207, 0.02362946, -0.8186007, -0.060752343, 0.5584502, -0.074466534, -0.18994045
318, 915393628, 0.5699164, 0.024185313, -0.8191314, -0.060286317, 1.1125447, 0.5551297, -0.5448742
319, 915410295, 0.56924295, 0.02415499, -0.819565, -0.060766198, 0.77554435, 0.4071307, 0.56496143
320, 915426962, 0.5688111, 0.02419863, -0.8198699, -0.060678806, 0.9446346, 0.8629011, 0.2664852
321, 915443629, 0.568299, 0.023202632, -0.82020533, -0.06132743, 0.9105149, 1.4755671, -0.04224682
322, 915460296, 0.5677568, 0.021352531, -0.82050717, -0.0629659, 0.32869413, 1.1931963, 0.29102612
323, 915476963, 0.56745505, 0.019429663, -0.8206422, -0.06453069, 0.19070974, 0.49214646, 0.2461958
324, 915493630, 0.5673514, 0.01765769, -0.8206913, -0.065319814, 0.30766615, 0.22721565, 0.012392998
325, 915510297, 0.5671752, 0.01550228, -0.82079554, -0.06608356, 0.26087314, 0.21666245, -0.17139816
326, 915526964, 0.56698513, 0.013062993, -0.82089376, -0.067014284, -0.03721446, -0.048571307, -0.009773254
327, 915543631, 0.56673515, 0.010678762, -0.8210335, -0.06783445, -0.46175677, -0.27580702, 0.1474266
328, 915560298, 0.566439, 0.008654771, -0.821205, -0.06851704, -0.5700819, -0.49808225, 0.21204185
329, 915576965, 0.56618524, 0.0070667774, -0.8213505, -0.06904907, -0.44840544, -0.6782956, 0.16130829
330, 915593632, 0.5658982, 0.005737063, -0.82151884, -0.06952273, -0.25375068, -0.70443076, 0.13990974
331, 915610299, 0.56557924, 0.004644252, -0.8217016, -0.07003863, -0.14662987, -0.7721262, 0.24371624
332, 915626966, 0.56520504, 0.0037973851, -0.8219042, -0.070730664, -0.25067022, -0.8091128, 0.27115536
333, 915643633, 0.5649406, 0.0036072608, -0.8220415, -0.0712554, -0.1986829, -0.9036565, 0.18523312
334, 915660300, 0.56490713, 0.004161908, -0.8220578, -0.071301796, -0.10491922, -0.7590279, 0.20202732
335, 915676967, 0.5649563, 0.005067776, -0.822023, -0.07125301, 0.07804804, -0.44975957, 0.22659874
336, 915693634, 0.56499785, 0.0059286435, -0.8219678, -0.071494624, 0.21686299, -0.36339134, 0.2684145
337, 915710301, 0.5649833, 0.0066148136, -0.8219256, -0.07203264, 0.09680212, -0.36313573, 0.27388763
338, 915726968, 0.5650491, 0.007546935, -0.8218288, -0.07252813, 0.12426605, -0.46314457, 0.26446724
339, 915743635, 0.56530577, 0.008936031, -0.82161164, -0.07283032, 0.04574014, -0.4063143, 0.18307877
340, 915760302, 0.56558365, 0.010562357, -0.8213755, -0.07311627, -0.05380404, -0.34777433, 0.08447456
341, 915776969, 0.56581473, 0.01233157, -0.82116634, -0.07340177, -0.16255239, -0.20957641, 0.14481068
342, 915793636, 0.56603664, 0.0141354175, -0.8209658, -0.07360845, -0.08426081, -0.016562723, 0.12800407
343, 915810303, 0.56620145, 0.015592732, -0.8207971, -0.073927574, 0.053163003, 0.2311395, 0.054301262
344, 915826970, 0.56625, 0.016516898, -0.820688, -0.0745617, 0.121497616, 0.36559495, 0.06439781
345, 915843637, 0.566204, 0.01702081, -0.8206302, -0.07542913, 0.03181841, 0.43118927, 0.028924942
346, 915860304, 0.5660699, 0.01740795, -0.82063967, -0.07624142, -0.15672952, 0.35398236, 0.031495094
347, 915876971, 0.56604296, 0.018136293, -0.82061785, -0.076506905, -0.04712994, 0.2894805, 0.041646957
348, 915893638, 0.5661219, 0.01891231, -0.8205524, -0.0764345, 0.19638385, 0.59348845, 0.015094757
349, 915910305, 0.56608385, 0.019199222, -0.8205472, -0.07669974, 0.32564586, 0.6699697, -0.01876831
350, 915926972, 0.56598806, 0.019151524, -0.82057494, -0.07712253, 0.28219807, 0.46335816, 0.041064262
351, 915943639, 0.5658957, 0.018898629, -0.82060957, -0.07749348, 0.08034263, 0.33186236, 0.05370617
352, 915960306, 0.565784, 0.018565062, -0.8206606, -0.07784877, -0.053992238, 0.17926876, 0.08960438
353, 915976973, 0.5657647, 0.018430077, -0.8206768, -0.07784849, -0.0539377, 0.08867122, 0.068798065
354, 915993640, 0.56578106, 0.01837044, -0.8206824, -0.077684425, -0.014944524, 0.15623905, 0.04095459
355, 916010307, 0.56580657, 0.018340303, -0.82068914, -0.07743512, 0.022171143, 0.11192191, 0.08555889
356, 916026974, 0.5658189, 0.018247195, -0.820712, -0.077122256, 0.025043733, 0.17329428, 0.09505558
357, 916043641, 0.56579447, 0.017972497, -0.8207517, -0.07694406, 0.0139235165, 0.119787246, 0.1355524
358, 916060308, 0.5657669, 0.017613998, -0.82079, -0.07682204, 0.04033649, -0.017972397, 0.13249779
359, 916076975, 0.5657576, 0.017216967, -0.8208151, -0.076711416, 0.08830811, -0.10256397, 0.13969612
360, 916093642, 0.5658041, 0.016847003, -0.8208028, -0.07658109, 0.119864635, -0.17322718, 0.19445705
361, 916110309, 0.5658851, 0.016493488, -0.82076544, -0.07646132, 0.10717983, -0.18805155, 0.19741726
362, 916126976, 0.5659586, 0.01617584, -0.8207265, -0.076404326, 0.06208698, -0.13080053, 0.11220169
363, 916143643, 0.56605583, 0.01587739, -0.82067335, -0.0763151, 0.023180977, -0.07657665, 0.10754871
364, 916160310, 0.56613344, 0.015516077, -0.8206298, -0.07628214, -0.037572082, 0.006106723, 0.13681602
365, 916176977, 0.56619793, 0.015093916, -0.8205901, -0.07631547, -0.060441032, 0.035794344, 0.11585903
366, 916193644, 0.5662266, 0.014616942, -0.8205747, -0.076360695, -0.06411514, 0.012183684, 0.106126785
367, 916210311, 0.56623864, 0.014190904, -0.820576, -0.07633673, -0.053415574, -0.042867284, 0.09717655
368, 916226978, 0.56624764, 0.0137915835, -0.8205748, -0.07635795, -0.056426294, -0.05380689, 0.121650696
369, 916243645, 0.5662346, 0.013405515, -0.8205856, -0.07640753, -0.04280586, -0.15047982, 0.14595222
370, 916260312, 0.56623256, 0.013114729, -0.8205969, -0.076352075, 0.033689212, -0.18535446, 0.13847542
371, 916276979, 0.5662579, 0.012821244, -0.8205845, -0.07634782, 0.09847757, -0.10858813, 0.16135406
372, 916293646, 0.5662967, 0.012492256, -0.8205522, -0.0764616, 0.13173318, -0.12892027, 0.17602634
373, 916310313, 0.5663607, 0.012256828, -0.8205034, -0.07654932, 0.14103176, -0.14002478, 0.14432621
374, 916326980, 0.5664854, 0.012133375, -0.82041365, -0.07660823, 0.13123563, -0.1150598, 0.13096619
375, 916343647, 0.56666833, 0.012168283, -0.8202874, -0.0766021, 0.11449451, -0.07966878, 0.1190052
376, 916360314, 0.5669362, 0.012341127, -0.8201154, -0.07643377, 0.12933369, -0.056836884, 0.10230255
377, 916376981, 0.5671915, 0.01248893, -0.81995046, -0.07628352, 0.11003364, 0.027367128, 0.12912083
378, 916393648, 0.5674345, 0.012550436, -0.81978405, -0.076255135, 0.09783788, 0.058924224, 0.16674137
379, 916410315, 0.5676368, 0.012519011, -0.8196323, -0.07638574, 0.062169235, 0.02444388, 0.10326481
380, 916426982, 0.5678395, 0.012533948, -0.81948435, -0.07646476, -0.0024076817, -0.015475238, 0.08887768
381, 916443649, 0.5680089, 0.012501741, -0.819366, -0.076480426, -0.040858615, 0.03535067, 0.103372574
382, 916460316, 0.56814265, 0.0123529285, -0.819267, -0.07657238, -0.090075724, 0.07613393, 0.1345892
383, 916476983, 0.5682522, 0.012092897, -0.81917775, -0.07675337, -0.0781826, 0.019481823, 0.08678055
384, 916493650, 0.5683502, 0.011748422, -0.81909716, -0.07694298, -0.07330868, -0.02778103, 0.08837032
385, 916510317, 0.5684366, 0.011398835, -0.8190302, -0.07706807, -0.057787485, -0.052665226, 0.095113754
386, 916526984, 0.5684909, 0.01109, -0.8189873, -0.077167355, -0.07199844, -0.09841147, 0.10804272
387, 916543651, 0.56850713, 0.010857963, -0.818968, -0.077287674, -0.11237695, -0.12863642, 0.13576221
388, 916560318, 0.5685231, 0.010766802, -0.8189515, -0.07735886, -0.08185626, -0.20868929, 0.1294365
389, 916576985, 0.5685556, 0.010787654, -0.8189291, -0.07735338, -0.044919398, -0.20266429, 0.12845612
390, 916593652, 0.5685775, 0.010852667, -0.8189114, -0.0773701, 0.0013044216, -0.13763751, 0.11741066
391, 916610319, 0.5685915, 0.010850037, -0.8188925, -0.07746775, 0.029774608, -0.09559976, 0.16897774
392, 916626986, 0.5686104, 0.010785607, -0.8188727, -0.07754627, 0.052800465, -0.030059423, 0.16534615
393, 916643653, 0.56864893, 0.01073309, -0.8188405, -0.07761175, 0.07006657, 0.0028651853, 0.105140686
394, 916660320, 0.5686882, 0.010677998, -0.81880826, -0.07767081, 0.04985546, 0.093731664, 0.112374306
395, 916676987, 0.5687085, 0.010570713, -0.8187906, -0.0777239, 0.030335179, 0.12637822, 0.09864807
396, 916693654, 0.5687446, 0.010437025, -0.81876415, -0.07775644, 0.023627108, 0.11631623, 0.121180534
397, 916710321, 0.56878406, 0.010232305, -0.8187384, -0.07776683, 0.029464372, 0.059817594, 0.1284132
398, 916726988, 0.56882346, 0.009979155, -0.81871736, -0.07773383, 0.037731223, 0.030453917, 0.10381985
399, 916743655, 0.5688672, 0.009694184, -0.8186934, -0.077701315, 0.066564396, 0.018795546, 0.10107899
400, 916760322, 0.5689265, 0.009455319, -0.8186564, -0.077686444, 0.0331501, -0.0019145422, 0.12918949
401, 916776989, 0.5689906, 0.009196016, -0.8186169, -0.07766315, 0.03429404, -0.009984785, 0.12487221
402, 916793656, 0.5690639, 0.008948398, -0.81857693, -0.07757631, 0.035519786, 0.010259995, 0.09917545
403, 916810323, 0.5691453, 0.008618789, -0.8185288, -0.077524185, 0.04782328, 0.027641658, 0.1200552
404, 916826990, 0.5692023, 0.008236295, -0.81849086, -0.077547476, 0.012472917, -0.013914893, 0.14270401
405, 916843657, 0.56925535, 0.007905934, -0.8184537, -0.077583134, -0.027912298, -0.049718656, 0.1293869
406, 916860324, 0.5693127, 0.0076554692, -0.8184193, -0.07755316, -0.025409847, -0.1088411, 0.09975815
407, 916876991, 0.56938267, 0.0074641197, -0.81838226, -0.07744926, -0.054468766, -0.10111437, 0.11941528
408, 916893658, 0.569437, 0.007295742, -0.8183554, -0.07734932, -0.042104922, -0.061676376, 0.12545013
409, 916910325, 0.56948566, 0.0071346853, -0.8183306, -0.0772689, -0.022192601, -0.084520206, 0.13576508
410, 916926992, 0.5695268, 0.006981943, -0.8183125, -0.07717124, 0.014443854, -0.1089595, 0.11282444
411, 916943659, 0.5695548, 0.006822327, -0.8183, -0.077111095, 0.024154706, -0.09683965, 0.12755203
412, 916960326, 0.569586, 0.0066605126, -0.81828105, -0.07709591, 0.020086216, -0.0816018, 0.14399624
413, 916976993, 0.5696226, 0.0065089767, -0.81825715, -0.07709162, 0.025108999, -0.056282785, 0.14817524
414, 916993660, 0.5696738, 0.006323947, -0.8182225, -0.07709669, 0.034112547, -0.013739834, 0.12687969
415, 917010327, 0.5697112, 0.00607956, -0.81819105, -0.07717352, 0.04060068, -0.011873187, 0.13183212
416, 917026994, 0.56973976, 0.005808961, -0.81816256, -0.077285826, 0.039965905, -0.06047938, 0.12296295
417, 917043661, 0.5697794, 0.005587033, -0.8181268, -0.07738799, 0.023149237, -0.073964715, 0.117209435
418, 917060328, 0.5698415, 0.005421208, -0.81807977, -0.07743944, 0.02911435, -0.066617824, 0.15332413
419, 917076995, 0.56993735, 0.0052664755, -0.81801254, -0.07745463, 0.051655184, -0.03889467, 0.10738373
420, 917093662, 0.5700096, 0.0050937077, -0.81796104, -0.07747984, 0.04231413, -0.032325774, 0.11442852
421, 917110329, 0.5700699, 0.00492702, -0.81791574, -0.07752336, 0.006194438, -0.020560123, 0.1255722
422, 917126996, 0.570115, 0.0047445716, -0.8178775, -0.07760756, -0.016514478, -0.014254186, 0.15899277
423, 917143663, 0.5701658, 0.0045978986, -0.8178369, -0.07767026, -0.0054246592, -0.05582754, 0.104332924
424, 917160330, 0.570247, 0.0045192903, -0.8177847, -0.077629685, -0.0041613644, -0.047261193, 0.07604313
425, 917176997, 0.5703176, 0.0044272826, -0.81774086, -0.07757881, 0.0015829188, 0.01358089, 0.11522961
426, 917193664, 0.5703738, 0.004298328, -0.81770444, -0.077555664, -0.0030446935, 0.004194102, 0.13225555
427, 917210331, 0.570417, 0.004130259, -0.8176743, -0.07756552, 0.021246694, -0.015582038, 0.14390373
428, 917226998, 0.5704584, 0.0039314544, -0.81764007, -0.07763112, 0.029646747, -0.071194105, 0.14564228
429, 917243665, 0.5704923, 0.0037612047, -0.81761044, -0.07770262, 0.026287358, -0.068146795, 0.11853695
430, 917260332, 0.5705498, 0.0036316249, -0.8175676, -0.07773873, 0.010861835, -0.102603674, 0.12642097
431, 917276999, 0.57063264, 0.0035762046, -0.8175137, -0.077699, -0.0036615892, -0.060979012, 0.114852905
432, 917293666, 0.57069683, 0.0034880762, -0.8174689, -0.07770323, -0.02544382, -0.026633224, 0.14264774
433, 917310333, 0.5707425, 0.003408527, -0.8174365, -0.07771218, -0.008515396, -0.034778498, 0.12521648
434, 917327000, 0.5707897, 0.0033414792, -0.8174041, -0.07770962, 0.008470247, -0.03738219, 0.1175518
435, 917343667, 0.5708404, 0.0032970898, -0.8173717, -0.07767881, -0.002638794, -0.023918383, 0.11489296
436, 917360334, 0.57089704, 0.003241451, -0.81733537, -0.07764743, -0.008435826, -0.0015844423, 0.11877823
437, 917377001, 0.5709455, 0.0031281654, -0.81730306, -0.07763501, -0.026145652, 0.005647184, 0.12506199
438, 917393668, 0.5709717, 0.0029790523, -0.8172832, -0.077656075, 0.0076106163, -0.019181686, 0.11244869
439, 917410335, 0.57099557, 0.0028454042, -0.8172657, -0.07767238, 0.012117978, -0.055961322, 0.09922981
440, 917427002, 0.571036, 0.0027547167, -0.81723946, -0.07765394, -0.006659792, -0.054077476, 0.11575699
441, 917443669, 0.5710747, 0.0026937576, -0.81721735, -0.0776041, 5.417954E-4, -0.042339697, 0.14502811
442, 917460336, 0.57111204, 0.0026148441, -0.81719416, -0.07757636, 0.015569018, -0.02297204, 0.15298748
443, 917477003, 0.5711397, 0.002481766, -0.8171738, -0.0775921, 0.035617683, -0.017505573, 0.12424469
444, 917493670, 0.5711727, 0.0023400327, -0.8171488, -0.077616386, 0.01884259, -0.025440246, 0.10202026
445, 917510337, 0.5712129, 0.0022083262, -0.81712025, -0.07762492, 9.070156E-4, -0.05000887, 0.10766888
446, 917527004, 0.5712559, 0.002132183, -0.8170921, -0.07760509, -0.0143982265, -0.061169397, 0.106077194
447, 917543671, 0.57129014, 0.002102888, -0.8170732, -0.07755325, -0.035591308, -0.061322052, 0.12351036
448, 917560338, 0.5713166, 0.0020553106, -0.8170561, -0.07754079, -0.025550213, -0.017744368, 0.123197556
449, 917577005, 0.5713358, 0.0019934073, -0.817044, -0.07752862, -0.028631562, -0.042359713, 0.13053894
450, 917593672, 0.5713489, 0.0019177615, -0.81703514, -0.077527665, -0.007301274, -0.067176245, 0.12885189
451, 917610339, 0.57134676, 0.0018047716, -0.81703424, -0.0775559, 0.01827129, -0.0508107, 0.14536858
452, 917627006, 0.57134247, 0.0016894265, -0.8170316, -0.07761795, -0.0148935625, -0.08235489, 0.12224007
453, 917643673, 0.57134783, 0.0016452862, -0.81702775, -0.07761981, -0.018110808, -0.087376334, 0.09817219
454, 917660340, 0.5713568, 0.0016421247, -0.81702316, -0.07760202, 0.009182806, -0.07044956, 0.12988472
455, 917677007, 0.5713662, 0.0016368001, -0.8170169, -0.07759863, 0.023851514, -0.037463073, 0.15355396
456, 917693674, 0.571378, 0.0016292103, -0.81700945, -0.077589415, 0.0416047, -0.018077368, 0.15096855
457, 917710341, 0.5713919, 0.0015953216, -0.81699777, -0.07761093, 0.037613653, -0.009429184, 0.12879467
458, 917727008, 0.57137907, 0.001494708, -0.8169977, -0.07770877, 0.02595343, -0.03894252, 0.13421822
459, 917743675, 0.5713939, 0.0014349705, -0.81698287, -0.07775731, 0.0036723178, -0.07192424, 0.12520885
460, 917760342, 0.5714332, 0.0014113623, -0.8169573, -0.077736974, 0.004484117, -0.047961112, 0.11837959
461, 917777009, 0.57145476, 0.0013906225, -0.81694126, -0.07774786, -0.004909686, -0.03450481, 0.12176323
462, 917793676, 0.5714702, 0.0013665672, -0.8169284, -0.07776965, 0.005712097, -0.04782451, 0.13279533
463, 917810343, 0.57148814, 0.0013447936, -0.81691307, -0.077799335, 0.02735739, -0.05256634, 0.11465645
464, 917827010, 0.57150304, 0.001321721, -0.8169004, -0.07782359, -0.009391568, -0.04785543, 0.123703
465, 917843677, 0.5715205, 0.0012935174, -0.816885, -0.077857584, 0.01569955, -0.050000835, 0.13366508
466, 917860344, 0.5715368, 0.001240699, -0.8168669, -0.07792915, 0.0053517944, -0.03088473, 0.125494
467, 917877011, 0.57154727, 0.0011649209, -0.81685454, -0.07798232, -0.01369285, -0.037356384, 0.12844658
468, 917893678, 0.5715573, 0.0011327756, -0.81684554, -0.078003936, -0.005813125, -0.04516307, 0.12621403
469, 917910345, 0.5715643, 0.001114845, -0.8168385, -0.07802671, -0.018538611, -0.0455623, 0.11488724
470, 917927012, 0.5715456, 0.0010813931, -0.81684715, -0.07807354, -0.021298103, -0.04388185, 0.11843681
471, 917943679, 0.5715369, 0.0010626146, -0.8168494, -0.0781138, -0.0144595, -0.059146598, 0.1276083
472, 917960346, 0.571547, 0.0010703811, -0.81684226, -0.07811508, 0.0035243523, -0.04706361, 0.11885643
473, 917977013, 0.57154423, 0.0010598445, -0.8168423, -0.07813472, 0.015491236, -0.024989769, 0.11493111
474, 917993680, 0.57154065, 0.0010098747, -0.81684023, -0.078181796, 0.024876544, -0.018495249, 0.12548828
475, 918010347, 0.57152647, 9.2780625E-4, -0.8168434, -0.07825359, 0.019014694, -0.03383302, 0.12385273
476, 918027014, 0.5715206, 8.763322E-4, -0.81684345, -0.07829577, 0.007836364, -0.054670963, 0.12836838
477, 918043681, 0.57151794, 8.5547933E-4, -0.81684595, -0.07828952, 0.012346855, -0.026421338, 0.11600876
478, 918060348, 0.5715257, 8.293342E-4, -0.81684166, -0.078278646, 0.025075024, -0.008959098, 0.10964203
479, 918077015, 0.5715242, 7.8050094E-4, -0.81684315, -0.07827518, 0.011547573, 0.020395864, 0.11714554
480, 918093682, 0.57152003, 7.205269E-4, -0.8168447, -0.07829075, 0.0038531474, -0.02113782, 0.14105415
481, 918110349, 0.5715068, 6.569839E-4, -0.816853, -0.07830052, 0.020244462, -0.04508191, 0.1090374
482, 918127016, 0.57150775, 5.824371E-4, -0.8168503, -0.078321874, 0.018316887, -0.03854922, 0.11861706
483, 918143683, 0.5715163, 5.0562294E-4, -0.81684446, -0.0783209, 0.012060759, -0.076417014, 0.14865398
484, 918160350, 0.57152843, 4.442057E-4, -0.8168362, -0.07831965, 0.014684354, -0.05120753, 0.13466263
485, 918177017, 0.57154524, 3.943353E-4, -0.8168242, -0.07832241, 0.014130489, -0.042153656, 0.12677479
486, 918193684, 0.57156456, 3.5875698E-4, -0.8168097, -0.07833124, 0.014400939, -0.023208706, 0.11030865
487, 918210351, 0.5715865, 3.3718382E-4, -0.8167952, -0.078323744, 0.003122923, -0.039775994, 0.12019539
488, 918227018, 0.57161576, 3.2569666E-4, -0.8167767, -0.07830304, -0.0063938117, -0.025096066, 0.13040066
489, 918243685, 0.5716219, 2.8444792E-4, -0.8167713, -0.07831516, 0.007126934, -0.03578506, 0.12976742
490, 918260352, 0.5716243, 2.0948309E-4, -0.8167659, -0.07835466, 0.0065301545, -0.04866418, 0.12060833
491, 918277019, 0.57163125, 1.6079564E-4, -0.8167583, -0.078383334, -0.011808637, -0.043281294, 0.121608734
492, 918293686, 0.57163936, 1.4698063E-4, -0.81675243, -0.07838321, -0.002240941, -0.0406508, 0.11114597
493, 918310353, 0.57165647, 1.6157667E-4, -0.8167437, -0.07834987, -0.017666465, -0.045390263, 0.13371658
494, 918327020, 0.57167464, 1.8040487E-4, -0.8167335, -0.078323126, -0.006119338, -0.045082673, 0.13524818
495, 918343687, 0.5716757, 1.7434778E-4, -0.8167329, -0.0783226, 0.0027644082, -0.048414644, 0.12060547
496, 918360354, 0.57167745, 1.6175595E-4, -0.81673086, -0.07833117, -0.0058368174, -0.069031894, 0.13115597
497, 918377021, 0.571691, 1.8205447E-4, -0.8167226, -0.07831855, 2.9950736E-5, -0.041685313, 0.13052845
498, 918393688, 0.57170624, 2.1744682E-4, -0.81671506, -0.0782858, -0.0013997221, -0.056310467, 0.11618614
499, 918410355, 0.57173526, 2.982543E-4, -0.81670225, -0.07820676, -0.0028904695, -0.038750745, 0.08495903
500, 918427022, 0.5717748, 4.0185126E-4, -0.81668353, -0.07811371, -0.006038426, -0.029096203, 0.13981247
501, 918443689, 0.571859, 6.6043856E-4, -0.8166464, -0.07788081, -0.0038390586, -0.07017443, 0.08743191
502, 918460356, 0.57193804, 9.474532E-4, -0.81661355, -0.07764145, 0.048440173, -0.050071135, 0.06345844
503, 918477023, 0.5719682, 0.0012155671, -0.8166057, -0.07750147, 0.03158998, -0.016422436, 0.1606741
504, 918493690, 0.5720226, 0.0016039942, -0.81658316, -0.077329695, 0.0352547, -0.051989693, 0.2020359
505, 918510357, 0.5721066, 0.0021736326, -0.8165485, -0.077059075, 0.051650267, -0.046250567, 0.055381775
506, 918527024, 0.57219094, 0.0026742034, -0.816512, -0.07680258, 0.11509085, -0.04906084, 0.04693222
507, 918543691, 0.57231075, 0.0030327379, -0.81644696, -0.076588884, 0.09220133, 0.14709313, 0.16833591
508, 918560358, 0.57238597, 0.0031616413, -0.81638914, -0.076637454, 0.045180015, 0.19803548, 0.13215733
509, 918577025, 0.57241505, 0.003119542, -0.8163592, -0.07674002, -0.0044935043, 0.081028625, 0.124970436
510, 918593692, 0.57245463, 0.0032567047, -0.8163369, -0.07667602, -0.062411524, -0.06495656, 0.14803696
511, 918610359, 0.5725215, 0.0036140792, -0.81631434, -0.07640223, -0.05894752, -0.1263267, 0.09016132
512, 918627026, 0.5725536, 0.0040129423, -0.81632113, -0.07606746, -0.056201886, -0.09884807, 0.04680538
513, 918643693, 0.5725829, 0.0043042004, -0.8163319, -0.075716056, -0.043920297, -0.071840666, 0.14614868
514, 918660360, 0.57264346, 0.0045040553, -0.81631726, -0.07540319, -0.014138536, -0.05824169, 0.19231796
515, 918677027, 0.57270646, 0.0045973808, -0.8162914, -0.075197875, 0.08152856, -0.07340119, 0.18655491
516, 918693694, 0.57274646, 0.0046015186, -0.81626177, -0.0752148, 0.120224044, -0.16627379, 0.18758488
517, 918710361, 0.5727991, 0.004691479, -0.8162111, -0.07535891, 0.07041507, -0.27383894, 0.20854378
518, 918727028, 0.5729367, 0.0050109187, -0.8161163, -0.075318046, 0.07767478, -0.25426483, 0.16741753
519, 918743695, 0.573134, 0.0054544937, -0.81600374, -0.075006664, 0.11547261, -0.10575918, 0.116511345
520, 918760362, 0.57333314, 0.0058125095, -0.8158851, -0.074745215, 0.14382611, 0.118243635, 0.121795654
521, 918777029, 0.5735027, 0.0059773573, -0.8157609, -0.07478782, 0.054285932, 0.087350085, 0.16873455
522, 918793696, 0.57367593, 0.006086215, -0.81563073, -0.07486995, 0.0036781293, -0.061622076, 0.11944866
523, 918810363, 0.57391125, 0.006244742, -0.8154639, -0.074869506, 0.032530077, -0.21258126, 0.106778145
524, 918827030, 0.5741656, 0.006594504, -0.815294, -0.07474112, 0.0652184, -0.3336278, 0.20787048
525, 918843697, 0.5744151, 0.007069898, -0.8151305, -0.07456365, 0.11462281, -0.31996068, 0.18632793
526, 918860364, 0.5747386, 0.007592942, -0.81491107, -0.074417345, 0.09525541, -0.18348481, 0.19015884
527, 918877031, 0.5750501, 0.008069285, -0.81468666, -0.07441789, -5.628056E-4, -0.12224959, 0.20378876
528, 918893698, 0.5753601, 0.008487081, -0.81445736, -0.07448697, -0.03222252, -0.15241776, 0.16653919
529, 918910365, 0.5756865, 0.009022326, -0.81422216, -0.07447121, -0.07583303, -0.20045896, 0.15069962
530, 918927032, 0.57601446, 0.009830622, -0.8139962, -0.07430307, -0.08707305, -0.2563687, 0.10139847
531, 918943699, 0.5763166, 0.010925815, -0.81379294, -0.07403186, -0.120593734, -0.16541258, 0.07966137
532, 918960366, 0.5765906, 0.012176653, -0.8136109, -0.07370463, -0.15648231, 0.049428552, 0.022398949
533, 918977033, 0.5768273, 0.01336754, -0.8134494, -0.07342942, -0.28986412, 0.17726453, 0.092222214
534, 918993700, 0.57701164, 0.014446269, -0.813332, -0.07307543, -0.31133476, 0.25048822, 0.06410885
535, 919010367, 0.5771678, 0.015326515, -0.8132504, -0.07256889, -0.2115653, 0.24524984, -0.015316963
536, 919027034, 0.5772359, 0.016033348, -0.8132434, -0.07195248, -0.15933748, 0.32453012, -0.030591011
537, 919043701, 0.5772164, 0.016602034, -0.8133016, -0.07131906, -0.1512977, 0.27698845, 0.03796673
538, 919060368, 0.5771471, 0.017270366, -0.8134008, -0.07058456, -0.1667067, 0.12310764, 0.11128521
539, 919077035, 0.577118, 0.018070897, -0.81349057, -0.06958122, 0.021554695, -0.0077355667, 0.068377495
540, 919093702, 0.577143, 0.01880012, -0.81355435, -0.06842507, 0.16314389, 0.1598117, -0.025464058
541, 919110369, 0.5771514, 0.01920721, -0.8136245, -0.06739906, 0.07002795, 0.15151744, 0.065917015
542, 919127036, 0.57714957, 0.01957801, -0.813705, -0.06632728, -0.17001244, 0.01573298, 0.017503738
543, 919143703, 0.5772351, 0.020161685, -0.8137597, -0.064718805, -0.19087067, 0.34543458, -0.2631054
544, 919160370, 0.5771864, 0.020260364, -0.81390226, -0.06331357, -0.13105369, 0.5848823, -0.5641308
545, 919177037, 0.57699037, 0.020140167, -0.8141582, -0.061832357, -0.88430756, 0.66652846, -0.587348
546, 919193704, 0.57678306, 0.020109797, -0.814457, -0.059806664, -1.6979358, 1.1273855, -0.4525795
547, 919210371, 0.5764784, 0.019818591, -0.8148381, -0.057611484, -1.9019092, 1.7140058, -0.098008156
548, 919227038, 0.5753043, 0.018173533, -0.8157533, -0.0569339, -1.9575596, 1.0729477, -0.17398357
549, 919243705, 0.573467, 0.01610727, -0.8171134, -0.05658572, -1.9119414, -0.22499444, -0.29119587
550, 919260372, 0.5712172, 0.014609379, -0.8188016, -0.055331692, -1.5705565, -0.7123779, -0.19849682
551, 919277039, 0.5684463, 0.013280808, -0.82082605, -0.05419623, -0.91245764, -0.7001474, 0.007170677
552, 919293706, 0.56537557, 0.01240536, -0.823023, -0.05319888, -0.2402277, -1.2593193, 0.47394276
553, 919310373, 0.5622308, 0.012565238, -0.8252917, -0.05130981, 0.37961352, -1.032965, 0.19294071
554, 919327040, 0.5590739, 0.013153806, -0.82755023, -0.0492362, 0.84627414, -0.34096798, 0.32257652
555, 919343707, 0.5557757, 0.013605236, -0.8298464, -0.04778528, 1.0164284, -0.15937106, 0.5021734
556, 919360374, 0.55258685, 0.013991391, -0.83202386, -0.04678183, 1.0309043, -0.20380339, 0.52686214
557, 919377041, 0.5497383, 0.014183028, -0.83393764, -0.0462046, 1.0043474, 0.17658591, 0.65170956
558, 919393708, 0.5472728, 0.014041837, -0.8355569, -0.046261102, 1.3774316, -0.20078595, 0.6734104
559, 919410375, 0.5450731, 0.01383286, -0.83697426, -0.04667382, 1.4777608, -0.45336485, 0.6949234
560, 919427042, 0.5431803, 0.013934143, -0.83817154, -0.04722123, 1.1916906, -0.41820976, 0.8447113
561, 919443709, 0.54163456, 0.014293161, -0.839128, -0.047879644, 1.1504449, -0.5681059, 0.6890688
562, 919460376, 0.54042846, 0.014638152, -0.8398531, -0.048680346, 1.180051, -0.5681768, 0.56591034
563, 919477043, 0.53951675, 0.014827725, -0.84035575, -0.050041, 1.0925573, -0.42012104, 0.68751526
564, 919493710, 0.53896594, 0.014811787, -0.8405923, -0.051971607, 0.9945379, -0.34792006, 0.85714436
565, 919510377, 0.53867084, 0.014929086, -0.8406481, -0.054053493, 1.0467161, -0.2662447, 0.62409306
566, 919527044, 0.5384931, 0.015060155, -0.8406301, -0.05603232, 1.2910627, -0.2623919, -0.047867775
567, 919543711, 0.53868353, 0.015078591, -0.8403451, -0.058422, 0.91095304, -0.007367443, 0.4009924
568, 919560378, 0.53918594, 0.0151484525, -0.8398557, -0.060759746, 0.70036846, 0.14771795, 0.72305965
569, 919577045, 0.5397443, 0.014610632, -0.83929086, -0.06367017, 0.68154556, 0.40500808, 0.51691246
570, 919593712, 0.5403708, 0.013611605, -0.83861446, -0.06737905, 0.58406883, -0.26417476, 0.47354984
571, 919610379, 0.541338, 0.012922419, -0.83772683, -0.07071301, 0.54370064, -0.6940252, 0.24219036
572, 919627046, 0.5426108, 0.013025065, -0.8366414, -0.07372552, 0.6273557, -0.93021196, 0.052110672
573, 919643713, 0.54404914, 0.013449066, -0.83543855, -0.07663162, 0.5185366, -0.7670898, 0.051190376
574, 919660380, 0.5456052, 0.014077692, -0.834134, -0.0796092, 0.19005843, -0.48879668, 0.3928299
575, 919677047, 0.54726046, 0.0148783345, -0.83276016, -0.08243419, 0.23882985, -0.16084263, 0.32278824
576, 919693714, 0.5489663, 0.015450236, -0.83132416, -0.085427314, 0.32724488, 0.14386278, 0.19804192
577, 919710381, 0.5508218, 0.015725458, -0.8297226, -0.08893114, 0.24156386, -0.022799194, 0.44768524
578, 919727048, 0.55300725, 0.01638568, -0.8279205, -0.09199117, 0.45138264, -0.6315591, 0.3386526
579, 919743715, 0.5555696, 0.017546294, -0.8259241, -0.09425578, 0.832107, -0.5379391, -0.028884888
580, 919760382, 0.55816036, 0.01843674, -0.8238293, -0.09707135, 0.78586304, -0.113838166, 0.14181137
581, 919777049, 0.5606924, 0.019101104, -0.82170844, -0.100273155, 0.40759152, -0.20693597, 0.25169468
582, 919793716, 0.5633443, 0.01997799, -0.81948256, -0.10340733, 0.27468982, -0.29281628, 0.16475105
583, 919810383, 0.56622475, 0.020964738, -0.8170693, -0.10652736, 0.49054343, -0.5097917, 0.03010273
584, 919827050, 0.56911296, 0.021901943, -0.8146063, -0.1097604, 0.40299702, -0.5326564, 0.015123367
585, 919843717, 0.5717771, 0.022837305, -0.812256, -0.11309185, -0.264465, -0.15394476, 0.021104813
586, 919860384, 0.57428926, 0.023986528, -0.80998373, -0.11637486, -0.7741407, -0.03359063, -0.23875809
587, 919877051, 0.57678825, 0.025328783, -0.8077024, -0.119545035, -0.8989727, -0.28441352, -0.33719254
588, 919893718, 0.57943314, 0.027254093, -0.8053553, -0.12213739, -0.48113355, -0.6288594, -0.13538265
589, 919910385, 0.5821751, 0.029859003, -0.80299526, -0.12401413, -0.30566335, -0.2892041, -0.030887604
590, 919927052, 0.58469534, 0.032444973, -0.8007836, -0.12579586, -0.54826254, 0.57107174, 0.020166397
591, 919943719, 0.5869661, 0.03476371, -0.7987368, -0.1276002, -0.8288473, 0.8611195, -0.22343063
592, 919960386, 0.5891219, 0.03709693, -0.7968038, -0.12908655, -0.8445571, 0.8421622, -0.3359251
593, 919977053, 0.5911845, 0.0395562, -0.79498523, -0.13013408, -0.66464484, 0.54036194, -0.24958134
594, 919993720, 0.59319705, 0.042283073, -0.7932787, -0.1305317, -0.54071224, 0.67798454, -0.08393669
595, 920010387, 0.59500307, 0.0446275, -0.79173905, -0.13087851, -0.5482214, 1.2267007, -0.003750801
596, 920027054, 0.59639937, 0.045856133, -0.7904804, -0.13170421, -0.7671474, 1.5617362, -0.17629337
597, 920043721, 0.59737384, 0.046266392, -0.78954566, -0.13274853, -1.0069603, 1.3494029, -0.2754593
598, 920060388, 0.59802544, 0.046384986, -0.788881, -0.13372082, -1.035143, 0.7349239, -0.17210484
599, 920077055, 0.59853226, 0.046689395, -0.78835535, -0.13444464, -0.81225413, -0.011776283, -0.045485497
600, 920093722, 0.5989926, 0.0471407, -0.7878968, -0.13492332, -0.35581923, -0.044896543, 0.106583595
601, 920110389, 0.5993612, 0.04713158, -0.78746563, -0.1358051, 0.16083233, 0.02831099, 0.1752615
602, 920127056, 0.5997295, 0.04694619, -0.78702074, -0.1368195, 0.1087648, -0.09972321, 0.20715237
603, 920143723, 0.6001891, 0.047258414, -0.78655833, -0.13735381, -0.1643768, -0.10742488, 0.16266346
604, 920160390, 0.60075706, 0.0482528, -0.7861107, -0.13708706, -0.6188658, 0.16294564, -0.06250095
605, 920177057, 0.6012679, 0.04970811, -0.7857725, -0.13626416, -0.9009548, 0.26668388, -0.05971718
606, 920193724, 0.6016607, 0.05142276, -0.7855822, -0.1349849, -1.0377729, 0.28282458, -0.1081295
607, 920210391, 0.6018171, 0.053028323, -0.78558815, -0.13362491, -0.82589734, 0.28467372, -0.09287071
608, 920227058, 0.6016928, 0.05404627, -0.7857787, -0.13265374, -0.6231528, 0.41649902, 0.06269169
609, 920243725, 0.6012695, 0.05418689, -0.7861399, -0.13237523, -0.43039477, 0.51308894, 0.04186535
610, 920260392, 0.60058475, 0.0537315, -0.78666216, -0.13256681, -0.42204833, 0.34017473, -0.0036888123
611, 920277059, 0.5997903, 0.053196363, -0.78728306, -0.13269407, -0.4701425, 0.15853265, -0.031321526
612, 920293726, 0.59896666, 0.052897446, -0.7879625, -0.13250057, -0.5046842, 0.18195675, 0.040109634
613, 920310393, 0.59807837, 0.052623205, -0.78870964, -0.13217552, -0.39817357, 0.090369135, 0.04717064
614, 920327060, 0.5971749, 0.052535955, -0.78948605, -0.13165918, -0.35044774, -0.1630543, 0.10567951
615, 920343727, 0.5962679, 0.05257006, -0.7902814, -0.13098249, -0.15164728, -0.042511467, 0.09267521
616, 920360394, 0.5953395, 0.05254355, -0.79108435, -0.13036829, -0.0014720564, -0.057343394, 0.03135872
617, 920377061, 0.5944441, 0.052633666, -0.7918781, -0.12959577, 0.11513733, -0.0067778067, 0.06215191
618, 920393728, 0.59358835, 0.05281639, -0.7926399, -0.12878484, 0.10726208, -0.033367552, 0.1543808
619, 920410395, 0.59282714, 0.0531773, -0.7933461, -0.12779099, 0.15034784, -0.081478655, 0.13777733
620, 920427062, 0.59203964, 0.05336627, -0.79405844, -0.12693615, 0.15765129, 0.1546342, 0.10872173
621, 920443729, 0.5911705, 0.053193342, -0.7947877, -0.12649402, 0.015713409, 0.07218211, 0.14875126
622, 920460396, 0.5902961, 0.052943166, -0.7955069, -0.12616046, -0.084190175, -0.11251844, 0.13348389
623, 920477063, 0.58943725, 0.052770793, -0.79621226, -0.12579864, 0.013452798, -0.11431405, 0.14524269
624, 920493730, 0.58858085, 0.052535485, -0.7969114, -0.12547842, 0.037584152, -0.0015885904, 0.17516804
625, 920510397, 0.5877313, 0.05234551, -0.79760426, -0.12513834, 0.025063848, -0.0026210526, 0.1434555
626, 920527064, 0.5869185, 0.052241437, -0.7982735, -0.1247286, 0.045041885, -0.09644687, 0.067131996
627, 920543731, 0.58616716, 0.052289378, -0.7989046, -0.12420043, 0.07311243, -0.14007632, 0.08513641
628, 920560398, 0.58545977, 0.05242799, -0.79950905, -0.12358582, 0.0130035365, -0.07235804, 0.14196491
629, 920577065, 0.58477664, 0.05262484, -0.8000996, -0.12291359, 0.0023973999, -0.036081083, 0.11986542
630, 920593732, 0.58414423, 0.052935053, -0.8006559, -0.122163884, 0.0993533, -0.0325208, 0.14928532
631, 920610399, 0.5835591, 0.05330787, -0.8011806, -0.12135516, 0.18449207, -0.0066891, 0.14898682
632, 920627066, 0.58298504, 0.05363546, -0.8016867, -0.120624155, 0.20919204, 0.039074425, 0.1848154
633, 920643733, 0.58242595, 0.05386005, -0.80216897, -0.120017305, 0.15684262, -0.00611185, 0.15425777
634, 920660400, 0.5818978, 0.0540196, -0.80262566, -0.11945388, 0.13250875, -0.025098717, 0.13499928
635, 920677067, 0.58139443, 0.054063737, -0.8030532, -0.119009905, 0.097406946, -0.016245117, 0.15493202
636, 920693734, 0.5809166, 0.054118235, -0.8034571, -0.11859268, 0.10787829, -0.073027454, 0.15476608
637, 920710401, 0.580468, 0.054159965, -0.80383265, -0.118223846, 0.17195031, -0.01520201, 0.123539925
638, 920727068, 0.58003783, 0.054130934, -0.804189, -0.11792435, 0.18229091, -0.0038293917, 0.12075138
639, 920743735, 0.5796147, 0.05403166, -0.8045281, -0.11773761, 0.12953693, -0.08556833, 0.13828754
640, 920760402, 0.5792431, 0.053999253, -0.80483454, -0.11748663, 0.07840343, -0.0964371, 0.1494751
641, 920777069, 0.57891107, 0.053968564, -0.80510396, -0.11729065, 0.108843654, -0.0658178, 0.1648941
642, 920793736, 0.57860744, 0.05392519, -0.8053507, -0.11711536, 0.12982973, -0.02667384, 0.15057659
643, 920810403, 0.5783314, 0.053850606, -0.80556613, -0.11703074, 0.14033127, -0.021387089, 0.1946888
644, 920827070, 0.57809174, 0.053787302, -0.8057504, -0.11697469, 0.18626496, -0.032896694, 0.1715107
645, 920843737, 0.5778876, 0.053679418, -0.805903, -0.11698339, 0.18337986, -0.03659396, 0.20567322
646, 920860404, 0.57772416, 0.05356193, -0.80602145, -0.11702803, 0.1619262, -0.078179665, 0.1882534
647, 920877071, 0.5776074, 0.053490523, -0.8061031, -0.11707438, 0.11587404, -0.08310586, 0.15553093
648, 920893738, 0.57754034, 0.053509746, -0.80615205, -0.11705924, 0.12157898, -0.08650172, 0.09311676
649, 920910405, 0.577517, 0.05353214, -0.8061703, -0.11703867, 0.08857059, -0.023314077, 0.129035
650, 920927072, 0.5775289, 0.053624153, -0.80616504, -0.116973534, 0.039432604, -0.060239844, 0.13651657
651, 920943739, 0.57757443, 0.053811464, -0.80613726, -0.116854064, 0.03245274, -0.056094263, 0.1317854
652, 920960406, 0.5776262, 0.053983722, -0.8061008, -0.116770335, 0.06464531, -0.03928338, 0.14563465
653, 920977073, 0.5777022, 0.054144043, -0.8060471, -0.116691396, 0.08577533, -0.0165363, 0.1402483
654, 920993740, 0.57778496, 0.054249242, -0.8059823, -0.11668006, 0.058046218, 0.031188214, 0.1314497
655, 921010407, 0.5778917, 0.054402824, -0.8059007, -0.11664363, 0.0025627995, -0.038470518, 0.15541172
656, 921027074, 0.57801944, 0.054560184, -0.80580264, -0.11661441, 0.06776868, -0.019186798, 0.12709332
657, 921043741, 0.5781511, 0.054627053, -0.8056947, -0.116675876, 0.12337021, -0.021821067, 0.14341068
658, 921060408, 0.57829905, 0.054666914, -0.8055713, -0.1167761, 0.14211491, 0.0026661183, 0.17775536
659, 921077075, 0.5784574, 0.054669507, -0.8054365, -0.11692026, 0.100315295, -0.01055227, 0.120233536
660, 921093742, 0.5786547, 0.05467115, -0.8052737, -0.117064975, 0.07081337, -0.021712719, 0.13306713
661, 921110409, 0.5788657, 0.05464562, -0.80510205, -0.11721507, 0.072518334, 0.043059073, 0.10591507
662, 921127076, 0.579073, 0.05455997, -0.80492467, -0.11744724, 0.03850413, 0.032697234, 0.14565563
663, 921143743, 0.5792916, 0.05448365, -0.8047389, -0.1176786, 0.04887513, -0.0134299155, 0.16842747
664, 921160410, 0.57950985, 0.05438491, -0.80455077, -0.11793557, 0.038935956, 0.015987296, 0.13560486
665, 921177077, 0.5797094, 0.05421269, -0.8043671, -0.11828568, 0.015894007, -0.007420714, 0.14526367
666, 921193744, 0.5799182, 0.054077476, -0.8041802, -0.11859661, 0.007557867, -0.009385756, 0.12426853
667, 921210411, 0.5801096, 0.053961728, -0.8040074, -0.118882984, -0.033027615, -0.008413363, 0.097465515
668, 921227078, 0.5803008, 0.053925723, -0.8038447, -0.11906557, -0.13667594, 0.0033485873, 0.0560503
669, 921243745, 0.58046955, 0.053965896, -0.8037055, -0.119165555, -0.19491224, 0.02099474, 0.08180714
670, 921260412, 0.58061516, 0.05406727, -0.80359066, -0.11918477, -0.20243569, 0.020587554, 0.10529137
671, 921277079, 0.5807288, 0.05415986, -0.80349934, -0.119204395, -0.16873066, 0.024600612, 0.108364105
672, 921293746, 0.5808047, 0.054291412, -0.8034374, -0.11919255, -0.12179713, 0.0014080479, 0.13820171
673, 921310413, 0.58085424, 0.054417796, -0.80339485, -0.11918031, -0.040004797, 0.034116097, 0.10527897
674, 921327080, 0.58087236, 0.054496266, -0.80337435, -0.11919435, -0.033006158, 0.04125901, 0.11208534
675, 921343747, 0.58088076, 0.054552794, -0.8033588, -0.11923152, -0.03543619, -0.00392377, 0.12478161
676, 921360414, 0.5809017, 0.05462224, -0.8033363, -0.11925062, 0.018739773, -0.0045022494, 0.12914276
677, 921377081, 0.5809105, 0.054667816, -0.80332273, -0.119277485, 0.039461214, 0.022333639, 0.1377716
678, 921393748, 0.5809267, 0.054708194, -0.80330324, -0.11931123, 0.034817953, 0.00698654, 0.11452198
679, 921410415, 0.58096296, 0.05481726, -0.8032743, -0.11928023, -0.0410714, 0.002093981, 0.1312828
680, 921427082, 0.58100075, 0.05493743, -0.8032489, -0.119212165, -0.053348072, 7.4086164E-4, 0.13052273
681, 921443749, 0.58103704, 0.055069927, -0.80322737, -0.11911881, -0.010982533, 0.03852654, 0.11126804
682, 921460416, 0.5810363, 0.055118654, -0.8032266, -0.11910492, -0.014159992, 0.07509865, 0.11231327
683, 921477083, 0.5810185, 0.05510874, -0.80323416, -0.11914531, 0.008198455, 0.012071823, 0.14670563
684, 921493750, 0.5810055, 0.055085108, -0.80323505, -0.11921365, 0.048380274, -0.004674997, 0.11884117
685, 921510417, 0.5809943, 0.054977432, -0.8032317, -0.11933952, 0.07255946, 0.017485587, 0.13266277
686, 921527084, 0.5809947, 0.054875936, -0.80321836, -0.1194751, 0.047129493, -0.019090492, 0.13994122
687, 921543751, 0.5810091, 0.05483097, -0.8031998, -0.11955087, 0.019953001, -0.0013156531, 0.11688328
688, 921560418, 0.5810326, 0.054805543, -0.80317885, -0.11958829, -0.010511997, 0.014089844, 0.1281128
689, 921577085, 0.5810665, 0.054809347, -0.80315006, -0.119614884, 0.014450559, 0.023711847, 0.15218163
690, 921593752, 0.58110034, 0.054776594, -0.8031195, -0.1196705, 0.026221646, 0.016247157, 0.11435127
691, 921610419, 0.5811396, 0.054767493, -0.80308414, -0.11972134, 0.058653377, -0.013888061, 0.13166046
692, 921627086, 0.58117783, 0.054740917, -0.8030509, -0.11977101, 0.03230254, 0.0021694168, 0.12888718
693, 921643753, 0.5812047, 0.054704256, -0.80302393, -0.11983819, -0.04977678, 0.0031469227, 0.1181488
694, 921660420, 0.58122617, 0.054736447, -0.80300313, -0.11985899, -0.09900238, -0.017438117, 0.1139307
695, 921677087, 0.5812523, 0.054771863, -0.80298316, -0.11984978, -0.05072403, 0.002245467, 0.12784958
696, 921693754, 0.5812489, 0.0547621, -0.80297804, -0.11990546, -0.03486042, 0.028610468, 0.11670971
697, 921710421, 0.5812606, 0.054777082, -0.8029629, -0.11994337, 0.013926645, -0.04211442, 0.118792534
698, 921727088, 0.5812837, 0.05485682, -0.8029449, -0.11991561, 0.07316965, -0.028153831, 0.14117432
699, 921743755, 0.58131814, 0.054902308, -0.8029182, -0.11990649, 0.031996775, 0.032184638, 0.14755249
700, 921760422, 0.58134127, 0.054936394, -0.8028961, -0.1199267, 0.024583744, 0.018335577, 0.12556076
701, 921777089, 0.58135885, 0.054970317, -0.8028747, -0.119969286, 0.010364743, 0.006115622, 0.14741898
702, 921793756, 0.58137774, 0.05495612, -0.802847, -0.12006919, -0.011333001, -0.027940098, 0.17050648
703, 921810423, 0.5814164, 0.054987445, -0.80280924, -0.12012057, -0.01937455, -0.030031117, 0.13566494
704, 921827090, 0.581428, 0.05498118, -0.8027837, -0.12023694, -0.034662835, 0.0023896608, 0.10126972
705, 921843757, 0.5814579, 0.05503381, -0.80274695, -0.12031319, -0.043540772, -0.05390747, 0.13422108
706, 921860424, 0.58148175, 0.055101838, -0.8027165, -0.12036998, -0.0018999741, 0.032335043, 0.110259056
707, 921877091, 0.5814933, 0.055124573, -0.80269057, -0.12047698, 0.025324913, -9.570266E-4, 0.14657879
708, 921893758, 0.5815251, 0.055184606, -0.8026482, -0.120579064, 0.06368197, -0.04807322, 0.14895916
709, 921910425, 0.5815752, 0.055209797, -0.8025903, -0.120710805, 0.122127034, 0.006861708, 0.14049435
710, 921927092, 0.5816399, 0.055161607, -0.80251426, -0.12092669, 0.121881165, -0.028703813, 0.15952206
711, 921943759, 0.5817323, 0.05512173, -0.80241907, -0.121132694, 0.11961698, -0.027528862, 0.13707352
712, 921960426, 0.5818292, 0.055045813, -0.80231404, -0.12139747, 0.092194624, 0.01709469, 0.1381979
713, 921977093, 0.58195055, 0.054991875, -0.802194, -0.1216323, 0.03503342, -0.045316443, 0.13118935
714, 921993760, 0.5820844, 0.054978248, -0.80206907, -0.1218218, 9.946326E-4, 0.05238096, 0.12611485
715, 922010427, 0.5821901, 0.054898694, -0.80195963, -0.122073054, -0.07359164, 0.049274493, 0.1397829
716, 922027094, 0.58229685, 0.054860994, -0.80185586, -0.122262284, -0.098344356, 0.030735826, 0.13130856
717, 922043761, 0.58239394, 0.054790147, -0.8017579, -0.12247445, -0.047717333, 0.01854635, 0.12855339
718, 922060428, 0.58249, 0.054724272, -0.8016599, -0.12268737, 0.02300127, -0.01730239, 0.14702892
719, 922077095, 0.5825966, 0.05468184, -0.8015514, -0.12290894, 0.07642981, 0.008875197, 0.13399696
720, 922093762, 0.5827034, 0.054643206, -0.8014463, -0.12310531, 0.02311571, 0.024688654, 0.12943554
721, 922110429, 0.5828053, 0.054610837, -0.80134946, -0.123268105, -0.10310921, 0.060807146, 0.09716034
722, 922127096, 0.58288693, 0.054602575, -0.80127084, -0.12339691, -0.16661014, 0.03373361, 0.11455536
723, 922143763, 0.5829597, 0.05465825, -0.8012086, -0.12343193, -0.13647446, 0.0408569, 0.10534382
724, 922160430, 0.5830004, 0.054670986, -0.80116814, -0.123496436, -0.0647374, 0.0656362, 0.11873531
725, 922177097, 0.58300537, 0.054629177, -0.8011514, -0.12359979, -0.06359123, 0.032735568, 0.12020302
726, 922193764, 0.5830157, 0.054629084, -0.8011367, -0.12364704, -0.0816913, 0.02197205, 0.123316765
727, 922210431, 0.58301437, 0.054649547, -0.80113477, -0.12365636, -0.062393196, 0.035838347, 0.12109947
728, 922227098, 0.5830085, 0.054641612, -0.8011345, -0.123689085, 0.00214036, 0.04055503, 0.09699345
729, 922243765, 0.5829775, 0.05458165, -0.801148, -0.123774044, 0.020625776, 0.02522679, 0.1368866
730, 922260432, 0.58295274, 0.054539457, -0.8011611, -0.123824656, -0.021015136, 0.0012066906, 0.13049221
731, 922277099, 0.5829329, 0.05453535, -0.8011741, -0.123835675, -0.0370057, 0.034757577, 0.12235832
732, 922293766, 0.58290267, 0.05451437, -0.8011974, -0.12383601, -0.035381652, 0.011232923, 0.13352585
733, 922310433, 0.5828687, 0.054511007, -0.8012288, -0.12379435, -0.030135358, 0.001848983, 0.10889912
734, 922327100, 0.5828476, 0.0545558, -0.8012541, -0.12371049, -0.04901058, 0.01990369, 0.12031269
735, 922343767, 0.5828254, 0.05462386, -0.8012822, -0.12360313, -0.0023620848, 0.00256632, 0.10608578
736, 922360434, 0.5827997, 0.05464361, -0.80131084, -0.1235304, 0.059386946, 0.037107706, 0.13471413
737, 922377101, 0.5827613, 0.05460818, -0.8013413, -0.12352954, 0.062708795, -8.8072487E-4, 0.121050835
738, 922393768, 0.58274114, 0.054609437, -0.80136245, -0.12348739, 0.018942723, 0.0133557655, 0.14256
739, 922410435, 0.58271897, 0.054629523, -0.8013832, -0.123447426, -0.02103257, 0.02358503, 0.1332531
740, 922427102, 0.58269703, 0.054653086, -0.80140746, -0.123383455, -0.024187678, 2.5617378E-4, 0.12291145
741, 922443769, 0.5826913, 0.054715354, -0.8014257, -0.123264596, -0.00467483, -0.016171405, 0.11335659
742, 922460436, 0.5826786, 0.05476115, -0.80144805, -0.1231592, 0.044760704, 0.019727673, 0.11216259
743, 922477103, 0.58266914, 0.05479421, -0.8014637, -0.123086706, 0.05574592, -0.0068211406, 0.14770126
744, 922493770, 0.5826825, 0.05485426, -0.8014649, -0.122988895, 0.03579113, -0.021287626, 0.14997864
745, 922510437, 0.58270603, 0.054914724, -0.80145746, -0.12289872, 0.032812595, 0.015524679, 0.1404686
746, 922527104, 0.58272976, 0.054917287, -0.8014455, -0.122862756, 0.033518, 0.015377188, 0.15837479
747, 922543771, 0.5827462, 0.054927107, -0.8014354, -0.12284622, 0.016357126, -0.03190737, 0.12408447
748, 922560438, 0.58278, 0.054971043, -0.80141413, -0.122804865, -0.010666038, -0.008590637, 0.124975204
749, 922577105, 0.5828105, 0.0550017, -0.8013958, -0.1227664, -0.03372095, 0.014442932, 0.124765396
750, 922593772, 0.5828397, 0.05501727, -0.8013794, -0.12272806, -0.039696794, -7.4765086E-4, 0.13658142
751, 922610439, 0.58285946, 0.055062637, -0.80137104, -0.122668914, -0.003313356, -0.016467568, 0.121129036
752, 922627106, 0.58287156, 0.05509409, -0.8013672, -0.122621596, 0.016366513, 0.015306223, 0.11821556
753, 922643773, 0.58288854, 0.055111453, -0.8013549, -0.12261369, 0.03686712, 0.0041510267, 0.13552952
754, 922660440, 0.5829131, 0.055111606, -0.8013356, -0.1226228, 0.0446561, -0.0029396145, 0.1339941
755, 922677107, 0.5829374, 0.055113833, -0.8013148, -0.122642644, 0.06945129, -0.0270259, 0.12274647
756, 922693774, 0.58299387, 0.05512533, -0.80127317, -0.1226408, 0.03380544, -0.009764052, 0.12469387
757, 922710441, 0.5830493, 0.05514735, -0.80123377, -0.1226248, -0.010810874, 0.014591149, 0.12408733
758, 922727108, 0.5830879, 0.05515644, -0.80120623, -0.122617364, -0.05633088, 0.014006496, 0.11040974
759, 922743775, 0.58313006, 0.055178534, -0.80117774, -0.1225928, -0.075951934, -0.0046736, 0.12692738
760, 922760442, 0.58316547, 0.05519868, -0.801154, -0.12257028, -0.058450874, 0.007858325, 0.1419506
761, 922777109, 0.58319974, 0.05523111, -0.8011309, -0.12254375, 0.032095566, -0.0047138324, 0.1596899
762, 922793776, 0.58322054, 0.055212088, -0.8011129, -0.12257107, 0.076897845, 0.030146869, 0.12489891
763, 922810443, 0.5832465, 0.0551606, -0.8010852, -0.12265125, 0.04005978, -0.03628543, 0.1395998
764, 922827110, 0.5832911, 0.055142082, -0.8010465, -0.12270018, 0.039978422, 0.001148689, 0.13325977
765, 922843777, 0.5833372, 0.0551048, -0.8010026, -0.122783996, 0.010079987, -0.01574333, 0.13768387
766, 922860444, 0.5834047, 0.05510665, -0.8009495, -0.12280966, -0.0128774755, -0.02495106, 0.1284895
767, 922877111, 0.58347106, 0.055119757, -0.80089766, -0.12282756, -0.017123774, 0.049625408, 0.10695076
768, 922893778, 0.5835243, 0.05511989, -0.8008568, -0.12284057, -0.050074056, 0.01694963, 0.11886978
769, 922910445, 0.58359414, 0.055172306, -0.8008073, -0.12280769, -0.028855076, -0.004565811, 0.1550703
770, 922927112, 0.5836646, 0.055210613, -0.8007532, -0.122808464, 0.056280114, -0.0048680003, 0.12808418
771, 922943779, 0.5837154, 0.05515147, -0.80070436, -0.12291261, 0.06930913, 0.012231579, 0.13634682
772, 922960446, 0.5837666, 0.05509153, -0.80065346, -0.12302747, 0.0065641287, 0.0153918285, 0.13489437
773, 922977113, 0.5838234, 0.05504071, -0.80060375, -0.12310395, -0.04631099, 0.022628507, 0.1055212
774, 922993780, 0.583877, 0.0549723, -0.8005568, -0.12318536, -0.06282547, 0.0021110799, 0.1216774
775, 923010447, 0.5839323, 0.05493419, -0.80051243, -0.12322859, -0.062941, 0.01071197, 0.118162155
776, 923027114, 0.58398145, 0.054951593, -0.8004771, -0.12321732, -0.010037073, 0.0014149208, 0.12136555
777, 923043781, 0.58402854, 0.05497417, -0.80044323, -0.123203464, 0.0046186717, 0.024411414, 0.12726307
778, 923060448, 0.5840831, 0.054992206, -0.80040187, -0.12320668, 0.021281563, -0.0073777717, 0.12001228
779, 923077115, 0.58412725, 0.054985512, -0.80036837, -0.123217516, -0.013543097, 0.029236306, 0.1422615
780, 923093782, 0.5841694, 0.054958805, -0.8003354, -0.12324385, -0.025692368, 0.01965735, 0.101673126
781, 923110449, 0.58420604, 0.05493019, -0.8003053, -0.12327831, -0.021886835, 0.023153232, 0.11175537
782, 923127116, 0.5842328, 0.05489305, -0.80028373, -0.12330748, -0.028917212, 0.015026189, 0.14826488
783, 923143783, 0.5842596, 0.054875437, -0.80026245, -0.12332656, -0.008234217, -0.024015881, 0.14115238
784, 923160450, 0.5842941, 0.054900747, -0.80024105, -0.12329168, 0.002831462, 0.02120311, 0.1108284
785, 923177117, 0.5843278, 0.054905083, -0.8002181, -0.12327817, 0.0016888638, 0.04608667, 0.14582539
786, 923193784, 0.5843633, 0.054907564, -0.80019414, -0.123264395, -0.034944016, -0.01864098, 0.14119625
787, 923210451, 0.5843979, 0.0549194, -0.80017036, -0.12324996, -0.016860923, -0.01122781, 0.12275028
788, 923227118, 0.5844386, 0.05491994, -0.8001414, -0.12324476, 0.017523862, 0.029871529, 0.1205492
789, 923243785, 0.58445984, 0.054827485, -0.80011994, -0.12332394, 0.043505456, 0.03871208, 0.11834431
790, 923260452, 0.58448315, 0.054758858, -0.80009514, -0.12340511, 0.01587255, -0.033002805, 0.13665867
791, 923277119, 0.58453876, 0.054768726, -0.8000536, -0.1234063, 0.0032355736, -0.03580848, 0.12560654
792, 923293786, 0.58458203, 0.054741595, -0.80001795, -0.123444386, 0.014480511, 0.010991249, 0.09006691
793, 923310453, 0.58461756, 0.05468558, -0.79998624, -0.12350701, -0.042039495, 0.015866991, 0.13843918
794, 923327120, 0.58465827, 0.0546787, -0.799955, -0.12351926, -0.0694875, 0.004578216, 0.1222229
795, 923343787, 0.58469605, 0.0546708, -0.79992455, -0.12354176, -0.09631933, 0.017780175, 0.1390791
796, 923360454, 0.58474475, 0.05467841, -0.7998803, -0.123593986, -0.1444895, -0.04429306, 0.16251755
797, 923377121, 0.5848323, 0.054885298, -0.7998228, -0.12346072, -0.061578713, -0.06679056, 0.1319313
798, 923393788, 0.5848724, 0.054971114, -0.7997974, -0.12339709, 0.05833688, 0.13055085, 0.073002815
799, 923410455, 0.5848159, 0.054678842, -0.7998188, -0.1236556, -0.09913738, 0.24185658, 0.119833946
800, 923427122, 0.58471316, 0.054353338, -0.79986984, -0.12395555, -0.36405388, 0.16132517, 0.10719967
801, 923443789, 0.58458126, 0.054205213, -0.799954, -0.12409808, -0.56080294, 0.106643006, 0.09818554
802, 923460456, 0.5844489, 0.054237228, -0.80005425, -0.12406138, -0.45457616, -0.065093234, 0.12196159
803, 923477123, 0.5842781, 0.05429272, -0.800196, -0.12392784, -0.20249604, 0.021239905, 0.043813705
804, 923493790, 0.58402985, 0.054129936, -0.8003787, -0.12398793, -0.113656335, 0.0886881, 0.08555889
805, 923510457, 0.5837323, 0.05391042, -0.80059576, -0.1240848, -0.24794784, 0.032228027, 0.021533966
806, 923527124, 0.58341336, 0.053786337, -0.8008475, -0.12401452, -0.39588213, 0.025774285, -0.07561302
807, 923543791, 0.58305776, 0.053668424, -0.80113375, -0.12388865, -0.47261545, -0.15131193, -0.10316372
808, 923560458, 0.5827689, 0.053842913, -0.80140465, -0.12341807, -0.20435745, -0.17487371, 0.10668087
809, 923577125, 0.58250195, 0.05402796, -0.80168265, -0.12279052, 0.1786709, 0.1241879, 0.11888409
810, 923593792, 0.5822168, 0.053843655, -0.8019704, -0.12234389, 0.33940688, 0.2844575, 0.013903618
811, 923610459, 0.5818769, 0.053275336, -0.8023156, -0.121946104, 0.0057353424, 0.3330374, -0.041173935
812, 923627126, 0.5815228, 0.05263336, -0.802701, -0.12137662, -0.38536003, 0.14271392, 0.10402489
813, 923643793, 0.5814019, 0.05252733, -0.802991, -0.1200771, 0.09271139, -0.0086477725, 0.2791891
814, 923660460, 0.5814494, 0.052371383, -0.80319667, -0.11852969, 0.84090894, 0.3511552, 0.15674114
815, 923677127, 0.58155394, 0.05161891, -0.803279, -0.117787324, 1.5619434, 0.22067006, 0.22749901
816, 923693794, 0.58194107, 0.050772984, -0.8031392, -0.117193796, 1.8507693, 0.19314761, 0.2087183
817, 923710461, 0.5825202, 0.049685437, -0.802837, -0.11685293, 1.6890631, 0.6805464, 0.17575169
818, 923727128, 0.5831874, 0.048208676, -0.80238, -0.11728142, 1.1444235, -0.0187922, 0.07992649
819, 923743795, 0.5841775, 0.047534816, -0.80172503, -0.11710707, 0.39654952, -0.71730816, 0.081959724
820, 923760462, 0.5854643, 0.047728136, -0.8009154, -0.11613926, -0.33363467, -0.32638323, 0.060421944
821, 923777129, 0.58672804, 0.047898844, -0.8001112, -0.11523199, -0.5668673, 0.15594672, 0.1503458
822, 923793796, 0.58768153, 0.047874104, -0.79952055, -0.114479, -0.9520615, 0.25818676, 0.12422657
823, 923810463, 0.5885441, 0.048486106, -0.79902416, -0.11324988, -0.8111415, -0.12070317, 0.18610096
824, 923827130, 0.5894522, 0.04964015, -0.7985717, -0.11119994, -0.9120965, -0.18919402, -0.17862606
825, 923843797, 0.5902577, 0.050807424, -0.7982082, -0.10898896, -0.67754513, 0.25908715, -0.058753014
826, 923860464, 0.5909873, 0.051539946, -0.7978538, -0.10727188, -0.23978873, 0.15299171, 0.2899456
827, 923877131, 0.5914956, 0.05227857, -0.79768693, -0.105336145, -0.35586065, 0.06085561, 0.21779823
828, 923893798, 0.5916128, 0.052825775, -0.7978388, -0.10323299, -0.25768673, 0.4693048, 0.059726715
829, 923910465, 0.5914266, 0.05268812, -0.798249, -0.10117888, -0.50402886, 1.3136975, -0.07123375
830, 923927132, 0.59103817, 0.05150706, -0.7987661, -0.09996832, -0.3615845, 1.2340467, -0.1641779
831, 923943799, 0.5909157, 0.04984012, -0.7990524, -0.09924734, -0.14096113, 0.369364, 0.13814926
832, 923960466, 0.590801, 0.048250798, -0.7993805, -0.098068, 0.08074182, -0.28599367, 0.11308861
833, 923977133, 0.5903959, 0.04659419, -0.7999082, -0.09699803, -0.14015514, -0.2650032, 0.09342384
834, 923993800, 0.58971584, 0.044735476, -0.80061734, -0.096156456, -0.5815065, 0.23475462, 0.03109169
835, 924010467, 0.5888744, 0.04225952, -0.80141973, -0.09574917, -0.5437489, 0.41699728, -0.124261856
836, 924027134, 0.58790296, 0.039283708, -0.8022781, -0.09579736, -0.58337957, 0.025464524, 0.08502865
837, 924043801, 0.58682126, 0.03677203, -0.80321854, -0.09554473, -0.41667554, -0.593966, 0.017546654
838, 924060468, 0.5859738, 0.035013597, -0.80400014, -0.09483118, -0.21896313, -0.71709764, 0.12935734
839, 924077135, 0.58504814, 0.03374801, -0.8049328, -0.09307574, -0.25019503, 0.47284055, -0.15982151
840, 924093802, 0.5833931, 0.03143717, -0.80635965, -0.09191634, -0.62718093, 1.4743862, -0.47940254
841, 924110469, 0.5813602, 0.028104872, -0.80793, -0.09208526, -0.99085754, 0.32206905, 0.015708923
842, 924127136, 0.57941407, 0.025468977, -0.8095192, -0.09115715, -1.0636642, -0.71309406, -0.1287651
843, 924143803, 0.57752144, 0.023616388, -0.8111329, -0.089301504, -0.9527074, -0.80629325, -0.297431
844, 924160470, 0.5760625, 0.02256681, -0.8124418, -0.087071516, -0.44732675, -0.5896002, 0.08930588
845, 924177137, 0.5747126, 0.021494642, -0.8136795, -0.084671095, 0.14052565, 0.9463632, 0.13792324
846, 924193804, 0.5726395, 0.018978659, -0.8153934, -0.082810074, 0.5720751, 2.112041, -0.5102091
847, 924210471, 0.57009834, 0.014825534, -0.8173222, -0.08217417, 0.17141119, 1.6500933, -0.4111967
848, 924227138, 0.5681287, 0.011086217, -0.8188286, -0.0814069, -0.033083048, -0.4508097, 0.12895012
849, 924243805, 0.5671914, 0.009115462, -0.81974816, -0.078891955, 0.28229374, -1.5339938, 0.5869684
850, 924260472, 0.56681746, 0.008355276, -0.8203423, -0.07541324, 0.8698409, -0.55717486, 0.5339937
851, 924277139, 0.56612855, 0.0069475514, -0.821117, -0.07223311, 1.0266106, 1.1735408, 0.034184456
852, 924293806, 0.56480724, 0.0037596105, -0.8221892, -0.07059714, 0.6063276, 1.207634, -0.33794117
853, 924310473, 0.5638139, -1.2102048E-4, -0.8229148, -0.07018181, -0.17396908, -0.9363437, 0.53689766
854, 924327140, 0.56386644, -0.0021030346, -0.82300156, -0.068694465, -0.018612819, -2.8362746, 1.2451
855, 924343807, 0.5646181, -0.0019285775, -0.82274306, -0.06555056, 0.7898845, -1.7792336, 0.77635956
856, 924360474, 0.56534445, -0.0017576724, -0.8224094, -0.0634481, 1.2417088, -0.16272244, 0.65836716
857, 924377141, 0.5656405, -0.0024485106, -0.8222957, -0.06224943, 1.31551, 0.23943295, 0.27813244
858, 924393808, 0.5655986, -0.0039846986, -0.8223579, -0.061726913, 0.69816774, -0.10395939, 0.068798065
859, 924410475, 0.5658617, -0.0050137546, -0.8221877, -0.06150461, -0.186539, -1.3533843, 0.6160345
860, 924427142, 0.5667002, -0.004238301, -0.8217062, -0.06026613, -0.55084324, -1.7294693, 0.8179674
861, 924443809, 0.56781167, -0.0023417105, -0.8210656, -0.058619756, -0.3170509, -1.0181252, 0.4732399
862, 924460476, 0.56884617, -5.0900306E-4, -0.82045037, -0.05722897, 0.09771454, -0.22687209, 0.17223358
863, 924477143, 0.5693026, 7.178672E-4, -0.82020533, -0.05618883, 0.46630123, 0.21671675, -0.13152981
864, 924493810, 0.56915134, 0.001217897, -0.8203111, -0.05617008, 0.24803948, 0.17394572, 0.06397438
865, 924510477, 0.5688902, 0.0020079638, -0.8204448, -0.05683735, 0.02462174, -0.628547, 0.56605816
866, 924527144, 0.5691289, 0.0038942546, -0.82028836, -0.056608833, 0.41169387, -0.8984361, 0.7875309
867, 924543811, 0.56998986, 0.0059659826, -0.81970274, -0.05624677, 1.0301716, 0.12305548, 0.72796154
868, 924560478, 0.5709903, 0.0071485816, -0.81894183, -0.057040453, 1.7365748, 0.19006321, 0.30212116
869, 924577145, 0.5715044, 0.0072526447, -0.8184973, -0.058243874, 1.5889782, 0.33271652, -0.29459286
870, 924593812, 0.5717613, 0.0066674897, -0.81819326, -0.06003813, 0.6707843, 0.58520424, 0.052817345
871, 924610479, 0.572143, 0.0060737887, -0.8178092, -0.061674286, -0.21521392, 0.56339383, 0.15324402
872, 924627146, 0.57256436, 0.005241764, -0.81738335, -0.06346085, -0.69150794, 0.5699499, 0.08982086
873, 924643813, 0.57298476, 0.0041111587, -0.8169435, -0.06538529, -1.1198862, 0.85856503, -0.17438316
874, 924660480, 0.5735913, 0.00268466, -0.816362, -0.06737295, -1.0665994, 0.97532964, -0.20052242
875, 924677147, 0.5742498, 9.586242E-4, -0.81577617, -0.06888807, -0.5797184, 0.7995519, -0.36546707
876, 924693814, 0.5743034, -0.0013953554, -0.81565595, -0.06985241, -0.42654318, 0.6427307, -0.647542
877, 924710481, 0.57368606, -0.004292742, -0.8159511, -0.07134381, -1.0683628, 0.42679435, -0.18550968
878, 924727148, 0.5730358, -0.0063493205, -0.81630415, -0.07236886, -1.2955682, -0.23062402, 0.18671894
879, 924743815, 0.57260495, -0.0074250563, -0.8166056, -0.072275504, -0.82889295, -0.24733196, 0.022130966
880, 924760482, 0.57207054, -0.008458856, -0.8169861, -0.07209335, -0.38748026, -0.12030933, -0.008563042
881, 924777149, 0.571396, -0.009538337, -0.8174456, -0.07210127, 0.04436285, -0.30315757, 0.1479187
882, 924793816, 0.57076555, -0.010455091, -0.817879, -0.07205236, 0.3648514, -0.43061113, 0.15389538
883, 924810483, 0.57019556, -0.011251259, -0.8182768, -0.07192899, 0.4454895, -0.55316204, 0.19450665
884, 924827150, 0.56976366, -0.011799889, -0.81859, -0.07169887, 0.397305, -0.51583815, 0.30108833
885, 924843817, 0.5694745, -0.012063251, -0.8188054, -0.071491, 0.315489, -0.4270417, 0.3973198
886, 924860484, 0.5693545, -0.012029408, -0.8189157, -0.071191184, 0.33313355, -0.3936402, 0.3661585
887, 924877151, 0.5693311, -0.011931675, -0.8189553, -0.07093703, 0.30224675, -0.21496184, 0.26646233
888, 924893818, 0.56930584, -0.012031854, -0.8189664, -0.070994034, 0.19327389, -0.17308879, 0.22539902
889, 924910485, 0.5693354, -0.01218172, -0.8189302, -0.07114961, 0.052423175, -0.22558562, 0.18833256
890, 924927152, 0.5694673, -0.012221103, -0.8188351, -0.07118192, -0.10188302, -0.23650202, 0.17373943
891, 924943819, 0.5696462, -0.012043171, -0.81872445, -0.07105271, -0.20750496, -0.20611748, 0.14709663
892, 924960486, 0.5698244, -0.01163642, -0.8186327, -0.070747904, -0.21714462, -0.1025557, 0.07714653
893, 924977153, 0.569966, -0.01112948, -0.81856287, -0.07049685, -0.21057335, 0.034744326, 0.076901436
894, 924993820, 0.5700511, -0.010685482, -0.81852084, -0.07036685, -0.16819842, 0.04395184, 0.14774418
895, 925010487, 0.57008654, -0.010393885, -0.81850153, -0.070346214, -0.0997364, -0.045508083, 0.18314362
896, 925027154, 0.57012045, -0.010083725, -0.8184841, -0.07031968, 0.009132292, -0.15962161, 0.14029026
897, 925043821, 0.5701646, -0.009629901, -0.8184714, -0.070174195, 0.02091089, -0.14657982, 0.067308426
898, 925060488, 0.5702139, -0.009045481, -0.8184666, -0.06990671, -0.009624021, 0.014866999, 0.0766201
899, 925077155, 0.5701812, -0.00852236, -0.8185049, -0.06979181, -0.0871334, 0.12611936, 0.13422775
900, 925093822, 0.57012206, -0.008049904, -0.8185489, -0.06981274, -0.05504096, 0.09586782, 0.14477158
901, 925110489, 0.57008576, -0.0076319026, -0.8185792, -0.06980086, 0.003726408, 0.12420321, 0.12158775
902, 925127156, 0.57001567, -0.0074041095, -0.81862247, -0.069891386, 0.14341396, 0.129414, 0.09625244
903, 925143823, 0.56992376, -0.0072811656, -0.81868136, -0.06996403, 0.1876065, 0.07872699, 0.025727272
904, 925160490, 0.5698418, -0.0071714185, -0.8187374, -0.06998646, 0.16778626, 0.13090985, 0.061250687
905, 925177157, 0.56977093, -0.0070494777, -0.81878054, -0.07007107, 0.10325762, 0.1663688, 0.13635921
906, 925193824, 0.5697517, -0.0068354774, -0.81879145, -0.070121266, 0.070390485, 0.13923334, 0.16640091
907, 925210491, 0.5697808, -0.0065348693, -0.81878006, -0.07004592, 0.15160124, 0.119468264, 0.1705904
908, 925227158, 0.56984663, -0.006285168, -0.8187462, -0.06993031, 0.2543877, 0.14785859, 0.09962273
909, 925243825, 0.5699486, -0.006243012, -0.81868225, -0.06985227, 0.22854647, 0.20953137, 0.071751595
910, 925260492, 0.5700681, -0.006423328, -0.81859845, -0.069841094, 0.15940943, 0.24975762, 0.091529846
911, 925277159, 0.57020944, -0.006761057, -0.81849253, -0.06989735, 0.13745466, 0.24820253, 0.13757992
912, 925293826, 0.5703435, -0.0072814045, -0.81838065, -0.070062354, 0.11511856, 0.14117284, 0.14881897
913, 925310493, 0.57050467, -0.007783748, -0.81825846, -0.07012191, 0.086157985, 0.036436718, 0.119418144
914, 925327160, 0.57069343, -0.0082120085, -0.81813043, -0.07003102, 0.021510389, 0.05936867, 0.07464695
915, 925343827, 0.5708629, -0.008637679, -0.81801784, -0.06991499, -0.054336894, 0.06563124, 0.08382797
916, 925360494, 0.57102257, -0.009053544, -0.817912, -0.069796234, -0.13523026, 0.028780146, 0.1227808
917, 925377161, 0.5711718, -0.009441547, -0.81781965, -0.06960596, -0.19138297, 0.025114398, 0.10088539
918, 925393828, 0.5712701, -0.009911577, -0.8177586, -0.069449276, -0.21356842, 0.0050717117, 0.064985275
919, 925410495, 0.5712579, -0.010462593, -0.81776655, -0.06937641, -0.25455755, -0.05321859, 0.09611988
920, 925427162, 0.5711965, -0.010984201, -0.81781375, -0.06924414, -0.25819278, -0.09103586, 0.08711624
921, 925443829, 0.5710772, -0.011439115, -0.81790525, -0.069073476, -0.25631437, -0.1242031, 0.07470894
922, 925460496, 0.57089067, -0.01175491, -0.818043, -0.06893101, -0.28739518, -0.20004794, 0.09831047
923, 925477163, 0.5706853, -0.011794125, -0.8182072, -0.06867476, -0.28547344, -0.25787264, 0.14216328
924, 925493830, 0.5704509, -0.011655811, -0.81840146, -0.06833268, -0.23086654, -0.1667395, 0.13220692
925, 925510497, 0.5701848, -0.011531756, -0.8186136, -0.06803105, -0.16437814, -0.09877797, 0.10709858
926, 925527164, 0.56984425, -0.011520221, -0.8188646, -0.067866646, -0.11473278, -0.07628043, 0.12552834
927, 925543831, 0.56945306, -0.01150623, -0.8191475, -0.067737296, -0.07868505, -0.072581165, 0.14497662
928, 925560498, 0.56905717, -0.01144292, -0.81943274, -0.067625664, -0.03750145, -0.06175674, 0.14323044
929, 925577165, 0.5686884, -0.011335244, -0.81970114, -0.067492835, 0.007726396, -0.062420763, 0.13615131
930, 925593832, 0.5683341, -0.011242579, -0.8199574, -0.067380875, 0.07289607, -0.036026593, 0.16457844
931, 925610499, 0.56800276, -0.0112177115, -0.8201874, -0.06737931, 0.13701987, -0.018251136, 0.19135475
932, 925627166, 0.56768805, -0.011266393, -0.8204001, -0.0674328, 0.1681403, -0.052218787, 0.18237019
933, 925643833, 0.56742686, -0.011290407, -0.8205819, -0.067414075, 0.18252961, -0.036249388, 0.14865017
934, 925660500, 0.5672359, -0.011192028, -0.8207288, -0.06725098, 0.2018036, 0.019180855, 0.13920212
935, 925677167, 0.56709146, -0.011056067, -0.82084, -0.06713316, 0.211513, 0.044318344, 0.1794157
936, 925693834, 0.56699115, -0.010885477, -0.8209185, -0.06704856, 0.24439175, 0.034829915, 0.15272427
937, 925710501, 0.56694, -0.010706412, -0.820963, -0.06696477, 0.24103637, 0.0638089, 0.11617088
938, 925727168, 0.56691253, -0.010694953, -0.8209813, -0.06697464, 0.18182063, 0.12653205, 0.13393688
939, 925743835, 0.56688774, -0.010851018, -0.8209875, -0.067082494, 0.1366889, 0.13409317, 0.16021252
940, 925760502, 0.5668888, -0.011039458, -0.8209777, -0.06716383, 0.11024151, 0.11715831, 0.12074947
941, 925777169, 0.56690425, -0.011187002, -0.8209575, -0.0672559, 0.08236989, 0.08771277, 0.1338396
942, 925793836, 0.5669299, -0.011277828, -0.8209324, -0.067331746, 0.09351558, 0.018586457, 0.14575768
943, 925810503, 0.5670114, -0.011254743, -0.82087827, -0.067309685, 0.031450953, -0.039712757, 0.15098286
944, 925827170, 0.5671382, -0.0111564575, -0.8208017, -0.0671917, 0.025478242, -0.06694, 0.11859989
945, 925843837, 0.567293, -0.011052153, -0.82070655, -0.06706386, 0.032183185, -0.07070154, 0.12800884
946, 925860504, 0.56742793, -0.011004646, -0.82061994, -0.066990115, -0.0045543, -0.046611015, 0.14317513
947, 925877171, 0.56753695, -0.010971215, -0.8205469, -0.06696722, -0.029453643, -0.038626615, 0.14402485
948, 925893838, 0.56766117, -0.010887866, -0.8204645, -0.06693892, -0.05130695, -0.02270279, 0.14896965
949, 925910505, 0.56778586, -0.010758396, -0.82038134, -0.06691928, -0.05480285, -0.041913964, 0.13873672
950, 925927172, 0.56790984, -0.01058103, -0.8203014, -0.06687492, -0.040889908, -0.010751071, 0.11125755
951, 925943839, 0.568025, -0.010429421, -0.8202282, -0.06681861, -0.0696006, 0.016051283, 0.11093521
952, 925960506, 0.56811285, -0.010340713, -0.82017267, -0.066766344, -0.08974135, 0.043285012, 0.10111427
953, 925977173, 0.56818056, -0.010366741, -0.820124, -0.0667853, -0.09384281, 0.04000823, 0.11481571
954, 925993840, 0.5681783, -0.010442397, -0.82011825, -0.066862434, -0.13523875, -0.032235693, 0.115343094
955, 926010507, 0.5681607, -0.010458411, -0.8201248, -0.06692885, -0.15390298, -0.03898383, 0.10884762
956, 926027174, 0.56809056, -0.010442024, -0.8201685, -0.0669933, -0.16438082, -0.011180586, 0.12027931
957, 926043841, 0.5679988, -0.010417721, -0.8202292, -0.06702983, -0.12819406, 0.0133084785, 0.099764824
958, 926060508, 0.5678699, -0.010480799, -0.8203107, -0.067115314, -0.093258545, 0.017065788, 0.10383415
959, 926077175, 0.56772155, -0.010556817, -0.8204074, -0.06717662, -0.0608067, -0.018559782, 0.11199951
960, 926093842, 0.56758755, -0.01057167, -0.82050407, -0.06712634, -0.023126438, -0.01684942, 0.10895729
961, 926110509, 0.5674558, -0.010588416, -0.8205983, -0.06708542, 0.03774508, 0.03278541, 0.14017773
962, 926127176, 0.5673088, -0.010633897, -0.82069534, -0.06713454, 0.055031125, 0.014276436, 0.14511776
963, 926143843, 0.5671978, -0.010642218, -0.8207718, -0.06713635, 0.108490504, 0.03538507, 0.15058231
964, 926160510, 0.5671252, -0.010682643, -0.8208208, -0.0671433, 0.14494011, 0.0691192, 0.16097546
965, 926177177, 0.5670717, -0.010842544, -0.8208478, -0.06724008, 0.16238841, 0.08086977, 0.14115524
966, 926193844, 0.567055, -0.011064975, -0.82084584, -0.067369275, 0.15896927, 0.05157409, 0.13810062
967, 926210511, 0.56709975, -0.011270662, -0.82080567, -0.06744781, 0.18806782, 0.06762757, 0.15371418
968, 926227178, 0.567195, -0.011516684, -0.82072777, -0.067553595, 0.21692245, 0.05655136, 0.1696682
969, 926243845, 0.5673428, -0.011788051, -0.82061076, -0.06768585, 0.19846922, 0.012175721, 0.18855858
970, 926260512, 0.5675429, -0.012003495, -0.82046103, -0.06778492, 0.16934638, -0.03757391, 0.16067028
971, 926277179, 0.56773406, -0.0122817485, -0.8203109, -0.06795177, 0.10124601, -0.022755455, 0.12953949
972, 926293846, 0.56793267, -0.012543058, -0.82015294, -0.06814966, 0.0013401837, -0.05806748, 0.16741371
973, 926310513, 0.56817657, -0.012684329, -0.81997687, -0.068210304, -0.05967617, -0.062474433, 0.14783859
974, 926327180, 0.5684244, -0.012750316, -0.81980413, -0.068209365, -0.07278968, -0.004482322, 0.0922842
975, 926343847, 0.5686291, -0.012855538, -0.81965387, -0.06829033, -0.10481595, -0.0010453003, 0.10062313
976, 926360514, 0.56880426, -0.01291111, -0.8195279, -0.06833349, -0.1268959, -0.009787073, 0.110816956
977, 926377181, 0.5689391, -0.012987281, -0.8194318, -0.06834732, -0.11873813, 0.049152076, 0.08835983
978, 926393848, 0.56900644, -0.013151726, -0.81937605, -0.06842312, -0.124359034, 0.063971646, 0.095191956
979, 926410515, 0.5690472, -0.013341932, -0.8193397, -0.06848309, -0.11835279, 0.03574086, 0.1026907
980, 926427182, 0.56905097, -0.013543369, -0.8193292, -0.06853823, -0.09224201, 0.031518217, 0.10913372
981, 926443849, 0.56903017, -0.0137551995, -0.8193329, -0.06862565, -0.07779637, 0.009279441, 0.12857819
982, 926460516, 0.56901014, -0.01396895, -0.81933606, -0.068709224, -0.060954217, -0.009399481, 0.12674999
983, 926477183, 0.568997, -0.014173812, -0.8193383, -0.06874831, -0.024469752, -0.02031021, 0.11566925
984, 926493850, 0.5689772, -0.014431322, -0.81934124, -0.068825416, 0.005747757, -0.023131032, 0.1285057
985, 926510517, 0.5689284, -0.014751687, -0.81935585, -0.068987116, 0.054268498, -0.01812359, 0.1522255
986, 926527184, 0.56889445, -0.015085863, -0.8193561, -0.06919143, 0.053982403, -0.042649087, 0.16370296
987, 926543851, 0.56888634, -0.015381629, -0.81934035, -0.069378555, 0.06582144, -0.053452104, 0.15445805
988, 926560518, 0.5688968, -0.015606699, -0.8193157, -0.06953496, 0.07082857, -0.033597525, 0.1317606
989, 926577185, 0.56891227, -0.015788905, -0.81928885, -0.06968079, 0.047266286, -0.0040730275, 0.123381615
990, 926593852, 0.56895185, -0.015921745, -0.81924886, -0.06979763, 0.030575678, 0.011772448, 0.13964558
991, 926610519, 0.5690096, -0.01603146, -0.81920105, -0.06986285, 0.029432634, 0.029480988, 0.13907146
992, 926627186, 0.5690818, -0.016176973, -0.81914407, -0.06990951, 0.04918626, 0.07788157, 0.13395786
993, 926643853, 0.56914186, -0.016405603, -0.8190891, -0.07001108, 0.041741043, 0.07536942, 0.12359333
994, 926660520, 0.5692007, -0.016695831, -0.81903034, -0.07015212, 0.027305236, 0.033091832, 0.10804558
995, 926677187, 0.5692719, -0.01696069, -0.8189661, -0.070260905, -0.021124657, -0.003063287, 0.12809181
996, 926693854, 0.56934196, -0.017187662, -0.8189061, -0.07033688, -0.025660181, 0.0060520745, 0.12695217
997, 926710521, 0.56938887, -0.017450586, -0.8188589, -0.07044106, -0.049222916, 0.0074543455, 0.1122036
998, 926727188, 0.56941086, -0.017721027, -0.81882674, -0.07057079, -0.060369506, -0.007618299, 0.13074303
999, 926743855, 0.5694168, -0.017965352, -0.8188085, -0.07067372, -0.101118155, -0.024473984, 0.12065315
1000, 926760522, 0.56943065, -0.01818585, -0.8187867, -0.07075798, -0.06798996, -0.05606038, 0.1211195
1001, 926777189, 0.56942827, -0.01839085, -0.8187761, -0.07084689, -0.03975908, -0.056249037, 0.12838459
1002, 926793856, 0.56940705, -0.018520433, -0.8187822, -0.07091245, -0.05601369, -0.07938808, 0.12779999
1003, 926810523, 0.5694134, -0.018509021, -0.81878066, -0.07088199, -0.05671239, -0.06674014, 0.12238598
1004, 926827190, 0.5694202, -0.018452603, -0.8187802, -0.07084775, -0.047429003, -0.037867676, 0.13129044
1005, 926843857, 0.5694028, -0.01840241, -0.8187935, -0.07084669, -0.040336043, -0.028547864, 0.13419533
1006, 926860524, 0.5693802, -0.018327337, -0.8188118, -0.07083605, -0.008937836, -0.043648154, 0.13756943
1007, 926877191, 0.56934947, -0.018262077, -0.81883574, -0.07082315, 0.0028336972, -0.019731661, 0.117733955
1008, 926893858, 0.5693163, -0.01820956, -0.8188569, -0.07085823, 0.017829182, -0.005934339, 0.12758732
1009, 926910525, 0.5692819, -0.018162567, -0.8188789, -0.070893504, -0.0026267243, -0.014107809, 0.13792706
1010, 926927192, 0.56924886, -0.018102366, -0.818901, -0.07091811, 0.0022972662, 0.008183291, 0.14633751
1011, 926943859, 0.5692211, -0.018051757, -0.8189175, -0.07096397, 0.02224401, 0.024536477, 0.12818432
1012, 926960526, 0.56920105, -0.018026287, -0.81892717, -0.07101716, 0.052542083, 0.020972723, 0.12301731
1013, 926977193, 0.5691982, -0.01802804, -0.81892484, -0.07106821, 0.030328473, 0.034223303, 0.110253334
1014, 926993860, 0.56919885, -0.01801629, -0.8189218, -0.07110139, 0.02310811, 0.029155092, 0.12889957
1015, 927010527, 0.56920916, -0.018006189, -0.818913, -0.07112376, 0.02295344, 0.025325779, 0.13832378
1016, 927027194, 0.5692299, -0.017977955, -0.81890035, -0.07110752, 0.020586437, 0.02757772, 0.12681484
1017, 927043861, 0.5692582, -0.017964551, -0.8188828, -0.07108708, 0.015012918, 0.059480913, 0.13066101
1018, 927060528, 0.5692797, -0.01798075, -0.8188664, -0.07110001, -1.5646845E-5, 0.025972338, 0.12772083
1019, 927077195, 0.56929094, -0.018023176, -0.8188548, -0.07113183, 0.0021291843, 0.0076094917, 0.115719795
1020, 927093862, 0.5692946, -0.018070221, -0.81884736, -0.071178004, 0.0047666375, -0.010302683, 0.11859226
1021, 927110529, 0.56929797, -0.018115612, -0.81883997, -0.071224734, -0.016484527, -0.0054731336, 0.120471954
1022, 927127196, 0.56930435, -0.018157827, -0.81883353, -0.07123762, -0.005867215, 0.0049755103, 0.13854122
1023, 927143863, 0.5693262, -0.018189088, -0.81881803, -0.07123268, -0.010151511, -0.0061812997, 0.13768196
1024, 927160530, 0.56935394, -0.018187633, -0.818802, -0.07119518, -0.006673203, 0.003452458, 0.1294241
1025, 927177197, 0.56938565, -0.018177932, -0.8187826, -0.071167015, -0.020961491, -0.008872186, 0.1278429
1026, 927193864, 0.5694078, -0.018167198, -0.81876975, -0.07114004, -0.018071916, 0.0131592695, 0.12464905
1027, 927210531, 0.5694129, -0.018185133, -0.81876713, -0.0711265, -0.014672731, -7.4813276E-4, 0.11172676
1028, 927227198, 0.5694141, -0.018200237, -0.818765, -0.071137466, -0.02639241, -0.006828216, 0.122740746
1029, 927243865, 0.5694249, -0.01819522, -0.8187605, -0.07110321, -0.0070174127, 0.0018344756, 0.13027
1030, 927260532, 0.56945276, -0.018169338, -0.8187448, -0.07106793, 0.0040017758, 0.004080753, 0.11967182
1031, 927277199, 0.56948054, -0.018120272, -0.81872874, -0.07104321, 0.004762167, 0.012252429, 0.12875175
1032, 927293866, 0.5695012, -0.018080343, -0.81871694, -0.071023665, 0.030932404, 3.2545583E-4, 0.12042999
1033, 927310533, 0.56953835, -0.018054223, -0.8186953, -0.070980236, 0.024590448, -0.0023389163, 0.14843464
1034, 927327200, 0.56958055, -0.018036135, -0.81866944, -0.07094478, 0.018730385, 0.025299858, 0.1419506
1035, 927343867, 0.56964433, -0.01796798, -0.81863165, -0.07088582, -0.0133683095, 0.006660623, 0.1286354
1036, 927360534, 0.5697141, -0.017846575, -0.81859505, -0.070778154, -0.01776811, 0.0028354737, 0.07922554
1037, 927377201, 0.5697655, -0.01771996, -0.81857145, -0.07066984, 0.0063804006, 1.2846407E-4, 0.06580162
1038, 927393868, 0.56980926, -0.01758688, -0.81855345, -0.07055919, -0.049164806, 0.011467214, 0.17407131
1039, 927410535, 0.5698396, -0.017349022, -0.8185444, -0.07047797, -0.06831316, -0.019017844, 0.15075016
1040, 927427202, 0.56985617, -0.017042272, -0.81853807, -0.0704935, 0.017307056, -0.020764325, 0.053970337
1041, 927443869, 0.56979924, -0.016918741, -0.8185537, -0.070799336, 0.057554588, -0.010262108, 0.101742744
1042, 927460536, 0.5696976, -0.016917236, -0.81858045, -0.07130648, 0.018112596, -0.05356872, 0.16143608
1043, 927477203, 0.5696416, -0.01684698, -0.8185862, -0.07170515, 0.0031349927, -0.10720625, 0.17858028
1044, 927493870, 0.56964505, -0.016676875, -0.8185669, -0.07193688, 0.030197494, -0.11504106, 0.15561676
1045, 927510537, 0.5696961, -0.016460657, -0.818526, -0.07204868, 0.10317403, -0.1395239, 0.15979767
1046, 927527204, 0.56980103, -0.016129993, -0.8184562, -0.07208751, 0.12544933, -0.11254624, 0.22925568
1047, 927543871, 0.56995934, -0.015748354, -0.8183519, -0.072100826, 0.11970549, -0.024407685, 0.2597208
1048, 927560538, 0.57012993, -0.015367807, -0.818231, -0.07220993, 0.121020645, -0.07956429, 0.17116642
1049, 927577205, 0.57033503, -0.014884616, -0.8180982, -0.072193794, 0.079439186, -0.14698347, 0.120594025
1050, 927593872, 0.5705629, -0.0142688155, -0.81797034, -0.07196656, -0.035920322, -0.018484123, 0.13307858
1051, 927610539, 0.57080233, -0.0135587, -0.8178333, -0.071762204, -0.13793387, 0.011017812, 0.20178413
1052, 927627206, 0.57105803, -0.012803544, -0.8176914, -0.07148328, -0.1303295, -0.0217095, 0.10714531
1053, 927643873, 0.57128584, -0.012138041, -0.8175705, -0.071160845, -0.12295559, 0.1412194, 0.020500183
1054, 927660540, 0.57139695, -0.011741531, -0.8175014, -0.07112961, -0.1325396, 0.119957194, 0.090518
1055, 927677207, 0.5714511, -0.011442337, -0.81746835, -0.07112095, -0.121300034, 0.010395126, 0.13347721
1056, 927693874, 0.5715125, -0.011139595, -0.8174414, -0.07098731, -0.084706046, 0.033130955, 0.13413525
1057, 927710541, 0.57157445, -0.0108051365, -0.8174181, -0.070806816, -0.036250673, 0.046414256, 0.09266949
1058, 927727208, 0.5716189, -0.010399652, -0.8174134, -0.07056292, -0.013159996, 0.05498841, 0.03992462
1059, 927743875, 0.57161283, -0.01000406, -0.817447, -0.07027966, -0.08936942, 0.13432452, 0.10447788
1060, 927760542, 0.5715488, -0.009732623, -0.8175099, -0.07010555, -0.17463604, 0.15703118, 0.16759014
1061, 927777209, 0.57146114, -0.009620055, -0.8175823, -0.06999308, -0.13341041, 0.09808985, 0.08150387
1062, 927793876, 0.5713813, -0.00961099, -0.817653, -0.06982056, -0.09622054, 0.103579186, -0.019451141
1063, 927810543, 0.5712804, -0.009670494, -0.8177354, -0.06967329, -0.038589064, 0.07975786, 0.067029
1064, 927827210, 0.5711599, -0.009719085, -0.8178364, -0.06946727, -0.04294712, 0.11296371, 0.07877731
1065, 927843877, 0.5710762, -0.009716605, -0.8179192, -0.06918051, -0.047170173, 0.058454126, 0.11582661
1066, 927860544, 0.5710502, -0.009469507, -0.81798893, -0.06860278, -0.016351314, -0.08852311, 0.06230545
1067, 927877211, 0.5709994, -0.009139832, -0.8180833, -0.06794238, 0.04971107, -0.034946263, 0.11078739
1068, 927893878, 0.57095194, -0.008752953, -0.81817275, -0.067313224, 0.03121403, -0.012673723, 0.14380741
1069, 927910545, 0.5708962, -0.008404763, -0.81826717, -0.06667834, -0.02641655, 0.024857525, 0.12889004
1070, 927927212, 0.57081294, -0.0080352, -0.8183779, -0.06607525, -0.06009059, -0.006009831, 0.08021736
1071, 927943879, 0.5707106, -0.0076508606, -0.81848985, -0.06561573, -0.02301334, -0.05884512, 0.1006403
1072, 927960546, 0.5705777, -0.007198074, -0.8186114, -0.06530782, -0.021360686, -0.29055327, 0.17908096
1073, 927977213, 0.5703558, -0.006514125, -0.81878406, -0.06515109, 0.11020217, -0.5983099, 0.14452457
1074, 927993880, 0.57017255, -0.005372308, -0.81895393, -0.064722896, -0.034737043, -0.6439259, 0.19957542
1075, 928010547, 0.57014, -0.0038279812, -0.81906253, -0.063737996, -0.031345904, -0.24752392, 0.29794884
1076, 928027214, 0.57012546, -0.0023032008, -0.8191382, -0.06296439, 0.104522705, -0.091834314, 0.22868252
1077, 928043881, 0.57012767, -8.71788E-4, -0.8191845, -0.06237584, 0.21970385, -0.32257995, 0.113036156
1078, 928060548, 0.57024693, 7.511705E-4, -0.8191568, -0.061645925, 0.21270476, -0.36305782, 0.22413635
1079, 928077215, 0.5705061, 0.0025337217, -0.81904525, -0.06067443, 0.20439276, -0.2070774, 0.35653877
1080, 928093882, 0.57086676, 0.0044334144, -0.8188721, -0.059500046, 0.24455714, -0.2868434, 0.2746296
1081, 928110549, 0.57123566, 0.0065558148, -0.8187048, -0.0580476, 0.21749063, -0.11916048, 0.11716938
1082, 928127216, 0.5716021, 0.00889926, -0.8185434, -0.05638282, 0.1403487, 0.19030568, -0.014288902
1083, 928143883, 0.57193494, 0.010870447, -0.8183915, -0.054842096, -0.01227712, 0.8817329, -0.18859196
1084, 928160550, 0.57214284, 0.011996863, -0.8183041, -0.05373263, -0.32635617, 0.97428954, -0.4467144
1085, 928177217, 0.57226783, 0.012443647, -0.81828547, -0.05257085, -0.95028186, 1.005972, -0.3627596
1086, 928193884, 0.57221884, 0.012459583, -0.81836754, -0.051818114, -1.3049732, 1.0975409, -0.46282387
1087, 928210551, 0.5718317, 0.012320332, -0.8186931, -0.050974652, -1.7193546, 0.96355945, -0.6956806
1088, 928227218, 0.5708439, 0.011619093, -0.8194891, -0.04939745, -1.7205123, 1.9454252, -0.92373085
1089, 928243885, 0.569369, 0.009262911, -0.82056844, -0.048997223, -1.4829736, 2.1402624, -0.4295931
1090, 928260552, 0.56726795, 0.005875834, -0.82199126, -0.05003252, -1.6676985, -0.16557534, 0.17185688
1091, 928277219, 0.5650853, 0.004088155, -0.8235417, -0.049409088, -1.3554518, -1.4450015, -0.056138992
1092, 928293886, 0.5629237, 0.0032683178, -0.8251136, -0.0478958, -0.9068609, -0.3308101, 0.15532494
1093, 928310553, 0.5602795, 0.0020685256, -0.82694733, -0.047340408, -0.51038736, -0.0029996478, 0.2587347
1094, 928327220, 0.5573031, 6.784209E-4, -0.8289866, -0.04684328, 0.0710731, -0.10885305, -0.09349918
1095, 928343887, 0.55427074, -3.6625203E-4, -0.83106524, -0.045987066, 0.30228922, -0.5269317, 0.14545536
1096, 928360554, 0.55134803, -6.403738E-4, -0.83308184, -0.044609502, 0.40787137, -0.5177412, 0.5569477
1097, 928377221, 0.54843724, -8.8154E-4, -0.8350514, -0.043650415, 0.71434027, -0.28752905, 0.6345997
1098, 928393888, 0.54556334, -0.0014492371, -0.83693904, -0.043496847, 0.8338571, -0.31560448, 0.5336132
1099, 928410555, 0.5429134, -0.0022520835, -0.8386327, -0.043998472, 1.0737393, -0.5944283, 0.66539097
1100, 928427222, 0.54062116, -0.0029766383, -0.84007317, -0.044688717, 1.4916401, -0.7373343, 0.7292471
1101, 928443889, 0.538678, -0.0033752602, -0.8412755, -0.045500387, 1.8538541, -0.67669696, 0.81713676
1102, 928460556, 0.5370201, -0.003449132, -0.84227455, -0.046598423, 1.818934, -0.66524625, 0.97034264
1103, 928477223, 0.5357206, -0.0032632498, -0.84302294, -0.04801706, 1.703932, -0.7297505, 0.97080135
1104, 928493890, 0.53499657, -0.0030250698, -0.84339696, -0.049510024, 1.6477038, -0.39266017, 0.90370655
1105, 928510557, 0.5346085, -0.0030686883, -0.84351546, -0.0516374, 1.5613372, -0.145243, 0.8815632
1106, 928527224, 0.5344947, -0.0033983632, -0.8434107, -0.05442887, 1.3967253, -0.34011164, 0.71225166
1107, 928543891, 0.5347593, -0.0039578313, -0.8430232, -0.05769678, 1.1529307, -0.29925087, 0.64793396
1108, 928560558, 0.5353454, -0.0046771048, -0.8423849, -0.061411858, 0.86660355, -0.34592813, 0.7534504
1109, 928577225, 0.53610903, -0.005192836, -0.8416004, -0.065337636, 0.90849566, -0.6705277, 0.57400894
1110, 928593892, 0.5370532, -0.0053561633, -0.84070414, -0.06900689, 1.0791514, -0.53698397, 0.09949684
1111, 928610559, 0.53824335, -0.0056477566, -0.83959264, -0.07312014, 0.80674005, -0.21824643, 0.3000784
1112, 928627226, 0.53975296, -0.005967518, -0.83822775, -0.077495135, 0.53254914, -0.40426418, 0.6564007
1113, 928643893, 0.5415328, -0.00609044, -0.8366691, -0.08179376, 0.546697, -0.69211197, 0.59740734
1114, 928660560, 0.5436171, -0.0059046797, -0.8348605, -0.08633554, 0.5311875, -1.0806038, 0.61355305
1115, 928677227, 0.54610705, -0.0051651825, -0.8327859, -0.09060017, 0.5386139, -1.2157161, 0.5037241
1116, 928693894, 0.5487958, -0.004103697, -0.8305454, -0.09487282, 0.7195016, -1.0188278, 0.2100172
1117, 928710561, 0.5516612, -0.0029354729, -0.8281303, -0.09930683, 0.6311161, -0.73407656, 0.027312279
1118, 928727228, 0.55475205, -0.0014115437, -0.82551104, -0.103826925, 0.47277325, -0.72094184, 0.114105225
1119, 928743895, 0.55817467, 7.3041476E-4, -0.8226846, -0.10784649, 0.49157205, -0.69139385, 0.059456825
1120, 928760562, 0.5619129, 0.00353655, -0.8196947, -0.11109695, 0.57564914, -0.29259846, 0.07742691
1121, 928777229, 0.56571263, 0.0065082153, -0.81662095, -0.11426909, 0.4878899, 0.42291522, -0.020677567
1122, 928793896, 0.5692836, 0.008651566, -0.81355613, -0.118184894, 0.09667828, 0.46552452, -0.17658234
1123, 928810563, 0.5727735, 0.010388858, -0.81042826, -0.12259204, -0.2819674, -0.26209766, -0.33180618
1124, 928827230, 0.5764398, 0.012622802, -0.80719614, -0.12646137, -0.35982502, -0.49969697, -0.39304447
1125, 928843897, 0.58013606, 0.015422987, -0.8040262, -0.12940894, -0.6216539, 0.212113, -0.35299587
1126, 928860564, 0.58336776, 0.017816827, -0.80108595, -0.13276346, -0.79719245, 0.6563955, -0.29784966
1127, 928877231, 0.58653253, 0.020580724, -0.79823786, -0.13554594, -0.9513592, 0.29337168, -0.32190704
1128, 928893898, 0.58979386, 0.02398954, -0.79541314, -0.13742669, -0.8715199, 0.282865, -0.3209753
1129, 928910565, 0.592889, 0.027388573, -0.79272854, -0.1389752, -0.70209575, 0.68892115, -0.15894127
1130, 928927232, 0.59576106, 0.030405965, -0.79019165, -0.14050537, -0.47340894, 1.0285238, -0.12905502
1131, 928943899, 0.5983757, 0.032850713, -0.78781706, -0.14216903, -0.6234666, 1.1962073, -0.120578766
1132, 928960566, 0.6006952, 0.035082802, -0.7857259, -0.14342116, -0.7672722, 1.4318204, -0.20265198
1133, 928977233, 0.60272247, 0.036729254, -0.78387445, -0.14463028, -0.6741665, 1.6297324, -0.23329067
1134, 928993900, 0.60434604, 0.037281375, -0.78226036, -0.14644021, -0.72343946, 1.0149542, -0.12563038
1135, 929010567, 0.60576916, 0.037610114, -0.7808465, -0.14801429, -0.7489776, 0.4395508, -0.12609673
1136, 929027234, 0.60703725, 0.037998263, -0.77961046, -0.14923014, -0.8549661, 0.5038674, -0.07177448
1137, 929043901, 0.60807, 0.038549136, -0.7786168, -0.15007025, -1.2846273, 0.5750408, -0.11979866
1138, 929060568, 0.6088901, 0.03950354, -0.77789265, -0.15025218, -1.5010848, 0.645322, -0.23651409
1139, 929077235, 0.60945886, 0.04056123, -0.77745026, -0.14995317, -1.4299684, 0.674078, -0.10644436
1140, 929093902, 0.6096792, 0.041358717, -0.7773088, -0.14957272, -1.2358017, 0.65719724, -1.411438E-4
1141, 929110569, 0.6095308, 0.041809846, -0.7774888, -0.14911637, -1.1781685, 0.56643564, -0.11908245
1142, 929127236, 0.6090567, 0.042119227, -0.77795494, -0.14853376, -1.2865818, 0.5769328, -0.035495758
1143, 929143903, 0.60833454, 0.04250677, -0.7786537, -0.14771928, -1.2239699, 0.37557402, -0.07778549
1144, 929160570, 0.60748583, 0.043211028, -0.77950567, -0.14651056, -0.86646, 0.025520457, -0.019940376
1145, 929177237, 0.60662186, 0.04412412, -0.78041035, -0.1449933, -0.32229003, 0.08345194, 0.04544258
1146, 929193904, 0.60564977, 0.044526186, -0.78135204, -0.14385813, 0.19056804, 0.1429471, 0.06613064
1147, 929210571, 0.60462415, 0.044347413, -0.78226924, -0.14324127, 0.35934892, 3.954503E-4, 0.18446445
1148, 929227238, 0.60357887, 0.04383091, -0.7831603, -0.14293976, 0.28392985, -0.034246486, 0.122366905
1149, 929243905, 0.6025656, 0.043283314, -0.7840207, -0.14266409, 0.08353573, 0.055726893, 0.18164253
1150, 929260572, 0.60158765, 0.04288818, -0.7848604, -0.14229311, -0.04338029, -0.053740393, 0.17079926
1151, 929277239, 0.6006612, 0.04264961, -0.78568035, -0.14175388, 0.094203115, -0.101911455, 0.111774445
1152, 929293906, 0.5997374, 0.04219998, -0.78647536, -0.1413892, 0.12762098, -0.033006467, 0.096227646
1153, 929310573, 0.5988128, 0.041753355, -0.78726566, -0.14104193, -0.13928343, -0.16404898, 0.049995422
1154, 929327240, 0.59795797, 0.04173397, -0.7880371, -0.14036453, -0.28028703, -0.08006497, 0.15299034
1155, 929343907, 0.59712094, 0.04188283, -0.7888056, -0.13956583, -0.15703395, -0.050750643, 0.14436436
1156, 929360574, 0.59624213, 0.041876767, -0.78958046, -0.13894197, -0.037964124, -0.0044685826, 0.12072277
1157, 929377241, 0.59535503, 0.04173439, -0.7903442, -0.13844547, 0.0106107965, -0.072160624, 0.0855999
1158, 929393908, 0.5944461, 0.04159134, -0.79112184, -0.13795097, -0.111313924, -0.04069759, 0.12165451
1159, 929410575, 0.5935554, 0.041668978, -0.7918969, -0.13731441, -0.29005232, -0.09370292, 0.11097431
1160, 929427242, 0.5927042, 0.04201788, -0.79267037, -0.13641997, -0.17758462, -0.06911843, 0.03669262
1161, 929443909, 0.59186643, 0.042435057, -0.79344094, -0.1354442, -0.005982101, 0.007305912, 0.024576187
1162, 929460576, 0.5910223, 0.04280087, -0.794202, -0.13455226, 0.00516002, -0.05115917, 0.19041443
1163, 929477243, 0.5902295, 0.043291207, -0.7949228, -0.13361466, 0.047488905, -0.15110834, 0.19946766
1164, 929493910, 0.5894509, 0.043723468, -0.79562956, -0.13270058, 0.1405311, -0.0066875913, 0.12934113
