sep=,
DeviceTag:,femurLeft,,,,,,,,,,,,,,,,,
FirmwareVersion:,1.6.0,,,,,,,,,,,,,,,,,
AppVersion:,2020.4,,,,,,,,,,,,,,,,,
SyncStatus:,Synced,,,,,,,,,,,,,,,,,
OutputRate:,60Hz,,,,,,,,,,,,,,,,,
FilterProfile:,General,,,,,,,,,,,,,,,,,
Measurement Mode:,Sensor fusion Mode - Complete (Quaternion),,,,,,,,,,,,,,,,,
StartTime:,2021-03-19 14:41:38.361 +0800,,,,,,,,,,,,,,,,,
© Xsens Technologies B. V. 2005-2021,,,,,,,,,,,,,,,,,,,

PacketCounter,SampleTimeFine,Quat_W,Quat_X,Quat_Y,Quat_Z,FreeAcc_X,FreeAcc_Y,FreeAcc_Z
1, 402116928, 0.65924025, 0.12885685, -0.7196098, 0.17595394, 0.3914597, 0.99461836, -0.20352554
2, 402133595, 0.6595838, 0.12831964, -0.7192738, 0.1764325, 0.46818274, 0.8432456, -0.21258926
3, 402150262, 0.6597371, 0.12727892, -0.7194258, 0.17599335, 0.53581554, 0.497203, -0.07994366
4, 402166929, 0.6597811, 0.12586819, -0.7199064, 0.17487353, 0.42402956, 0.034391437, 0.20376587
5, 402183596, 0.65974295, 0.12465529, -0.72040206, 0.17384207, 0.07480174, -0.3576755, 0.22380638
6, 402200263, 0.6595904, 0.12411296, -0.72071785, 0.17350006, -0.2587529, -0.5135788, 0.19704342
7, 402216930, 0.65904045, 0.12442578, -0.72107786, 0.17386934, -0.5446872, -0.50302845, 0.012923241
8, 402233597, 0.65804815, 0.12553903, -0.7215938, 0.17468485, -0.51106817, -0.57254034, -0.028305054
9, 402250264, 0.6566707, 0.12720235, -0.72226036, 0.17590606, -0.44490075, -0.648696, 0.2782259
10, 402266931, 0.6552238, 0.12898088, -0.7228843, 0.17743722, -0.04577009, -0.46017468, 0.39411926
11, 402283598, 0.6541243, 0.1304247, -0.7232436, 0.17896774, 0.02445053, -0.17676505, 0.39692497
12, 402300265, 0.6534967, 0.13158078, -0.72327644, 0.18027714, -0.003089843, 0.22762705, 0.08746338
13, 402316932, 0.652963, 0.1325843, -0.7233414, 0.18121159, -0.07226978, 0.30880314, -0.21247959
14, 402333599, 0.6521417, 0.13365282, -0.72370017, 0.1819508, -0.095318, 0.32262638, -0.1257143
15, 402350266, 0.65103316, 0.13478094, -0.7243474, 0.18251196, -0.0014912784, 0.27341104, 0.12037945
16, 402366933, 0.6500426, 0.13554278, -0.72495526, 0.18306425, 0.1112424, 0.35101765, 0.47070122
17, 402383600, 0.64942986, 0.13538542, -0.7254724, 0.1833077, 0.0010402293, 0.34960616, 0.6862011
18, 402400267, 0.64925355, 0.13456482, -0.7257149, 0.18357502, 0.07887951, 0.33022508, 0.4530344
19, 402416934, 0.64971197, 0.1334521, -0.7255942, 0.18324251, -0.051497385, 0.042446006, 0.019440651
20, 402433601, 0.6501769, 0.13230757, -0.72564346, 0.18222545, -0.24171898, -0.08849828, -0.09028816
21, 402450268, 0.6502274, 0.13138221, -0.72600794, 0.18126059, -0.22656927, -0.07546021, 0.08643532
22, 402466935, 0.6500542, 0.1304097, -0.72654974, 0.1804118, -0.1235593, -0.05481046, 0.21150303
23, 402483602, 0.6498172, 0.12934394, -0.7270791, 0.17989933, -0.055899248, -0.028004833, 0.39290237
24, 402500269, 0.6496479, 0.12843232, -0.72736174, 0.1800209, 0.05310623, -0.06261431, 0.41983986
25, 402516936, 0.649631, 0.12791136, -0.7273268, 0.18059283, 0.15172462, -0.09432789, 0.18102646
26, 402533603, 0.6496203, 0.12792936, -0.7271527, 0.1813186, 0.11389237, -0.24577077, -0.079250336
27, 402550270, 0.6493533, 0.12842864, -0.72713464, 0.18199345, -0.0036034759, -0.24680725, -0.057732582
28, 402566937, 0.6488646, 0.1290169, -0.7273271, 0.18255062, -0.036657915, -0.07801753, 0.28090382
29, 402583604, 0.64857274, 0.12920912, -0.72743654, 0.18301466, 0.024738414, 0.07266613, 0.5510845
30, 402600271, 0.6484869, 0.1289366, -0.7274169, 0.18358806, 0.2488857, 0.2910512, 0.4108715
31, 402616938, 0.648531, 0.12857036, -0.7272842, 0.18421412, 0.25835416, 0.39145327, 0.0886755
32, 402633605, 0.6486166, 0.12826346, -0.72723395, 0.18432531, 0.29274073, 0.49201018, -0.1218586
33, 402650272, 0.64868426, 0.12818821, -0.72720134, 0.18426768, 0.26394734, 0.36067605, -0.034523964
34, 402666939, 0.6486931, 0.1281958, -0.72726434, 0.18398225, 0.10936578, 0.09456526, 0.104187965
35, 402683606, 0.64847255, 0.12828791, -0.72750336, 0.18375108, 0.033548847, -0.019968089, 0.29023552
36, 402700273, 0.6483534, 0.12833256, -0.7275327, 0.18402365, -0.04325691, 0.14994344, 0.3798914
37, 402716940, 0.64843446, 0.12820455, -0.72739655, 0.18436538, -0.017443845, 0.21496426, 0.15757275
38, 402733607, 0.64872843, 0.12804268, -0.7271473, 0.1844269, -0.15400669, 0.050242975, -0.015359879
39, 402750274, 0.64889103, 0.12791903, -0.72703636, 0.18437828, -0.2596, -0.058457524, 0.096925735
40, 402766941, 0.64878935, 0.12785925, -0.7271473, 0.18433957, -0.32188055, -0.11573897, 0.2622385
41, 402783608, 0.6485483, 0.12791306, -0.7273769, 0.18424472, -0.14401789, -0.006350562, 0.20557594
42, 402800275, 0.64838976, 0.12800121, -0.72749746, 0.18426502, -0.07083304, -0.01992467, 0.21402168
43, 402816942, 0.6483165, 0.12810703, -0.72752476, 0.18434153, -0.023756297, 0.039464064, 0.14670944
44, 402833609, 0.64831495, 0.12819338, -0.7274855, 0.18444261, -0.01265888, 0.087228335, 0.067471504
45, 402850276, 0.64834327, 0.12803295, -0.72753143, 0.18427286, -0.16855067, 0.0453814, 0.25912476
46, 402866943, 0.64830005, 0.12767313, -0.7277019, 0.18400179, -0.052282363, 0.14650515, 0.3578949
47, 402883610, 0.64830554, 0.12745334, -0.72774255, 0.18397355, 0.050033376, 0.13581742, 0.1660471
48, 402900277, 0.6484514, 0.12742695, -0.7275829, 0.18410942, 0.03120822, 0.0659105, 0.05990696
49, 402916944, 0.6486196, 0.12759905, -0.72736025, 0.18427709, -0.021430422, 0.08444599, 0.06587219
50, 402933611, 0.64871186, 0.12788218, -0.7271909, 0.18442456, -0.13070188, 0.04336062, 0.09028244
51, 402950278, 0.64867216, 0.12816481, -0.7271593, 0.18449236, -0.09157326, 0.006396997, 0.17539406
52, 402966945, 0.64853805, 0.12845773, -0.727183, 0.18466726, -0.11761788, -0.09047575, 0.290164
53, 402983612, 0.6484481, 0.12856492, -0.72719103, 0.18487605, -0.1333818, 0.058649577, 0.348073
54, 403000279, 0.64838874, 0.1286141, -0.7271149, 0.18534946, -0.112325095, 0.20157862, 0.189682
55, 403016946, 0.64842105, 0.128693, -0.7270009, 0.18562858, -0.15396735, 0.20503446, 0.038269043
56, 403033613, 0.6485044, 0.12872241, -0.72693694, 0.18556742, -0.11753965, 0.08837736, 0.07374382
57, 403050280, 0.64849985, 0.12890825, -0.7269168, 0.18553315, -0.054590803, -0.0285573, 0.17694664
58, 403066947, 0.64845586, 0.12920235, -0.72686505, 0.18568514, -0.049698107, -0.1297059, 0.20868969
59, 403083614, 0.6484028, 0.12943938, -0.7267701, 0.18607704, -0.06431317, 0.055280566, 0.3430195
60, 403100281, 0.64835817, 0.12968475, -0.726691, 0.18637007, -0.05060825, 0.26638946, 0.1581955
61, 403116948, 0.64842933, 0.12979786, -0.7265464, 0.18660694, -0.084736444, 0.27729744, 0.16887379
62, 403133615, 0.6486215, 0.12981465, -0.7263457, 0.18670848, -0.08470068, 0.07795244, 0.15131855
63, 403150282, 0.64884675, 0.12980972, -0.7261339, 0.18675321, -0.13198529, -0.0865241, 0.14108753
64, 403166949, 0.6489954, 0.1298667, -0.72598803, 0.1867645, -0.16839063, -0.09199168, 0.106879234
65, 403183616, 0.64903694, 0.13003792, -0.72589433, 0.18686514, -0.17620733, -0.03331522, 0.095069885
66, 403200283, 0.6490032, 0.1302078, -0.72588277, 0.1869088, -0.24902204, 0.049049247, 0.20001411
67, 403216950, 0.6489193, 0.13023539, -0.7259617, 0.18687432, -0.14824139, 0.18961665, 0.30200958
68, 403233617, 0.64895296, 0.13022846, -0.7259371, 0.1868576, -0.0046186717, 0.22285265, 0.19443607
69, 403250284, 0.64913756, 0.1300516, -0.72583187, 0.18674828, -0.048301596, 0.1365478, 0.18391705
70, 403266951, 0.64930093, 0.12998119, -0.72566724, 0.1868689, -0.06444862, 0.053820133, 0.18910694
71, 403283618, 0.6494427, 0.13001505, -0.7254777, 0.18708885, -0.0632792, 0.047746446, 0.1307249
72, 403300285, 0.6495045, 0.1301038, -0.72534823, 0.1873149, -0.019547548, 0.009666712, 0.11951256
73, 403316952, 0.649559, 0.13031156, -0.7251709, 0.18766817, -0.021218533, 0.042453546, 0.17163372
74, 403333619, 0.64968187, 0.1303922, -0.72497344, 0.1879492, -0.066941686, 0.026455775, 0.3208561
75, 403350286, 0.64987177, 0.13025634, -0.72470963, 0.1884034, -0.07425324, 0.204394, 0.39639091
76, 403366953, 0.6500695, 0.1301159, -0.72442144, 0.18892625, -0.09344585, 0.28392455, 0.1640501
77, 403383620, 0.65028673, 0.13007039, -0.72412527, 0.18934502, 0.01887701, 0.20755245, 0.017478943
78, 403400287, 0.6505016, 0.13015501, -0.7238055, 0.18977046, 0.06074322, -0.02363046, 0.067279816
79, 403416954, 0.65067774, 0.13040209, -0.7234321, 0.19041976, -0.015258783, -0.044719018, 0.3167162
80, 403433621, 0.65103686, 0.13050781, -0.7228646, 0.191273, 0.079300165, 0.16505599, 0.4838667
81, 403450288, 0.6515989, 0.13037632, -0.7221169, 0.19227158, 0.11924595, 0.27831075, 0.29587555
82, 403466955, 0.652184, 0.13025515, -0.72136754, 0.19317898, 0.15736161, 0.29800513, 0.058659554
83, 403483622, 0.6527798, 0.13010558, -0.7206985, 0.19376473, 0.18748446, 0.2602972, 0.039021492
84, 403500289, 0.65336716, 0.12995814, -0.7200645, 0.19424036, 0.10538904, 0.0804113, 0.32121658
85, 403516956, 0.6540848, 0.12974402, -0.7192564, 0.19496109, 0.35444596, 0.09779077, 0.4476366
86, 403533623, 0.6549428, 0.12978669, -0.71817493, 0.19603695, 0.41887668, 0.09394596, 0.117733955
87, 403550290, 0.65583396, 0.13025025, -0.71695584, 0.19720769, 0.378348, 0.178324, 0.048069954
88, 403566957, 0.65663147, 0.13088803, -0.715932, 0.19785018, 0.17249389, 0.37966442, 0.110435486
89, 403583624, 0.6576783, 0.13118231, -0.7150082, 0.19751853, 0.046462532, 0.39144105, 0.24804592
90, 403600291, 0.65898174, 0.13085447, -0.7140909, 0.19670881, 0.056314535, 0.54942995, 0.41877937
91, 403616958, 0.66039586, 0.13050354, -0.713019, 0.19608603, 0.28167728, 0.67025906, 0.08714485
92, 403633625, 0.66187364, 0.12997729, -0.7119191, 0.19544905, 0.4414202, 0.6573546, -0.09107399
93, 403650292, 0.66359025, 0.12879, -0.710881, 0.19418882, 0.28889093, 0.41929477, -1.9073486E-6
94, 403666959, 0.66533196, 0.12749302, -0.70988613, 0.19271955, -0.088361375, 0.008094689, -0.09167385
95, 403683626, 0.66689026, 0.12624343, -0.7090071, 0.19138648, -0.504644, -0.13606066, -0.17740059
96, 403700293, 0.66812056, 0.12477988, -0.7084596, 0.19007872, -0.77989125, -0.22232498, 0.10429478
97, 403716960, 0.6690664, 0.12299181, -0.7082112, 0.18883863, -0.6469587, -0.22428134, 0.40357685
98, 403733627, 0.6698201, 0.12170871, -0.70796025, 0.18793766, -0.5993424, -0.454601, 0.24871159
99, 403750294, 0.67034584, 0.12101776, -0.7077011, 0.18748464, -0.6948991, -0.45915037, 0.050079346
100, 403766961, 0.67052865, 0.12092917, -0.7075195, 0.18757303, -0.7822752, -0.4802129, 0.078793526
101, 403783628, 0.6703854, 0.12146437, -0.7074311, 0.18807271, -0.87481093, -0.65670955, 0.16728592
102, 403800295, 0.6700154, 0.12220862, -0.70742416, 0.18893301, -0.83894694, -0.6806333, 0.33993626
103, 403816962, 0.6696139, 0.122853324, -0.70742315, 0.18993898, -0.6764709, -0.46538046, 0.3519678
104, 403833629, 0.66932243, 0.12345189, -0.70732033, 0.1909582, -0.5794694, -0.2857427, 0.16843224
105, 403850296, 0.6689846, 0.12406813, -0.7072437, 0.1920236, -0.52446556, 0.11531346, 0.020824432
106, 403866963, 0.6686089, 0.12463434, -0.7071952, 0.19314069, -0.43451232, 0.28543243, 0.11005497
107, 403883630, 0.66832286, 0.12501504, -0.7071144, 0.19417758, -0.31840315, 0.17349294, 0.2562065
108, 403900297, 0.66808903, 0.12543137, -0.7069795, 0.19520192, -0.23843648, 0.081597485, 0.23249626
109, 403916964, 0.6678742, 0.12574382, -0.70685196, 0.19619516, -0.11353743, 0.1793136, 0.2358427
110, 403933631, 0.66762066, 0.12574942, -0.7068386, 0.1971013, 0.15045774, 0.26650718, 0.18037224
111, 403950298, 0.66742694, 0.12571412, -0.70680785, 0.19788882, 0.31344742, 0.26139292, 0.057929993
112, 403966965, 0.6671648, 0.12581268, -0.7068707, 0.19848444, 0.33275044, 0.3247454, -0.0875721
113, 403983632, 0.6667918, 0.12592551, -0.7070819, 0.19891377, 0.36036637, 0.2969464, 0.08873272
114, 404000299, 0.6664046, 0.12602322, -0.70734775, 0.19920407, 0.31308666, 0.19098517, 0.27531815
115, 404016966, 0.66611624, 0.12594755, -0.7075273, 0.19957796, 0.25135598, 0.24068859, 0.41733837
116, 404033633, 0.6659167, 0.1257755, -0.7076269, 0.19999897, 0.3038283, 0.2583256, 0.19425964
117, 404050300, 0.6658876, 0.12557709, -0.70761675, 0.20025612, 0.19860601, 0.19292359, 0.040665627
118, 404066967, 0.6658759, 0.1255054, -0.7076275, 0.20030205, 0.17374869, 0.24554038, -0.05072117
119, 404083634, 0.66584986, 0.12549411, -0.7076286, 0.20039187, 0.086711854, 0.26951936, 0.101408005
120, 404100301, 0.66589653, 0.1252526, -0.70764613, 0.20032644, 0.023821564, 0.16003405, 0.33498287
121, 404116968, 0.6660332, 0.12491079, -0.7076005, 0.20024616, -0.004176116, 0.0910513, 0.35333347
122, 404133635, 0.66644216, 0.12436277, -0.70735043, 0.20011026, 0.00857798, 0.14271715, 0.31307793
123, 404150302, 0.66706735, 0.12376881, -0.706982, 0.19969687, -0.123288855, 0.12326689, 0.12462616
124, 404166969, 0.6676979, 0.12322097, -0.70663327, 0.19916184, -0.13406262, 0.12071376, 0.10094929
125, 404183636, 0.6682459, 0.12272813, -0.70632285, 0.1987289, -0.057784803, 0.05201588, 0.0425272
126, 404200303, 0.6686086, 0.12220521, -0.7061645, 0.19839375, -0.02540046, 0.009041658, 0.1632328
127, 404216970, 0.66889054, 0.12163252, -0.7060563, 0.1981806, 0.07402347, 0.044487406, 0.2208662
128, 404233637, 0.66926014, 0.12124747, -0.7058086, 0.19805065, -0.028963704, -0.056106165, 0.13930225
129, 404250304, 0.66957283, 0.12093796, -0.7056555, 0.19772847, -0.21952415, -0.04584625, 0.1295309
130, 404266971, 0.66984457, 0.12066481, -0.705534, 0.19740823, -0.2591476, -0.052999895, 0.119155884
131, 404283638, 0.6701547, 0.12039243, -0.70535606, 0.19715802, -0.29159144, -0.1641838, 0.19129658
132, 404300305, 0.67036134, 0.12011053, -0.70526516, 0.19695191, -0.3499471, -0.24036622, 0.32479668
133, 404316972, 0.6706307, 0.11981576, -0.70512897, 0.19670218, -0.23549816, -0.22658749, 0.31210327
134, 404333639, 0.67092, 0.11954169, -0.70496446, 0.19647191, -0.2539228, -0.2246346, 0.24458599
135, 404350306, 0.6710815, 0.11926258, -0.7048556, 0.1964801, -0.27783152, -0.14897032, 0.25939083
136, 404366973, 0.671133, 0.11917499, -0.70477057, 0.19666305, -0.21876599, -0.104253426, 0.17190742
137, 404383640, 0.67112064, 0.1193261, -0.7046768, 0.19694898, -0.17504461, -0.1208368, 0.1017952
138, 404400307, 0.6711025, 0.11946742, -0.70454615, 0.19739164, -0.10888255, -0.07592338, 0.30315685
139, 404416974, 0.67112786, 0.11957881, -0.70427555, 0.19820265, -0.009421965, -0.1454652, 0.5616951
140, 404433641, 0.6712923, 0.1200129, -0.7036414, 0.19963029, 0.0387044, -0.30285928, 0.49936867
141, 404450308, 0.6714927, 0.12123778, -0.7027498, 0.20134954, -0.10178467, -0.117572956, 0.08793831
142, 404466975, 0.6717006, 0.122519396, -0.7018619, 0.20297058, -0.20107405, 0.07582364, 0.2165699
143, 404483642, 0.6720529, 0.123343885, -0.7009446, 0.20446956, -0.1811948, 0.0029519915, 0.5400791
144, 404500309, 0.6727073, 0.12384548, -0.6998095, 0.20589757, -0.12684539, -0.018357957, 0.37323284
145, 404516976, 0.67355126, 0.12411763, -0.69856507, 0.2071969, -0.12682796, 0.16882257, -0.021238327
146, 404533643, 0.67438686, 0.12423343, -0.69743294, 0.20822069, -0.019063868, 0.49744076, -0.14690495
147, 404550310, 0.6753592, 0.12422346, -0.69626623, 0.208978, 0.30747113, 0.5149381, 0.23647499
148, 404566977, 0.6766029, 0.12392296, -0.6949775, 0.2094225, 0.60980546, 0.3746955, 0.57075024
149, 404583644, 0.6780497, 0.12355809, -0.6935615, 0.20965339, 0.6930515, 0.39321494, 0.36198616
150, 404600311, 0.67945284, 0.123524316, -0.6921513, 0.20979068, 0.6320692, 0.7979681, -0.23338509
151, 404616978, 0.6808621, 0.123051055, -0.69094795, 0.20946626, 0.4569414, 1.2491779, -0.54514027
152, 404633645, 0.68231446, 0.1216367, -0.6900678, 0.20846525, 0.33266148, 1.1992743, -0.28379822
153, 404650312, 0.6837443, 0.11931725, -0.6895747, 0.20674571, 0.25752178, 0.65460604, 0.14865589
154, 404666979, 0.6850046, 0.11689984, -0.68926126, 0.20499358, 0.14683326, -0.02560665, 0.23870564
155, 404683646, 0.6860868, 0.114702865, -0.6890166, 0.20343119, -0.060663205, -0.26849422, -0.007777214
156, 404700313, 0.6869235, 0.11288722, -0.68885124, 0.20217898, -0.4309455, -0.31346607, -0.25982094
157, 404716980, 0.68750983, 0.1112101, -0.6888763, 0.20102754, -0.60954845, -0.35495484, -0.027965546
158, 404733647, 0.68784744, 0.109769374, -0.68911487, 0.1998437, -0.62395877, -0.62403625, 0.3795662
159, 404750314, 0.6881069, 0.10849764, -0.68936837, 0.19876753, -0.7003792, -0.8842748, 0.6387167
160, 404766981, 0.6882816, 0.107564025, -0.6895889, 0.1979024, -0.7948532, -0.84476674, 0.43890762
161, 404783648, 0.68816894, 0.107097305, -0.68992156, 0.19738756, -0.8547444, -0.79063326, 0.22434139
162, 404800315, 0.6878866, 0.10688003, -0.690327, 0.19707234, -0.71023744, -0.6611875, 0.23976326
163, 404816982, 0.6875515, 0.10722687, -0.6905816, 0.197161, -0.5857778, -0.5418481, 0.20552826
164, 404833649, 0.68720883, 0.10802497, -0.6906909, 0.19753711, -0.4769677, -0.39644158, 0.18180084
165, 404850316, 0.68682104, 0.10879956, -0.6907884, 0.19811812, -0.34944865, -0.23469213, 0.3164177
166, 404866983, 0.6863832, 0.10939772, -0.6909443, 0.19876108, -0.21221393, -0.021408351, 0.35305595
167, 404883650, 0.6859468, 0.10988694, -0.69118226, 0.19917051, -0.06022646, 0.12444062, 0.22610092
168, 404900317, 0.6856148, 0.11014341, -0.6913902, 0.19945017, 0.09418121, 0.07146877, 0.17204475
169, 404916984, 0.6852571, 0.11050746, -0.6915493, 0.19992547, 0.14005992, -0.07463634, 0.11191368
170, 404933651, 0.684762, 0.11132916, -0.6916923, 0.20067011, 0.22232968, -0.049207103, 0.13000107
171, 404950318, 0.6841916, 0.11246603, -0.6918138, 0.20156157, 0.28349578, 0.14187764, 0.20497131
172, 404966985, 0.68366927, 0.11373208, -0.69189495, 0.20234294, 0.31216893, 0.27988338, 0.2140274
173, 404983652, 0.6832717, 0.11475019, -0.69197214, 0.20284666, 0.40303499, 0.29976043, 0.16366386
174, 405000319, 0.6828346, 0.11593762, -0.6920086, 0.20351735, 0.39013025, 0.25535467, 0.07763767
175, 405016986, 0.68233436, 0.11734239, -0.6919905, 0.20444916, 0.3033424, 0.28133085, 0.002714157
176, 405033653, 0.6818466, 0.118769765, -0.69196767, 0.20532866, 0.1958273, 0.36264062, 0.02495861
177, 405050320, 0.6814102, 0.11995994, -0.6919926, 0.20599946, 0.09525452, 0.35763007, 0.2317133
178, 405066987, 0.6810531, 0.12088749, -0.69203734, 0.20648788, 0.09123039, 0.37778717, 0.24486923
179, 405083654, 0.6807733, 0.12176633, -0.6920487, 0.2068556, 0.08466805, 0.2952956, 0.069680214
180, 405100321, 0.68055534, 0.12248957, -0.6920656, 0.20708942, -0.035069183, 0.28695425, 0.058742523
181, 405116988, 0.6802627, 0.12307393, -0.69222665, 0.20716667, -0.120249525, 0.2737099, 0.20649624
182, 405133655, 0.6798687, 0.12343102, -0.69254535, 0.20718195, -0.067696266, 0.21123242, 0.281312
183, 405150322, 0.67950755, 0.12378589, -0.6928298, 0.20720355, 0.045850553, 0.07355314, 0.10747814
184, 405166989, 0.67928046, 0.12407696, -0.6930008, 0.20720264, -0.066033326, 0.08724577, 0.14340591
185, 405183656, 0.6791103, 0.124168344, -0.69318914, 0.20707563, -0.13331921, 0.17323986, 0.27711868
186, 405200323, 0.67903763, 0.12422982, -0.693312, 0.20686537, -0.17063828, 0.016117128, 0.26601124
187, 405216990, 0.67903024, 0.12428059, -0.69341314, 0.20651941, -0.26948375, -0.16955078, 0.12580204
188, 405233657, 0.6789491, 0.12444393, -0.69352376, 0.2063166, -0.29104516, -0.22730905, 0.18768406
189, 405250324, 0.6786597, 0.12456527, -0.6937871, 0.20631053, -0.37655228, -0.15088913, 0.40249538
190, 405266991, 0.6782963, 0.12458234, -0.6941023, 0.20643465, -0.09728222, -0.003665836, 0.35033798
191, 405283658, 0.678173, 0.1247433, -0.6941239, 0.20667048, 0.005681699, -0.076647624, 0.14804554
192, 405300325, 0.67809224, 0.124978505, -0.69410247, 0.20686446, -0.09897154, 0.008432641, 0.04772663
193, 405316992, 0.6778615, 0.12542716, -0.69418, 0.2070891, -0.12037737, 0.1209941, 0.039993286
194, 405333659, 0.677591, 0.12588382, -0.69432193, 0.20722145, -0.108827114, 0.1462025, 0.12155533
195, 405350326, 0.677371, 0.12613866, -0.6944454, 0.20737207, -0.047107145, 0.158728, 0.26647186
196, 405366993, 0.6772112, 0.1262304, -0.6945107, 0.20761935, -0.0017845274, 0.12682298, 0.3095789
197, 405383660, 0.6771793, 0.1261683, -0.6945091, 0.20776609, -0.0046267183, 0.2115336, 0.2557907
198, 405400327, 0.6772146, 0.12602557, -0.6945347, 0.2076518, 0.032427706, 0.2477792, 0.12156582
199, 405416994, 0.67723846, 0.12586485, -0.69463074, 0.20735022, -0.0015073714, 0.17840989, 0.026924133
200, 405433661, 0.6771312, 0.12577417, -0.69481945, 0.20712271, 0.021889964, 0.1605331, 0.06444645
201, 405450328, 0.6768926, 0.12576258, -0.69507784, 0.20704374, 0.11340645, 0.06569699, 0.16936588
202, 405466995, 0.67670757, 0.12566285, -0.6952798, 0.20703113, 0.1604081, 0.09319781, 0.29564953
203, 405483662, 0.67656183, 0.12569888, -0.6954488, 0.20691745, 0.11366483, 0.091070406, 0.15729523
204, 405500329, 0.67654026, 0.12579769, -0.6955372, 0.20663102, 0.027323117, 0.18068564, 0.07758713
205, 405516996, 0.67656887, 0.12574507, -0.69568515, 0.20606983, -0.0129785035, 0.15020636, 0.08376694
206, 405533663, 0.6765333, 0.12563902, -0.6958934, 0.20554757, 0.027077701, 0.027866868, 0.15704823
207, 405550330, 0.6763499, 0.1256337, -0.696192, 0.20514274, 0.015300803, -0.029997002, 0.1654377
208, 405566997, 0.6760711, 0.12567878, -0.6965589, 0.20478874, 0.05278303, 0.023848385, 0.25490475
209, 405583664, 0.6757997, 0.12583064, -0.69694716, 0.2042699, 0.034240846, -0.03324286, 0.20657349
210, 405600331, 0.6755994, 0.12597738, -0.6972927, 0.20366189, -0.06817324, 0.06906528, 0.13383675
211, 405616998, 0.67529076, 0.1259511, -0.69774556, 0.2031493, -0.124810085, 0.15746723, 0.16465473
212, 405633665, 0.6748364, 0.12580653, -0.69834656, 0.20268382, -0.11568494, 0.095125996, -0.03612709
213, 405650332, 0.67420644, 0.12563185, -0.6991544, 0.20210247, -0.082976505, 0.0761165, 0.11202526
214, 405666999, 0.6735516, 0.12551245, -0.70001227, 0.20138961, -0.08656791, -0.015557842, 0.28299427
215, 405683666, 0.6730081, 0.1255811, -0.70076215, 0.20055404, -0.19673923, -0.16681738, 0.13930511
216, 405700333, 0.6724307, 0.12564045, -0.7015464, 0.19971, -0.29613948, -0.19275014, 0.07425308
217, 405717000, 0.67171085, 0.1257471, -0.70241964, 0.19899528, -0.28924096, -0.09332889, 0.019165993
218, 405733667, 0.67090654, 0.12580864, -0.7033942, 0.19822478, -0.32231998, 0.015098132, 0.13704014
219, 405750334, 0.6700865, 0.12571637, -0.70441884, 0.19741672, -0.33799094, -0.11019088, 0.33648586
220, 405767001, 0.6692571, 0.1256858, -0.705404, 0.19673115, -0.42450476, -0.33720288, 0.25101852
221, 405783668, 0.66819614, 0.12581828, -0.70649195, 0.19634892, -0.40115255, -0.19139951, 0.10213184
222, 405800335, 0.6667926, 0.12623934, -0.7077602, 0.19628306, -0.29691148, -0.022567712, 0.047240257
223, 405817002, 0.66533834, 0.12686634, -0.70898896, 0.19637826, -0.17745408, -0.01645469, 0.1751194
224, 405833669, 0.66404516, 0.1278376, -0.70993924, 0.1966925, -0.18775177, -0.09903306, 0.17327595
225, 405850336, 0.6627563, 0.12915495, -0.7107804, 0.19714029, -0.28176445, -0.16003774, 0.099555016
226, 405867003, 0.6613012, 0.13050239, -0.7117424, 0.19766767, -0.33097708, -0.11428452, 0.22682476
227, 405883670, 0.659689, 0.13171971, -0.71282846, 0.19833268, -0.32618272, 0.03674374, 0.36731434
228, 405900337, 0.6580682, 0.13285898, -0.71393704, 0.19896905, -0.27642205, 0.08709881, 0.25508404
229, 405917004, 0.65662766, 0.13387723, -0.7149451, 0.1994257, -0.33995694, 0.06891994, 0.10361576
230, 405933671, 0.65521735, 0.13465409, -0.71599, 0.19979182, -0.40908325, 0.008551885, 0.2976961
231, 405950338, 0.6538847, 0.1351834, -0.71703124, 0.20006573, -0.40905598, 0.02514638, 0.32032776
232, 405967005, 0.65256315, 0.13542233, -0.7181375, 0.2002517, -0.46181488, 0.07889398, 0.3249092
233, 405983672, 0.651176, 0.13528214, -0.71939456, 0.20035054, -0.30512112, 0.15997963, 0.30261898
234, 406000339, 0.64992666, 0.13496378, -0.7205793, 0.20036387, -0.09475519, 0.19331016, 0.31603527
235, 406017006, 0.64898336, 0.13462712, -0.7215224, 0.200254, -0.049656533, 0.2444949, 0.26878643
236, 406033673, 0.6483101, 0.13411923, -0.7222581, 0.20012295, 0.041585032, 0.36483574, 0.25524807
237, 406050340, 0.64783216, 0.13337733, -0.7228383, 0.2000723, 0.09201313, 0.4349171, 0.30251694
238, 406067007, 0.6474695, 0.13227314, -0.7234171, 0.19988719, 0.2474351, 0.36151522, 0.2463255
239, 406083674, 0.6473499, 0.13097708, -0.72381806, 0.19967608, 0.3031998, 0.20391065, 0.17269135
240, 406100341, 0.64753354, 0.12972273, -0.7239178, 0.19953805, 0.3775764, 0.19361469, 0.09777832
241, 406117008, 0.64778614, 0.1286301, -0.72397196, 0.19922867, 0.28600404, 0.22627826, 0.04428959
242, 406133675, 0.64782804, 0.1278868, -0.7241981, 0.19874814, 0.41136083, 0.34650263, -0.031679153
243, 406150342, 0.6476727, 0.12753347, -0.72456837, 0.19813144, 0.31941342, 0.204887, -0.0108270645
244, 406167009, 0.6473778, 0.12717198, -0.7249568, 0.19790675, 0.12706757, 0.22187746, 0.47609043
245, 406183676, 0.64726084, 0.126595, -0.72517943, 0.19784363, 0.37979725, 0.20278537, 0.37222672
246, 406200343, 0.6475377, 0.12604459, -0.725078, 0.19766043, 0.21325773, -0.050100934, 0.16951942
247, 406217010, 0.647966, 0.12555772, -0.7248199, 0.19751288, 0.05201683, 0.018528385, 0.07896042
248, 406233677, 0.64834505, 0.12526244, -0.7245738, 0.19735998, 0.013338806, 0.014393452, -0.04462242
249, 406250344, 0.6485668, 0.12512603, -0.72443414, 0.19722983, -0.12892942, 0.06774605, 0.18462563
250, 406267011, 0.6486542, 0.124984235, -0.72437096, 0.19726452, -0.13814442, 0.17236157, 0.49862766
251, 406283678, 0.6488578, 0.124788254, -0.7241705, 0.1974553, 0.02459, 0.19078043, 0.29474354
252, 406300345, 0.6492005, 0.124720745, -0.7237927, 0.19775635, 0.017252518, 0.08434736, 0.07802868
253, 406317012, 0.64957255, 0.12461135, -0.7234084, 0.19801039, -0.093981385, -0.00719762, 0.08515835
254, 406333679, 0.6499163, 0.124472484, -0.72307914, 0.19817214, -0.053439267, -0.078967854, 0.13225937
255, 406350346, 0.65021825, 0.12434676, -0.7227907, 0.19831246, -0.050454475, -0.06835423, 0.13273048
256, 406367013, 0.65047216, 0.12428015, -0.7225402, 0.19843452, -0.16279969, 0.02546321, 0.19205856
257, 406383680, 0.6507088, 0.12413481, -0.7223566, 0.19841802, -0.13245468, 0.018062025, 0.32938194
258, 406400347, 0.6511509, 0.12393035, -0.72198814, 0.19843635, -0.03135708, 0.04268153, 0.24193382
259, 406417014, 0.65175736, 0.123670734, -0.7214755, 0.19847178, -0.14153644, 0.05138144, 0.085484505
260, 406433681, 0.6522632, 0.1233889, -0.7210742, 0.19844379, -0.14893293, 0.09330252, 0.07845497
261, 406450348, 0.6526579, 0.123121664, -0.7208102, 0.19827135, -0.09232158, 0.04613732, 0.1675415
262, 406467015, 0.65311056, 0.12285217, -0.72051215, 0.19803181, 0.021256976, 0.006039767, 0.26425362
263, 406483682, 0.6535358, 0.122726955, -0.72016674, 0.197963, 0.02449702, -0.112471886, 0.1295414
264, 406500349, 0.65389544, 0.122774206, -0.7197725, 0.19817929, -0.033888586, -0.055564146, 0.13542747
265, 406517016, 0.65414935, 0.122915655, -0.7194534, 0.19841248, -0.13244574, 0.051275827, 0.123111725
266, 406533683, 0.65432405, 0.1230068, -0.7192329, 0.19857928, -0.09442975, 0.038115665, 0.17757893
267, 406550350, 0.65454364, 0.12315897, -0.71895957, 0.19875069, -0.060825475, 0.0039754016, 0.22965336
268, 406567017, 0.6548192, 0.12336483, -0.7186166, 0.19895643, -0.06577763, 0.015743917, 0.1885891
269, 406583684, 0.6550719, 0.123532414, -0.71829087, 0.19919628, -0.032036558, 0.08270164, 0.15335655
270, 406600351, 0.6552215, 0.1237046, -0.7180229, 0.19956316, -0.011553384, 0.15945879, 0.15051174
271, 406617018, 0.65536684, 0.12385139, -0.71777683, 0.19988002, -0.06524075, 0.28227746, 0.10117626
272, 406633685, 0.6555498, 0.12391236, -0.71755546, 0.20003623, -0.0911915, 0.255997, 0.16988373
273, 406650352, 0.6558386, 0.12380387, -0.7172962, 0.2000868, -0.1895515, 0.166387, 0.2788639
274, 406667019, 0.656222, 0.12351332, -0.717001, 0.20006731, -0.18543932, 0.02606815, 0.32748127
275, 406683686, 0.65674454, 0.1231048, -0.71655196, 0.20021303, -0.23109809, 0.011434867, 0.36204243
276, 406700353, 0.65737826, 0.12265418, -0.71592337, 0.2006585, -0.14790031, 0.011737, 0.3180561
277, 406717020, 0.6580868, 0.12225764, -0.7151897, 0.20119387, -0.16194855, 0.034098186, 0.10461712
278, 406733687, 0.65871114, 0.12209462, -0.71445704, 0.2018524, -0.20867616, 0.032854952, 0.070269585
279, 406750354, 0.6593252, 0.122140996, -0.7136376, 0.2027155, -0.16815014, -9.804396E-4, 0.17492008
280, 406767021, 0.6600283, 0.12248053, -0.7125985, 0.20387521, -0.20210533, -0.087392166, 0.26473236
281, 406783688, 0.66090727, 0.12279999, -0.7113398, 0.20522624, -0.25541362, -0.2963531, 0.4881668
282, 406800355, 0.6616097, 0.12316234, -0.7100691, 0.20713733, -0.118618324, -0.17753243, 0.53103447
283, 406817022, 0.6623061, 0.12365409, -0.7087266, 0.20920634, 0.042972602, -0.03543999, 0.3165741
284, 406833689, 0.66312927, 0.12418671, -0.7073217, 0.21103005, 0.14186367, 0.24518935, 0.094387054
285, 406850356, 0.66379184, 0.12496977, -0.7059677, 0.21300949, 0.25151065, 0.44443992, -0.046923637
286, 406867023, 0.6643158, 0.1257772, -0.7047105, 0.21505377, 0.14161825, 0.38578978, 0.14677715
287, 406883690, 0.66499585, 0.12613696, -0.7035784, 0.21644418, 0.27591377, 0.3634441, 0.34761333
288, 406900357, 0.665735, 0.12640132, -0.70247805, 0.21758872, 0.4796512, 0.46315426, 0.067689896
289, 406917024, 0.6669567, 0.12653159, -0.70081204, 0.2191377, 0.51752144, 0.35235482, 0.16180038
290, 406933691, 0.6684593, 0.12661293, -0.6988311, 0.2208324, 0.10115481, 0.22632414, 0.26749802
291, 406950358, 0.6701207, 0.12664768, -0.6967575, 0.22232452, -0.3005762, 0.054593317, 0.4420824
292, 406967025, 0.6719746, 0.12652943, -0.69463974, 0.22342075, -0.21730913, 0.15671119, 0.41503334
293, 406983692, 0.67463064, 0.12601162, -0.69191563, 0.2241603, 0.07262025, 0.058916505, 0.40702724
294, 407000359, 0.6780049, 0.12526596, -0.6885394, 0.22479305, 0.18493149, 0.11420942, 0.25621414
295, 407017026, 0.68158513, 0.12463367, -0.6848928, 0.22545636, 0.2253918, -0.1467258, -0.1671896
296, 407033693, 0.6851271, 0.12397282, -0.68126947, 0.22606233, 0.057084315, -0.26871225, 0.07434654
297, 407050360, 0.6881364, 0.12329078, -0.6781417, 0.22669838, 0.2706447, -0.0095979255, 0.38367176
298, 407067027, 0.6907428, 0.12281682, -0.67537504, 0.22728728, 0.7874974, 0.49234265, 0.012757301
299, 407083694, 0.6932861, 0.1222567, -0.6726267, 0.22799446, 0.820673, 1.1362911, -0.216156
300, 407100361, 0.69644016, 0.120939404, -0.6696839, 0.22774725, 0.45727354, 1.1722054, 0.15243626
301, 407117028, 0.70042473, 0.11906034, -0.6663405, 0.22632056, -0.106034994, 0.710886, 0.42058563
302, 407133695, 0.7051536, 0.1167626, -0.6624483, 0.224249, -0.6737342, 0.16566668, 0.5149698
303, 407150362, 0.70978093, 0.11446262, -0.6583401, 0.222931, -0.84600997, -0.60710263, 0.49467373
304, 407167029, 0.7133731, 0.112306714, -0.65489346, 0.2227135, 0.058662318, -0.7667898, -0.097691536
305, 407183696, 0.71623236, 0.11154628, -0.65136695, 0.2242553, 0.27631298, -0.30908936, -0.3481493
306, 407200363, 0.7187386, 0.11115576, -0.6481177, 0.22583932, 0.9117317, 0.0012975485, -0.24947262
307, 407217030, 0.7216272, 0.110266544, -0.6448867, 0.22631218, 0.24141099, -0.11274323, 0.2114973
308, 407233697, 0.72501856, 0.10912281, -0.6415481, 0.22551489, -0.6893506, 0.0422083, 0.18717384
309, 407250364, 0.72828084, 0.10723732, -0.6387094, 0.22395998, -1.4421198, -0.26347488, 0.07662201
310, 407267031, 0.73054516, 0.10481443, -0.6369669, 0.22269158, -1.0177372, -0.594381, -0.14590836
311, 407283698, 0.7323016, 0.10338042, -0.6350144, 0.22316885, -0.70706713, -0.818789, 0.13276958
312, 407300365, 0.7338724, 0.10359399, -0.63254017, 0.22492966, -0.43239295, -0.93017954, 0.2684183
313, 407317032, 0.73596025, 0.10469917, -0.6291224, 0.22716978, -1.2020535, -1.0926617, 0.5450506
314, 407333699, 0.73816496, 0.105431065, -0.6258958, 0.22858633, -1.1144754, -0.4330648, 0.5039358
315, 407350366, 0.7403603, 0.106331766, -0.6228325, 0.22943501, -0.37172842, -0.050907534, 0.3239298
316, 407367033, 0.7429446, 0.10567433, -0.619876, 0.22939229, 0.1407604, -0.5515408, 0.14284134
317, 407383700, 0.7454614, 0.10410301, -0.61729133, 0.22891441, -0.06518263, -0.55070806, -0.007080078
318, 407400367, 0.7476001, 0.10254255, -0.61506224, 0.22864413, -0.24393623, -0.21232551, 0.052703857
319, 407417034, 0.74928844, 0.10129248, -0.61339086, 0.22816424, 0.3931088, 0.3713761, -0.07394791
320, 407433701, 0.75118834, 0.099667534, -0.6116863, 0.22720706, 0.6270392, 0.23034771, -0.015417099
321, 407450368, 0.7534786, 0.09753853, -0.6095621, 0.22625451, 0.14506707, -0.19477098, 0.35085297
322, 407467035, 0.75525653, 0.096080385, -0.6078602, 0.22552787, -0.468092, -0.113177516, 0.44897366
323, 407483702, 0.75644815, 0.09540009, -0.60679257, 0.22469631, -0.3652966, 0.37602198, -0.1456089
324, 407500369, 0.75730616, 0.09461797, -0.60592145, 0.22448707, 0.46044832, 1.0297582, -0.20526981
325, 407517036, 0.75836724, 0.09285222, -0.6050246, 0.2240614, 1.0316616, 0.4781507, 0.32783508
326, 407533703, 0.75961864, 0.09074046, -0.6041242, 0.2231153, 0.46241745, -0.22145739, 0.36135387
327, 407550370, 0.7607022, 0.08973043, -0.6030779, 0.22266227, 0.25567514, -0.16621105, 0.19852829
328, 407567037, 0.7620161, 0.08940789, -0.60149544, 0.22257961, 0.16943713, -0.09692941, 0.14455032
329, 407583704, 0.76342714, 0.08932893, -0.59972197, 0.22256117, 0.07050582, 0.016334997, 0.10334587
330, 407600371, 0.7647507, 0.08851557, -0.59822357, 0.22237512, -0.13576534, -0.47693375, 0.15086079
331, 407617038, 0.76561385, 0.08690058, -0.5973434, 0.22240826, -0.14120252, -1.1660179, 0.15825653
332, 407633705, 0.7663127, 0.085865416, -0.59631616, 0.22315808, -0.5356041, -1.7068437, 0.2964754
333, 407650372, 0.7668316, 0.08640688, -0.59497225, 0.22474848, -1.0169281, -0.81002545, 0.13313389
334, 407667039, 0.7676545, 0.087398976, -0.5929991, 0.22676164, -1.0363173, 0.42305857, 0.021735191
335, 407683706, 0.76927, 0.086696185, -0.5906701, 0.22763292, -1.3809888, 0.517376, 0.20375252
336, 407700373, 0.770796, 0.084405564, -0.5889802, 0.22771041, -1.080283, 0.33842757, -0.17523575
337, 407717040, 0.7720766, 0.08226031, -0.5872878, 0.22852695, -0.3294961, -1.0539186, -0.20290089
338, 407733707, 0.77364796, 0.080642916, -0.5847865, 0.2301975, 0.25879985, -1.3244205, -0.082429886
339, 407750374, 0.77573544, 0.08081961, -0.580857, 0.2330413, 0.2270078, -0.48398814, 0.18820858
340, 407767041, 0.7780852, 0.080868505, -0.5767926, 0.23527572, -0.32519257, 0.32132396, 0.2301817
341, 407783708, 0.7800355, 0.08032087, -0.5735652, 0.23688897, -0.033666417, 0.47682813, -0.08157635
342, 407800375, 0.78226304, 0.078700356, -0.5701595, 0.23830523, 0.38688082, -0.23266369, -0.19260025
343, 407817042, 0.78446656, 0.076021455, -0.5668231, 0.23988515, 0.27310824, -0.74055797, -0.09501076
344, 407833709, 0.78644204, 0.074897416, -0.5631409, 0.24242951, 0.03461858, 0.04795884, 0.1251421
345, 407850376, 0.788245, 0.07564107, -0.55904555, 0.24579814, -0.4129129, 1.3850975, 0.047694206
346, 407867043, 0.7898002, 0.07714282, -0.5552729, 0.24887146, -0.6230057, 1.3169885, 0.12456703
347, 407883710, 0.79154897, 0.0775006, -0.55193925, 0.25061336, -0.77701867, 0.8454459, 0.19825172
348, 407900377, 0.79336715, 0.07679593, -0.5487778, 0.25201964, -0.013332548, 0.7545527, -0.13293934
349, 407917044, 0.7953229, 0.07657099, -0.545125, 0.2538452, -0.26616997, 0.8672882, 0.12651253
350, 407933711, 0.7969974, 0.076945245, -0.5416175, 0.25597933, -0.02702495, 1.3921397, 0.100027084
351, 407950378, 0.7984072, 0.077322446, -0.5385749, 0.25788414, 0.33244154, 0.8013994, 0.15466213
352, 407967045, 0.799985, 0.077311575, -0.535577, 0.25923866, 0.16331421, -0.32466346, 0.13096237
353, 407983712, 0.80149835, 0.07653725, -0.5329961, 0.26011097, 0.31140494, -1.3103784, -0.010770798
354, 408000379, 0.80317074, 0.07604215, -0.52975285, 0.26171854, -0.057399914, -1.1233486, 0.02214241
355, 408017046, 0.8046043, 0.07668591, -0.5263837, 0.26391643, -0.5266797, 0.0390433, -0.008210182
356, 408033713, 0.80624276, 0.077376075, -0.5226984, 0.26603076, -0.47473502, 0.56219417, -0.26667023
357, 408050380, 0.808418, 0.07692861, -0.5186974, 0.26738682, -0.3112047, -0.76505494, -0.43120766
358, 408067047, 0.8107719, 0.07561245, -0.5144495, 0.2688375, -0.7456631, -1.7697427, -0.18280602
359, 408083714, 0.8127867, 0.07560533, -0.5097532, 0.27168635, -0.9833077, -0.7106726, -0.4014988
360, 408100381, 0.8143677, 0.07789191, -0.5045068, 0.27606437, -0.36745775, 1.0455738, -0.2713127
361, 408117048, 0.8163674, 0.08018541, -0.49887604, 0.2797102, 0.30141616, 1.1579901, 0.10260868
362, 408133715, 0.818779, 0.081110954, -0.4934629, 0.28198737, 0.24663001, 0.14726101, -0.027100563
363, 408150382, 0.8210686, 0.08080506, -0.4888171, 0.283505, -0.28216118, -0.45674834, -0.3072977
364, 408167049, 0.822854, 0.0811972, -0.48429412, 0.28596845, 0.30335, -0.30074415, -0.0026903152
365, 408183716, 0.82436705, 0.08293753, -0.4796101, 0.28898916, 0.82931936, 0.9812161, 0.64453316
366, 408200383, 0.825997, 0.08492413, -0.4748462, 0.29161328, 0.74956006, 1.8995087, 0.47195625
367, 408217050, 0.82792443, 0.08520855, -0.4707327, 0.2927314, 0.3908562, 0.98481226, 0.12127304
368, 408233717, 0.82977295, 0.08388162, -0.46731192, 0.2933606, 0.5263435, -0.41235575, 0.17286015
369, 408250384, 0.8313298, 0.08269155, -0.46389073, 0.29471764, 0.9648909, -0.53931695, 0.08714676
370, 408267051, 0.83278704, 0.08244633, -0.46015057, 0.29653, 1.2658875, 0.5996284, 0.38805962
371, 408283718, 0.8339852, 0.08332078, -0.45649523, 0.2985611, 0.5172398, 1.1754222, 0.607975
372, 408300385, 0.835205, 0.08358281, -0.4535031, 0.29963613, 0.334691, 0.43080077, 0.5264921
373, 408317052, 0.8365242, 0.08321091, -0.45047605, 0.30062377, 0.433958, -0.15139672, 0.55706406
374, 408333719, 0.8378458, 0.083148204, -0.44708848, 0.30201447, 0.6864964, -0.036688756, 0.28298092
375, 408350386, 0.83913714, 0.08363754, -0.4434315, 0.30368152, 0.5880235, 0.4012019, 0.13272381
376, 408367053, 0.8404168, 0.084113464, -0.44002816, 0.30495882, 0.3200974, 0.8449536, 0.21562004
377, 408383720, 0.84174514, 0.08413516, -0.4369381, 0.30573136, 0.112106055, 0.34816232, 0.4303627
378, 408400387, 0.8430109, 0.08372388, -0.4341564, 0.30631915, -0.2534297, -0.14111044, 0.14341259
379, 408417054, 0.8443141, 0.08327449, -0.4311094, 0.30715498, 0.07740299, 0.657983, -0.033257484
380, 408433721, 0.84559464, 0.08274594, -0.42813036, 0.30794096, 0.26965496, 1.035026, -0.09056759
381, 408450388, 0.8467559, 0.08246913, -0.4255835, 0.30835378, 0.31725988, 0.81714445, 0.5060873
382, 408467055, 0.8479444, 0.08185485, -0.42343897, 0.3082042, 0.36770028, -0.24917288, 0.8564329
383, 408483722, 0.8489899, 0.08145465, -0.42121306, 0.30848184, 0.63105863, -0.7016095, 0.5088606
384, 408500389, 0.8499725, 0.08151264, -0.4184653, 0.3094986, 0.8867054, -0.34317112, -0.2322998
385, 408517056, 0.85077536, 0.08195522, -0.41564998, 0.31096625, 0.3973287, 0.2417472, -0.3392048
386, 408533723, 0.85154355, 0.08213435, -0.4135657, 0.3115946, 0.19489503, 0.91600615, 0.7161379
387, 408550390, 0.85241175, 0.08188548, -0.41178143, 0.31164953, 0.42640862, 0.60583544, 1.1633968
388, 408567057, 0.85331637, 0.08151005, -0.40994573, 0.3116921, 0.48550567, 0.54930395, 0.5267601
389, 408583724, 0.85435426, 0.08090063, -0.4076927, 0.31196243, 0.8869164, -0.009872064, -0.040112495
390, 408600391, 0.8553633, 0.080629654, -0.40495962, 0.31282645, 0.3846014, 0.10373549, 0.08788395
391, 408617058, 0.8563543, 0.08066979, -0.40216666, 0.31370687, 0.2295934, 0.71242917, 0.4644251
392, 408633725, 0.8572935, 0.080779284, -0.3997991, 0.31413966, -0.098128, 0.9419989, 0.4925785
393, 408650392, 0.85795873, 0.08035041, -0.39878127, 0.31372675, -0.19857003, 0.8943431, 0.45065117
394, 408667059, 0.85869414, 0.07908673, -0.39796433, 0.3130726, 0.22180577, 1.0998974, 0.544857
395, 408683726, 0.85947496, 0.077413306, -0.39688566, 0.31271732, 1.3758684, -0.12935846, 0.4132557
396, 408700393, 0.8602416, 0.07686805, -0.3950793, 0.31303105, 1.3883313, -1.6855903, 0.47807884
397, 408717060, 0.86084265, 0.077795446, -0.39274582, 0.3140841, 0.048594624, -0.97611326, 0.016821861
398, 408733727, 0.86130023, 0.07851053, -0.39041913, 0.3155491, -0.25212216, 0.42897764, -0.019991875
399, 408750394, 0.86189634, 0.07827209, -0.38850462, 0.31634244, -0.048332218, 1.0608106, 0.17872524
400, 408767061, 0.8626581, 0.0778208, -0.38689175, 0.31635424, 0.26966235, -0.12752593, 0.15902328
401, 408783728, 0.86339533, 0.077536575, -0.38543501, 0.31619096, -0.23352946, -1.2355773, -0.07669163
402, 408800395, 0.8639954, 0.07769472, -0.38360432, 0.31673867, -0.56702286, -0.6621329, -0.4045372
403, 408817062, 0.8644766, 0.0780288, -0.3815879, 0.3177774, -1.153285, 0.843162, -0.3629074
404, 408833729, 0.8651243, 0.07765324, -0.3799876, 0.31802422, -0.6609888, 1.6135119, -0.038780212
405, 408850396, 0.8660354, 0.07609558, -0.37916926, 0.31689614, -0.59922975, -0.119496845, 0.43892765
406, 408867063, 0.86684036, 0.07487245, -0.37827912, 0.31604874, -0.30517924, -1.103511, 0.034092903
407, 408883730, 0.8674676, 0.07472715, -0.376634, 0.31632707, -0.44719332, -0.7990773, -0.464386
408, 408900397, 0.8679368, 0.075170204, -0.37462637, 0.31731763, -0.66836834, 0.55629575, -0.47066498
409, 408917064, 0.8685532, 0.07487672, -0.3731925, 0.31738982, -0.29695106, 0.6822297, 0.13617325
410, 408933731, 0.86922675, 0.07415372, -0.37255013, 0.3164695, 0.08021925, -0.5268854, 0.25728416
411, 408950398, 0.86979085, 0.073848695, -0.37157178, 0.3161406, 0.03100013, -0.8160202, 0.036417007
412, 408967065, 0.8703775, 0.0740519, -0.36973688, 0.31662947, 0.19318627, 0.077275746, 0.01645565
413, 408983732, 0.87108135, 0.07420572, -0.36747396, 0.3172916, 0.2516928, 0.8915345, 0.061284065
414, 409000399, 0.8718526, 0.07396464, -0.3655254, 0.31748068, 0.07763052, 0.22281973, 0.46426964
415, 409017066, 0.8724136, 0.0736426, -0.36441588, 0.31728947, 0.016183233, -0.20049442, 0.265913
416, 409033733, 0.8728899, 0.073450476, -0.3632407, 0.3173716, -0.16271609, 0.24210091, 0.07045841
417, 409050400, 0.8734519, 0.07330937, -0.36169985, 0.31761762, 0.05190798, 0.88874483, -0.06924343
418, 409067067, 0.8742967, 0.07248003, -0.3600208, 0.31739137, 0.5349052, 0.40312707, 0.1789341
419, 409083734, 0.875142, 0.07168145, -0.3584028, 0.31707382, 0.725224, -0.84390813, 0.5397606
420, 409100401, 0.8756585, 0.071701415, -0.3567107, 0.31755117, 0.60011953, -1.0826648, 0.42211437
421, 409117068, 0.8757552, 0.07224247, -0.3555204, 0.31849545, 0.07096447, -0.17603445, -0.22131729
422, 409133735, 0.8758772, 0.07297674, -0.35422343, 0.31943628, -0.19780383, 1.1252052, -0.02753067
423, 409150402, 0.87634116, 0.07300514, -0.35302415, 0.319485, 0.05964957, 1.2646974, 0.543766
424, 409167069, 0.87702197, 0.07266604, -0.3517305, 0.3191205, 0.63367444, 0.5058375, 0.7361183
425, 409183736, 0.8776168, 0.07260628, -0.34999222, 0.31940982, 0.56769454, -0.18473925, 0.30504608
426, 409200403, 0.87794834, 0.07308483, -0.3482672, 0.32027403, 0.06538, -0.39999726, 0.25117493
427, 409217070, 0.878014, 0.073897295, -0.34702957, 0.3212496, -0.4610945, 0.5671868, 0.13986397
428, 409233737, 0.8782079, 0.07379851, -0.3464021, 0.32141972, 0.13869068, 0.58205694, 0.005203247
429, 409250404, 0.8785828, 0.07333641, -0.34571525, 0.32124016, 0.21921211, -0.09150503, 0.07410622
430, 409267071, 0.8788323, 0.07344058, -0.34474576, 0.3215759, 0.008934259, 0.17368074, 0.035420418
431, 409283738, 0.87913585, 0.07348984, -0.3437352, 0.32181603, -0.18847796, 0.52579445, 0.2928915
432, 409300405, 0.8794875, 0.07303955, -0.34306234, 0.32167614, 0.020985184, -0.06904349, 0.23442745
433, 409317072, 0.8798631, 0.07249869, -0.34253576, 0.3213324, 0.02977729, -0.77691007, 0.13205051
434, 409333739, 0.88011855, 0.07253494, -0.34149352, 0.32173362, -0.4091988, -0.025367156, -0.1835289
435, 409350406, 0.88032764, 0.07279187, -0.3402015, 0.32247138, -0.09968544, 1.0250363, 0.10438824
436, 409367073, 0.88059, 0.07253266, -0.3394522, 0.32260314, 0.073927805, 0.2782881, 0.3877058
437, 409383740, 0.8808356, 0.07170142, -0.33960724, 0.32195494, 0.20771663, -0.87989295, 0.3008957
438, 409400407, 0.88078773, 0.07198721, -0.33950785, 0.3221264, -0.13246585, -1.348296, -0.13768005
439, 409417074, 0.88061625, 0.07319768, -0.33874798, 0.32312086, -0.8097025, 0.18687767, -0.4383669
440, 409433741, 0.88079786, 0.073643744, -0.33778653, 0.32353085, -0.30022663, 1.3853796, -0.21195793
441, 409450408, 0.8812965, 0.073089175, -0.3370252, 0.32309252, -0.09762286, 0.7146807, 0.49204922
442, 409467075, 0.881751, 0.07219433, -0.33676815, 0.32232046, 0.06450785, -0.803056, 0.027648926
443, 409483742, 0.8819624, 0.07220105, -0.3365215, 0.32199836, -0.5026987, -1.2150403, -0.28852367
444, 409500409, 0.88213044, 0.07252301, -0.33557785, 0.32245013, -1.0200735, 0.29221943, -0.4736004
445, 409517076, 0.88249356, 0.07227511, -0.33439997, 0.32273585, -0.28880826, 1.6127397, 0.16599369
446, 409533743, 0.8831908, 0.071230814, -0.33341777, 0.32207602, 0.5090389, 0.43178937, 0.41248894
447, 409550410, 0.88377, 0.070317104, -0.33289388, 0.32122895, 0.11115411, -1.2762377, 0.1475029
448, 409567077, 0.8840189, 0.07033205, -0.33227047, 0.32118583, -0.2948898, -0.8639672, -0.33797646
449, 409583744, 0.884127, 0.07065254, -0.33121568, 0.32190695, -0.42423967, 0.5358642, -0.20453167
450, 409600411, 0.88457775, 0.07026062, -0.329944, 0.32206097, 0.19180273, 1.1451038, 0.20677853
451, 409617078, 0.885176, 0.06938092, -0.3289907, 0.32158217, 0.5191086, 0.31318927, 0.53924274
452, 409633745, 0.88545674, 0.0691207, -0.32845405, 0.3214135, 0.46495077, -0.9476416, 0.4114685
453, 409650412, 0.8854331, 0.069188595, -0.32841814, 0.32150078, 0.016446754, -0.037406962, 0.02160263
454, 409667079, 0.88547564, 0.06913137, -0.3281689, 0.32165086, 0.3696685, 1.2932382, 0.37451267
455, 409683746, 0.8857984, 0.06857611, -0.3277233, 0.32133502, 0.72650564, 0.42163116, 0.68206406
456, 409700413, 0.88611245, 0.06821576, -0.3272505, 0.3210274, 0.3465888, -0.60493183, 0.62835026
457, 409717080, 0.88616693, 0.068241574, -0.32666326, 0.3214692, -0.012845513, -0.30086085, -0.1016016
458, 409733747, 0.88588196, 0.06894259, -0.32616466, 0.32260928, 0.35073856, 0.46025765, 0.15229034
459, 409750414, 0.885783, 0.06950153, -0.32605502, 0.3228719, 0.5706272, 0.807084, 0.48832226
460, 409767081, 0.88587666, 0.06955124, -0.32621405, 0.3224433, 0.5008845, -0.24337105, 0.36065483
461, 409783748, 0.88574415, 0.069769904, -0.32640213, 0.3225698, -0.022193495, -0.30166957, 0.18467617
462, 409800415, 0.88530093, 0.07009501, -0.3268612, 0.32325068, -0.3380334, 0.5590169, -0.031175613
463, 409817082, 0.8849316, 0.07017217, -0.32770953, 0.32338598, -0.40809688, 1.0543233, 0.35324478
464, 409833749, 0.8846514, 0.06989068, -0.32944715, 0.32244688, 0.09164992, 0.4859194, 0.26851082
465, 409850416, 0.8844203, 0.07000003, -0.33068994, 0.32178423, 0.16368033, -0.4754281, 0.38265896
466, 409867083, 0.88390905, 0.070787854, -0.33167723, 0.32200086, 0.062448848, -0.30038422, 0.21425247
467, 409883750, 0.8831341, 0.07148442, -0.33344164, 0.32215086, -0.19673006, 0.9159823, 0.16994476
468, 409900417, 0.88245404, 0.07160194, -0.33589, 0.3214439, -0.014810639, 0.9882146, 0.4084072
469, 409917084, 0.8819041, 0.0714197, -0.33843797, 0.32031938, 0.06258944, 0.34367615, 0.36741257
470, 409933751, 0.8812526, 0.07128322, -0.34127048, 0.31913522, -0.03746256, -0.17523952, 0.3712921
471, 409950418, 0.88040996, 0.071384154, -0.3444009, 0.31807348, -0.16352096, 0.2883422, 0.14296532
472, 409967085, 0.8793307, 0.07169385, -0.34800333, 0.31706667, 0.041213777, 0.7497849, 0.36901474
473, 409983752, 0.87824583, 0.07247281, -0.35144162, 0.3161024, 0.3221718, 0.47681594, 0.6177883
474, 410000419, 0.8772397, 0.07310883, -0.35474965, 0.31505314, 0.30229837, 0.46382096, 0.42276192
475, 410017086, 0.87623084, 0.073367044, -0.35820127, 0.3138932, 0.20513617, 0.07565455, 0.25837803
476, 410033753, 0.8749937, 0.073138185, -0.36243615, 0.31253356, -0.20174101, -0.1299482, 0.19595814
477, 410050420, 0.87351406, 0.07290843, -0.3669099, 0.31150407, -0.07744433, 0.5502903, 0.09086323
478, 410067087, 0.8720564, 0.072405025, -0.37156117, 0.31018978, 0.46797758, 0.4109045, 0.32254028
479, 410083754, 0.8706078, 0.07208517, -0.37622708, 0.30870572, 0.56101125, -0.004142589, 0.41209412
480, 410100421, 0.8691246, 0.07211806, -0.38053605, 0.307594, 0.44692758, -0.19491364, 0.22140026
481, 410117088, 0.867477, 0.07238346, -0.3848078, 0.30686787, 0.02532916, -0.6312813, 0.3453064
482, 410133755, 0.86565924, 0.07278215, -0.3891477, 0.306433, 0.0758945, -0.12931591, -0.010570526
483, 410150422, 0.86359704, 0.072972365, -0.39410666, 0.3058685, 0.2028132, 0.15613799, -0.24926376
484, 410167089, 0.8612845, 0.073711164, -0.39951995, 0.30518794, -0.023214726, 0.117555134, 0.025930405
485, 410183756, 0.859159, 0.073883034, -0.40485346, 0.3041067, -0.33555508, 0.45037258, 0.13777733
486, 410200423, 0.8569466, 0.07371194, -0.41030505, 0.30308238, -0.40657163, 0.4567542, 0.43173218
487, 410217090, 0.85476947, 0.07316863, -0.41577643, 0.3019034, -0.2816983, 0.46448746, 0.5775547
488, 410233757, 0.8525189, 0.072725624, -0.4212603, 0.3007697, 0.27028906, 0.42290014, -0.13575077
489, 410250424, 0.8501548, 0.07350805, -0.42633924, 0.30011365, 0.11846835, 0.27798173, -0.2986288
490, 410267091, 0.8479227, 0.07447039, -0.43105984, 0.29944745, 0.007562114, 0.43326265, -0.09803867
491, 410283758, 0.84573424, 0.07429634, -0.4362931, 0.29809824, 0.23670536, 0.14265229, 0.23624802
492, 410300425, 0.84349406, 0.07366886, -0.44175857, 0.29654714, 0.43334782, -0.5534539, 0.41237164
493, 410317092, 0.8411453, 0.07306092, -0.44726747, 0.29510808, 0.3439804, -0.89901143, 0.08049297
494, 410333759, 0.8386105, 0.0728046, -0.45275614, 0.29401392, 0.4206782, -0.44268504, -0.27427292
495, 410350426, 0.835963, 0.07336464, -0.4580669, 0.29318717, 0.019834762, 0.31518617, -0.12642479
496, 410367093, 0.8334652, 0.07371084, -0.4634048, 0.29182002, -0.0056072697, 1.241016, -0.0429945
497, 410383760, 0.83112806, 0.07293619, -0.46910855, 0.2895584, 0.100514226, 0.97483563, 0.23944664
498, 410400427, 0.8288796, 0.07130446, -0.4750745, 0.28666833, 0.16521497, 0.42564756, 0.27291298
499, 410417094, 0.8266423, 0.06965868, -0.48094955, 0.2837214, 0.38623306, 0.037290342, 0.21162605
500, 410433761, 0.8243566, 0.06854709, -0.48642123, 0.28130448, 0.511652, -0.030643795, 0.29044914
501, 410450428, 0.82190084, 0.06815469, -0.49181047, 0.27920702, 0.49088496, 0.5729816, 0.33188534
502, 410467095, 0.81945854, 0.068123996, -0.4970135, 0.27717245, 0.42139927, 0.83670604, 0.2599964
503, 410483762, 0.81707746, 0.06786421, -0.50225466, 0.2748078, 0.26490355, 1.0457753, 0.12284756
504, 410500429, 0.8147532, 0.06721128, -0.50772244, 0.27180454, 0.32901958, 0.7805422, 0.15465736
505, 410517096, 0.81253123, 0.06592349, -0.5133645, 0.26814982, 0.5202935, 0.27746776, 0.047719
506, 410533763, 0.81029016, 0.06433721, -0.51901644, 0.26441044, 0.5983469, -0.20551625, 0.058953285
507, 410550430, 0.8078063, 0.063533515, -0.5245246, 0.2613175, 0.80188847, 0.12897614, -0.06359482
508, 410567097, 0.8052219, 0.06404014, -0.52972716, 0.2586617, 0.51750493, 0.4369856, 0.3501587
509, 410583764, 0.8026585, 0.064922206, -0.534754, 0.256053, 0.5850689, 0.9748553, 0.28255463
510, 410600431, 0.800227, 0.06504022, -0.53992003, 0.2527709, 0.43344617, 0.80334365, 0.16177845
511, 410617098, 0.7977877, 0.064492546, -0.54530007, 0.249045, 0.6462028, 0.89722884, -0.18205166
512, 410633765, 0.7955046, 0.06385737, -0.5502996, 0.24549006, 0.65095556, 0.22350061, -0.097971916
513, 410650432, 0.79337794, 0.06334855, -0.5548811, 0.24216826, 0.4133738, -0.0014140548, 0.0625391
514, 410667099, 0.79105204, 0.0634678, -0.55944425, 0.23922956, 0.20196004, 0.011226832, -0.009569168
515, 410683766, 0.78851974, 0.06407297, -0.56408024, 0.23652677, 0.048005667, -0.0176516, -0.008944511
516, 410700433, 0.78552, 0.06560637, -0.5691257, 0.23398793, 0.1434314, 0.10007854, -0.35258865
517, 410717100, 0.78241307, 0.068448074, -0.5738983, 0.23191792, -0.14261244, 0.28003576, -0.49542427
518, 410733767, 0.7794163, 0.070810154, -0.5786518, 0.22947459, 0.065800875, 0.61751413, -0.59970665
519, 410750434, 0.77683383, 0.07163047, -0.5834932, 0.22568664, -0.24482, -0.1653437, -0.3902483
520, 410767101, 0.7740096, 0.071376994, -0.58897424, 0.22118765, -0.90024894, -1.0368656, -0.123166084
521, 410783768, 0.77008796, 0.07300106, -0.594923, 0.21840884, -0.2686818, -1.4099259, -0.26368904
522, 410800435, 0.76512855, 0.077656165, -0.600625, 0.21862738, 0.14867277, -1.4495672, -0.479887
523, 410817102, 0.75998867, 0.08416146, -0.60560215, 0.22040981, 0.0108376965, -0.76198375, -0.1397667
524, 410833769, 0.7553334, 0.089494616, -0.6102485, 0.22149347, 0.23021522, -0.33990762, -0.026586533
525, 410850436, 0.7517063, 0.09271837, -0.6142392, 0.22147551, 0.15801784, -1.3471442, 0.25954533
526, 410867103, 0.74900424, 0.09475765, -0.61732364, 0.22119123, -1.1182604, -1.9608961, 0.60643005
527, 410883770, 0.746324, 0.09674252, -0.62039226, 0.2208058, -1.9325867, -1.8204833, 0.5984211
528, 410900437, 0.74311054, 0.09873551, -0.62403536, 0.22049524, -2.0403137, -1.6084211, 0.28816795
529, 410917104, 0.7389578, 0.10138239, -0.6282045, 0.2214098, -1.1850965, -0.7076547, -0.01949215
530, 410933771, 0.7347055, 0.10471984, -0.63186663, 0.22357655, -0.2984859, 0.15832882, 0.053548813
531, 410950438, 0.7311684, 0.10777767, -0.6347529, 0.22553466, 0.0060241213, 0.6844651, 0.24590683
532, 410967105, 0.7288729, 0.11020373, -0.6366445, 0.226459, -0.2544029, 0.6294372, 0.335804
533, 410983772, 0.72767615, 0.11099048, -0.6380444, 0.22598274, -0.7908242, 0.23693223, 0.6261425
534, 411000439, 0.7266714, 0.1107785, -0.63978267, 0.22439909, -1.0752194, -0.32318118, 0.6123867
535, 411017106, 0.72525007, 0.110079624, -0.64213794, 0.22260714, -0.6147532, -0.84455734, 0.2128048
536, 411033773, 0.72313017, 0.10992685, -0.6447715, 0.22196645, -0.081926435, -0.85756904, -0.088624954
537, 411050440, 0.72086346, 0.11038726, -0.6471593, 0.22216097, 0.36450985, -0.23580942, 0.05060768
538, 411067107, 0.71900094, 0.11084209, -0.64921033, 0.22198589, 0.3923524, 0.43680668, 0.23556519
539, 411083774, 0.7177254, 0.11086134, -0.6510378, 0.2207494, 0.32103434, 0.6579981, 0.16003513
540, 411100441, 0.7167996, 0.11054399, -0.65276325, 0.2188125, 0.11057633, 0.65678793, 0.10119438
541, 411117108, 0.7159753, 0.10945138, -0.65455973, 0.2166831, 0.121029586, 0.007973936, 0.41615582
542, 411133775, 0.71508867, 0.10882605, -0.65609384, 0.2152816, -0.030552434, -0.33533767, 0.39081573
543, 411150442, 0.71398115, 0.108344525, -0.65760946, 0.2145756, 0.17611033, -0.6349438, 0.3991251
544, 411167109, 0.712058, 0.10856481, -0.659753, 0.21427405, 0.49278617, 0.0884676, 0.10568428
545, 411183776, 0.70950615, 0.109938845, -0.6621699, 0.21458277, 1.1154718, 0.71516085, -0.1361084
546, 411200443, 0.7072712, 0.11120329, -0.6643327, 0.21462452, 1.494354, 0.94757247, -0.06272125
547, 411217110, 0.7057599, 0.11249526, -0.665788, 0.21441673, 1.0393665, 0.8705751, 0.11257076
548, 411233777, 0.7048962, 0.11299729, -0.6669013, 0.21353167, 0.38891923, 0.4360946, 0.1927576
549, 411250444, 0.70399994, 0.11285961, -0.6682573, 0.21231887, -0.13902014, 0.09977456, 0.18119717
550, 411267111, 0.70258343, 0.11347132, -0.6698367, 0.21170744, -0.25948378, 0.03800089, -0.047748566
551, 411283778, 0.70138484, 0.11445061, -0.67092186, 0.21171825, -0.21781114, -0.18707721, 0.118229866
552, 411300445, 0.7007841, 0.11505371, -0.6714636, 0.21166284, -0.8165532, -0.4494104, 0.52468014
553, 411317112, 0.7006344, 0.11490716, -0.67190224, 0.2108439, -0.96978873, -0.69262207, 0.56054115
554, 411333779, 0.70066965, 0.114508465, -0.67218286, 0.21004781, -1.5123968, -1.3136976, 0.7170439
555, 411350446, 0.7002239, 0.11429025, -0.6728605, 0.2094832, -1.3035723, -0.6080133, 0.2775154
556, 411367113, 0.69944423, 0.114900425, -0.6734046, 0.2100057, -0.79646295, -0.1428335, 0.333951
557, 411383780, 0.6985485, 0.11454752, -0.67441833, 0.20992604, 0.17476836, 0.110692106, 0.53264236
558, 411400447, 0.6970016, 0.11490908, -0.6759808, 0.20984511, 0.8795011, 0.73519504, -0.065906525
559, 411417114, 0.6957587, 0.11591156, -0.6769342, 0.21034367, 1.4985627, 1.4539212, -0.3809967
560, 411433781, 0.6953784, 0.11646807, -0.6772089, 0.2104103, 1.156599, 1.3498255, -0.25016403
561, 411450448, 0.6957101, 0.11643461, -0.67702883, 0.2099107, 0.51964927, 0.5489623, -0.003230095
562, 411467115, 0.69654584, 0.11586177, -0.67650527, 0.2091432, -0.177611, -0.5416329, 0.28330612
563, 411483782, 0.69715285, 0.11490311, -0.6763503, 0.20814827, -0.9523771, -1.2457047, 0.6521015
564, 411500449, 0.69702464, 0.114924796, -0.6765221, 0.20800714, -1.0187551, -0.7245473, 0.3451023
565, 411517116, 0.6966236, 0.115398265, -0.67668164, 0.20856887, -0.60368747, -0.13647646, 0.15023708
566, 411533783, 0.6966578, 0.115630075, -0.6764771, 0.20898946, -0.1787469, 0.17180324, 0.20667076
567, 411550450, 0.69739616, 0.11604926, -0.67548394, 0.20950578, -0.18083853, -0.10859629, 0.22837353
568, 411567117, 0.6985061, 0.11682317, -0.6739485, 0.21032126, -0.61146486, -0.21804433, 0.15026855
569, 411583784, 0.69936734, 0.116986245, -0.6728758, 0.21080309, -0.8972945, -0.50980884, 0.51756954
570, 411600451, 0.6994814, 0.11670001, -0.6727801, 0.21088876, -0.4650482, -0.35658592, 0.40397072
571, 411617118, 0.6988524, 0.11746958, -0.67306274, 0.21164349, 0.19920637, 0.30469894, -0.21425247
572, 411633785, 0.69862115, 0.11828, -0.67276376, 0.21290252, 0.6756694, 0.5053353, 0.026333809
573, 411650452, 0.69912535, 0.11889531, -0.671766, 0.21405247, 0.5800349, 0.34719837, 0.27761745
574, 411667119, 0.6998536, 0.119203314, -0.67074156, 0.21471286, -0.029174251, 0.055228263, 0.4392805
575, 411683786, 0.7002829, 0.119151995, -0.67027754, 0.21479066, 0.022514014, 0.34640345, 0.28034592
576, 411700453, 0.7004992, 0.11942801, -0.6698041, 0.21540786, 0.06816385, 0.39220774, 0.09229851
577, 411717120, 0.7006302, 0.11947992, -0.6694492, 0.21605484, 0.24882804, 0.5692416, 0.033416748
578, 411733787, 0.701115, 0.11943363, -0.6687931, 0.21653964, 0.31632626, 0.50322926, 0.06255913
579, 411750454, 0.7022448, 0.11887566, -0.66766363, 0.21667095, 0.16978939, 0.07033227, 0.28408813
580, 411767121, 0.7035127, 0.117792085, -0.6666016, 0.21641983, -0.6133298, -0.6268997, 0.45050907
581, 411783788, 0.7040035, 0.11653066, -0.6665033, 0.21580835, -0.4077292, -0.33401486, 0.43747044
582, 411800455, 0.7040378, 0.11672245, -0.66627294, 0.21630368, -0.037320405, 0.17451814, -0.18634033
583, 411817122, 0.7044714, 0.117030464, -0.66539466, 0.21742623, 0.08414235, 0.3685493, 0.032069206
584, 411833789, 0.7054502, 0.11698677, -0.6640988, 0.21823588, -0.016737992, 0.08836959, 0.36873245
585, 411850456, 0.7065504, 0.116414785, -0.66297203, 0.21840875, -0.2321495, -0.50279266, 0.5158739
586, 411867123, 0.7072344, 0.11606605, -0.6622466, 0.21858186, -0.0668943, -0.32820672, 0.17947769
587, 411883790, 0.7078672, 0.11666156, -0.6610695, 0.2197757, 0.06394795, -0.04252295, 0.09340191
588, 411900457, 0.7089133, 0.11706122, -0.65949017, 0.2209332, 0.001001785, 0.1418359, 0.19334793
589, 411917124, 0.7103418, 0.117126204, -0.6576242, 0.22187069, -0.20840617, -0.10101819, 0.3294754
590, 411933791, 0.71190184, 0.11666246, -0.6558574, 0.2223443, -0.2772754, -0.41473678, 0.4047699
591, 411950458, 0.7133695, 0.116548724, -0.6541499, 0.22272998, -0.30496824, -0.20780693, 0.15842056
592, 411967125, 0.7146843, 0.116551034, -0.6525178, 0.22330046, -0.04007945, 0.04724835, 0.19060135
593, 411983792, 0.71626955, 0.11687936, -0.65042853, 0.2241435, 0.17914653, 0.49957365, 0.10865307
594, 412000459, 0.71861, 0.11721872, -0.647481, 0.2250063, 0.5502169, 0.35887766, 0.12515831
595, 412017126, 0.7220782, 0.117430896, -0.64329374, 0.22580151, 0.21057469, -0.18366954, 0.25548458
596, 412033793, 0.7256244, 0.11664142, -0.6393703, 0.22598594, -1.2786916, -1.2533866, 0.96354866
597, 412050460, 0.72803974, 0.1150834, -0.6372286, 0.22506383, -0.53906274, -0.9377571, 0.5322256
598, 412067127, 0.7296653, 0.11522247, -0.63516015, 0.2255756, 0.2523591, -0.635084, -0.24264526
599, 412083794, 0.7313273, 0.115698375, -0.6326913, 0.22688396, 0.7954764, -0.037527658, -0.21298313
600, 412100461, 0.73414105, 0.11554098, -0.6293055, 0.22729334, 0.5480877, 0.080792785, 0.16494465
601, 412117128, 0.7378488, 0.11364779, -0.62580675, 0.22589716, -0.5237338, -0.8383051, 0.7847338
602, 412133795, 0.7406554, 0.11062741, -0.623867, 0.22356504, -0.7702033, -0.8334755, 0.41383553
603, 412150462, 0.74216616, 0.108523205, -0.6229272, 0.22220232, -0.12434473, -0.294088, -0.24758911
604, 412167129, 0.74340695, 0.10796107, -0.6212964, 0.22289361, 0.9763895, 0.3425648, -0.32502174
605, 412183796, 0.74557614, 0.10739931, -0.6185397, 0.22358577, 0.9195153, 0.28224942, -0.038315773
606, 412200463, 0.748603, 0.10582068, -0.6153373, 0.22306015, -0.32298785, 0.13000414, 0.4208374
607, 412217130, 0.75159705, 0.1036373, -0.61240727, 0.22207808, -1.0612386, 0.24905556, 0.448308
608, 412233797, 0.7535539, 0.101506576, -0.6105515, 0.22154, -0.5582697, 0.090916075, 0.20022106
609, 412250464, 0.7551299, 0.10146776, -0.6081095, 0.22290371, 0.54077035, 0.27403712, 0.022462845
610, 412267131, 0.7570138, 0.1023502, -0.60480225, 0.22509828, 0.7565896, 0.06257519, -0.12225056
611, 412283798, 0.7593231, 0.10222802, -0.6013759, 0.22655019, 0.43114576, -0.22904775, -0.012991905
612, 412300465, 0.7623631, 0.10023344, -0.5977417, 0.22684997, -0.2777953, -0.5076465, 0.49943542
613, 412317132, 0.7648342, 0.09792325, -0.5946883, 0.22756445, -0.52428895, -0.34693205, 0.13475227
614, 412333799, 0.7663551, 0.09709173, -0.5919451, 0.22994393, -0.49431142, 0.22838403, -0.23948956
615, 412350466, 0.7681921, 0.096458025, -0.5888394, 0.23204602, 0.13789184, 0.15414129, -0.2561674
616, 412367133, 0.7706902, 0.09449152, -0.5855634, 0.23285942, 0.23400733, -0.80954707, -0.21320915
617, 412383800, 0.7736625, 0.09041329, -0.5823592, 0.23265848, -0.52705026, -1.5771915, 0.14121056
618, 412400467, 0.7758069, 0.08645215, -0.5798043, 0.23340292, -1.2915229, -1.0593868, 0.15354633
619, 412417134, 0.7771131, 0.08511175, -0.57728016, 0.23579447, -0.036640927, -0.41745475, 0.07844925
620, 412433801, 0.77911824, 0.08573684, -0.57294613, 0.23949334, 0.74153465, 0.40558204, -0.1052351
621, 412450468, 0.78158695, 0.08581403, -0.5682396, 0.24261428, 0.18408169, 0.47772262, -0.2334671
622, 412467135, 0.78423256, 0.08367389, -0.56449443, 0.24356583, -0.74665755, 0.07300257, -0.1900711
623, 412483802, 0.7863719, 0.08067198, -0.56169266, 0.24415757, -0.6258282, 0.060947903, -0.025557518
624, 412500469, 0.78818876, 0.07980774, -0.55842274, 0.24607615, 0.17888948, 0.8216045, 0.3007002
625, 412517136, 0.7900581, 0.080881126, -0.5542994, 0.24903546, 0.57913506, 1.1553004, 0.14922523
626, 412533803, 0.7924704, 0.081247225, -0.5498938, 0.2510107, -0.18471335, 0.22986196, -0.10099697
627, 412550470, 0.7946413, 0.08041585, -0.546272, 0.25232026, -0.41338095, -0.07719154, -0.013319969
628, 412567137, 0.7963649, 0.080647804, -0.5427166, 0.2544749, -0.15581311, 0.8780248, 0.40863228
629, 412583804, 0.7977288, 0.082202874, -0.53906345, 0.25745293, 0.62938344, 2.348571, 0.2983408
630, 412600471, 0.7995719, 0.08390461, -0.5346807, 0.2603104, 1.4125696, 3.0878325, 0.2886114
631, 412617138, 0.8018661, 0.08256544, -0.53143, 0.26033795, 0.6755581, 0.8104007, 0.111618996
632, 412633805, 0.80366087, 0.07906151, -0.5297902, 0.25923157, 0.43398795, -1.16429, 0.18474483
633, 412650472, 0.80478436, 0.076754056, -0.52820134, 0.25968143, 0.6823971, -1.7644131, 0.44235706
634, 412667139, 0.80581033, 0.07727431, -0.52533674, 0.26214495, 0.8035438, -0.3578388, 0.7111912
635, 412683806, 0.8069673, 0.079494804, -0.52148885, 0.26558167, 0.5909647, 1.2489164, 0.21971703
636, 412700473, 0.8083554, 0.080048375, -0.51855874, 0.26692837, -0.16476347, 0.30692106, -0.17101288
637, 412717140, 0.8096819, 0.07893695, -0.516489, 0.26725164, -0.6505421, -1.160086, -0.22953129
638, 412733807, 0.8108311, 0.07841979, -0.5138301, 0.26903924, -0.18304326, -1.2751596, -0.034597397
639, 412750474, 0.8119398, 0.080192894, -0.50993437, 0.27256206, 0.123225376, 0.32509142, 0.33169746
640, 412767141, 0.81332296, 0.083043516, -0.5052735, 0.27623996, 0.084221914, 1.8906965, 0.31649494
641, 412783808, 0.8154419, 0.08386487, -0.50054175, 0.27835137, -0.0023839893, 1.2275665, -0.19533825
642, 412800475, 0.8178367, 0.08254017, -0.49638072, 0.27917138, -0.7936299, -1.2876596, -0.2141428
643, 412817142, 0.8197183, 0.081599034, -0.4926212, 0.2805852, -0.6997504, -1.7233465, -0.2366066
644, 412833809, 0.8214831, 0.08192307, -0.48810297, 0.28321376, -0.09234349, -0.22055823, -0.06532574
645, 412850476, 0.8234406, 0.08225177, -0.48332772, 0.28561294, 0.4217752, 0.85991657, -0.17214203
646, 412867143, 0.82575846, 0.08116004, -0.47884476, 0.28678215, 0.42252532, 0.44273877, 0.13975906
647, 412883810, 0.8281314, 0.07911124, -0.47461334, 0.2875447, 0.2295393, -0.84713525, 0.18013573
648, 412900477, 0.8302736, 0.07805887, -0.4699529, 0.28930432, -0.05013932, -1.0158769, -0.113334656
649, 412917144, 0.83224595, 0.07829262, -0.46483794, 0.2918265, 0.041309666, 0.0144681055, -0.03168392
650, 412933811, 0.83421654, 0.07883533, -0.45959637, 0.29434493, -0.09146329, 1.8222839, 0.15433407
651, 412950478, 0.8364198, 0.07805844, -0.45503294, 0.29538727, 0.67233366, 1.0978923, 0.3674078
652, 412967145, 0.8387095, 0.07649853, -0.4507792, 0.29582503, 0.46667492, -1.0910686, 0.38173866
653, 412983812, 0.84071535, 0.07601534, -0.4461124, 0.2973265, 0.049935922, -1.55909, 0.13656235
654, 413000479, 0.84254247, 0.07691575, -0.44074613, 0.29991516, 0.018690601, -0.25383964, -0.23605537
655, 413017146, 0.844323, 0.07810194, -0.43541926, 0.30237204, -0.18893684, 1.676842, -0.13329124
656, 413033813, 0.84637636, 0.07802008, -0.4306978, 0.30341285, 0.52879095, 2.3516026, 0.5036392
657, 413050480, 0.84852856, 0.076352715, -0.4268582, 0.3032518, 0.69426656, 0.83829236, 0.6506424
658, 413067147, 0.8506449, 0.07441447, -0.42288655, 0.3033691, 0.4989368, -0.8184172, 0.32991123
659, 413083814, 0.85247743, 0.07319463, -0.41868135, 0.30435264, 0.25494313, -1.3756979, 0.1950674
660, 413100481, 0.85409266, 0.07308503, -0.41398773, 0.3062652, 0.28403, -0.44715646, -0.032260895
661, 413117148, 0.85573894, 0.07378884, -0.40900946, 0.30818394, -0.22330196, 1.1549426, 0.022234917
662, 413133815, 0.8576299, 0.07376339, -0.4043391, 0.30909476, -0.013265494, 1.2921535, 0.10445213
663, 413150482, 0.8595325, 0.07294189, -0.40021715, 0.30936968, -0.2306942, -0.2050656, 0.16149044
664, 413167149, 0.8612411, 0.07197905, -0.39629513, 0.30989164, -0.63861674, -0.7318149, 0.012467384
665, 413183816, 0.86290187, 0.07100487, -0.3920076, 0.31094816, -0.25696838, -0.4540423, -0.22888565
666, 413200483, 0.8646448, 0.07022367, -0.3872371, 0.31225798, -0.18864828, 0.14061558, -0.43265343
667, 413217150, 0.86630315, 0.06947164, -0.38285044, 0.3132378, -0.31060186, 0.4284769, -0.08995724
668, 413233817, 0.867862, 0.06878029, -0.37900797, 0.31374815, 0.11930004, 0.22999299, 0.28774548
669, 413250484, 0.8695051, 0.067880124, -0.37513462, 0.31404954, 0.63450164, -0.20856692, 0.59179974
670, 413267151, 0.8710576, 0.067403115, -0.37102684, 0.31472918, 0.30392957, -0.68191624, 0.29618073
671, 413283818, 0.87252295, 0.067229584, -0.36648905, 0.31602144, -0.3009792, -0.13561268, -0.3639803
672, 413300485, 0.87391055, 0.06681079, -0.3617937, 0.31768215, -0.34359396, 0.95647633, -0.28652382
673, 413317152, 0.8752477, 0.06588218, -0.35791543, 0.31858635, 0.63994306, 0.80923975, 0.54865265
674, 413333819, 0.87668437, 0.064579256, -0.35481015, 0.31837654, 1.0066382, -0.7191422, 0.7793331
675, 413350486, 0.877895, 0.06434341, -0.35143468, 0.3188321, 0.43558586, -1.2195842, 0.27947044
676, 413367153, 0.87896156, 0.0647972, -0.34732637, 0.32030007, -0.2568367, 0.120685875, -0.2497406
677, 413383820, 0.8801414, 0.06449832, -0.3431042, 0.32166865, -0.21234603, 1.3782864, -0.2310524
678, 413400487, 0.88156587, 0.062482055, -0.3397403, 0.32173622, 0.45295683, 0.37849534, 0.58754635
679, 413417154, 0.8828486, 0.060780164, -0.33666825, 0.32177392, 0.43357804, -0.4227343, 0.5741081
680, 413433821, 0.88394797, 0.059888337, -0.333348, 0.32237932, 0.2772459, 0.008853851, 0.077337265
681, 413450488, 0.8851384, 0.05936858, -0.32949898, 0.32316527, 0.1348704, 0.62516487, -0.055041313
682, 413467155, 0.88664275, 0.058271557, -0.32546285, 0.32333103, 0.1142187, 0.20956373, 0.29419518
683, 413483822, 0.8881237, 0.05649741, -0.3219159, 0.32313228, 0.13033509, -0.44900808, 0.0057029724
684, 413500489, 0.88922167, 0.054723527, -0.31886336, 0.32344398, -0.088567905, -0.9054652, 0.33876896
685, 413517156, 0.88995034, 0.05424823, -0.31570014, 0.32462087, -0.38217363, 0.062509336, 0.09769344
686, 413533823, 0.89076704, 0.054073345, -0.31280643, 0.32521114, 0.17158285, 0.32581115, -0.02411747
687, 413550490, 0.891838, 0.053924978, -0.30967015, 0.32530192, -0.116946004, 0.28130794, -0.107881546
688, 413567157, 0.8929475, 0.05353736, -0.30617225, 0.3256331, -0.5391497, 0.3139562, -0.20911884
689, 413583824, 0.8938116, 0.052741013, -0.3035914, 0.32580906, -0.40025985, 0.7586946, 0.29706764
690, 413600491, 0.89474636, 0.05163439, -0.30143374, 0.32542333, 0.51795954, 0.9394424, 0.6191273
691, 413617158, 0.8956591, 0.050290532, -0.29989192, 0.32454666, 0.8603052, -0.18549429, 0.7426472
692, 413633825, 0.8965261, 0.04942082, -0.29766724, 0.3243344, 0.73017234, -0.59986776, 0.22988701
693, 413650492, 0.8972449, 0.049382184, -0.2945754, 0.32517433, 0.20043054, -0.014935499, -0.25542545
694, 413667159, 0.8979564, 0.049592018, -0.2910512, 0.32634956, 0.061019484, 0.8256154, 0.28339005
695, 413683826, 0.89892703, 0.048960675, -0.28791597, 0.3265536, 0.13732904, 1.0211493, 0.618927
696, 413700493, 0.89986753, 0.0475379, -0.2855914, 0.3262146, 0.44087976, 0.32312426, 0.4249792
697, 413717160, 0.90063065, 0.046554893, -0.2834479, 0.32611984, 0.22137527, -0.10991772, 0.41422367
698, 413733827, 0.90136427, 0.04583999, -0.2807892, 0.3264944, 0.43732032, 0.3451579, 0.25612068
699, 413750494, 0.9021752, 0.044782095, -0.27821872, 0.32660183, 0.62592167, 0.06286453, 0.23556423
700, 413767161, 0.9027548, 0.043711253, -0.2763147, 0.32676178, -0.02368142, -0.40470648, 0.032546043
701, 413783828, 0.9030428, 0.043214798, -0.27460557, 0.32747224, -0.5022124, 0.05480951, 0.35260963
702, 413800495, 0.9033084, 0.042826287, -0.2731427, 0.32801363, 0.0097791385, 1.1380517, 0.5632763
703, 413817162, 0.9040213, 0.042388253, -0.27151498, 0.32745713, 0.35790682, 0.5049829, 0.27188492
704, 413833829, 0.90488625, 0.041609917, -0.26971924, 0.32665098, -0.092404276, -0.22939885, -0.13607216
705, 413850496, 0.9054731, 0.04100688, -0.26787573, 0.32661808, -0.050367974, -0.5743255, -0.07118034
706, 413867163, 0.9058395, 0.040913913, -0.26589704, 0.3272302, 0.25602514, -0.09381462, 0.38343716
707, 413883830, 0.9062874, 0.04076594, -0.26431707, 0.32728896, 0.18413667, 0.26962113, 0.44376087
708, 413900497, 0.9067544, 0.040401705, -0.26329207, 0.32686612, 0.054398134, -0.14143762, -0.07852936
709, 413917164, 0.90713054, 0.04003657, -0.26249224, 0.3265101, -0.26205263, 0.075458534, 0.20022678
710, 413933831, 0.9075301, 0.039785996, -0.261392, 0.32631296, 0.07592333, 0.3964561, 0.17054462
711, 413950498, 0.90801495, 0.03957807, -0.26006943, 0.32604656, 0.3375781, 0.5554479, 0.15241337
712, 413967165, 0.9084411, 0.039025556, -0.2594036, 0.3254556, 0.44951943, -0.5336071, 0.41469955
713, 413983832, 0.90873426, 0.03855647, -0.2585594, 0.32536504, 0.30102703, -0.31462145, 0.21370792
714, 414000499, 0.9087584, 0.038943734, -0.25755313, 0.32604915, -0.18714784, 0.5309494, 0.19804001
715, 414017166, 0.90891814, 0.038874105, -0.25676882, 0.32623035, -0.1850124, 1.070109, 0.32909775
716, 414033833, 0.90941316, 0.03812053, -0.25574753, 0.32574156, 0.59792507, 0.2680135, -0.114720345
717, 414050500, 0.9098334, 0.03760953, -0.25473094, 0.32542458, 0.0252402, -1.120097, 0.22263432
718, 414067167, 0.909786, 0.03751951, -0.25422856, 0.32595927, -0.3516925, -0.5079245, -0.030470848
719, 414083834, 0.9095836, 0.03774924, -0.25379282, 0.3268358, -0.18285327, 0.53295636, 0.42727757
720, 414100501, 0.9096946, 0.037800297, -0.25352085, 0.32673222, -0.08148277, 0.5812729, 0.27127838
721, 414117168, 0.9098391, 0.037789725, -0.25319862, 0.32658067, -0.5060196, -0.45187625, -0.18549824
722, 414133835, 0.9098227, 0.037483376, -0.25300437, 0.32681227, -0.66098046, 0.10381098, -0.38976383
723, 414150502, 0.90971124, 0.03697721, -0.25280234, 0.32733575, 0.06025708, 0.46773788, 0.1330471
724, 414167169, 0.9098602, 0.036938168, -0.2520742, 0.32748827, 0.6441907, 0.12021991, 0.4816389
725, 414183836, 0.91021776, 0.03734562, -0.25094476, 0.32731557, 0.12667105, -0.73895085, -0.0014543533
726, 414200503, 0.91046333, 0.037951022, -0.2495391, 0.32763726, -1.0089909, -0.27975187, -0.3840027
727, 414217170, 0.91055334, 0.0377336, -0.24857794, 0.3281427, -0.6285157, 0.6262659, -0.31814766
728, 414233837, 0.91058284, 0.036924895, -0.24881843, 0.3279703, -0.038293134, 0.22525784, 0.3768301
729, 414250504, 0.910566, 0.036279764, -0.24967507, 0.32743782, 0.24475026, -0.83031213, 0.5285053
730, 414267171, 0.91048723, 0.036325198, -0.25004098, 0.32737258, 0.31052163, -0.56069285, -0.26967144
731, 414283838, 0.9103798, 0.036932018, -0.24921864, 0.32822886, 0.10611814, -0.5018421, -0.4237957
732, 414300505, 0.9102899, 0.03742237, -0.24849932, 0.32896772, -0.35574254, 0.892695, 0.23278141
733, 414317172, 0.91038114, 0.037222683, -0.24824306, 0.32893124, 0.940758, 0.61352766, 0.89391613
734, 414333839, 0.9103432, 0.037405163, -0.24866025, 0.32869965, 0.7586767, -0.77092236, 0.7099161
735, 414350506, 0.91006947, 0.038037308, -0.24910444, 0.3290492, 0.19547884, -0.4706596, -0.34674358
736, 414367173, 0.909791, 0.038738593, -0.24880047, 0.3299662, 0.0519985, 0.6688904, 0.008436203
737, 414383840, 0.90946877, 0.038677808, -0.24933076, 0.33046082, -0.112216465, 1.1117327, 0.7484503
738, 414400507, 0.90924764, 0.038262967, -0.25045687, 0.33026612, 1.2411869, 0.16343474, 1.1323509
739, 414417174, 0.9087139, 0.038814813, -0.25209808, 0.3304221, 1.0911235, -1.0726892, 0.5329962
740, 414433841, 0.9079597, 0.040815353, -0.25317082, 0.33143243, -0.16303237, -0.40399992, -0.19664001
741, 414450508, 0.9073888, 0.042407986, -0.2539771, 0.33217883, -0.48569086, 1.0591359, -0.07336426
742, 414467175, 0.90694076, 0.042883884, -0.2555122, 0.3321634, 0.18602447, 1.0727742, 0.75533295
743, 414483842, 0.90650165, 0.043220807, -0.25758672, 0.33171606, 0.6344149, 0.57826734, 0.62451077
744, 414500509, 0.90591484, 0.044415317, -0.2595612, 0.33162192, 0.014784264, 0.21690753, 0.5360079
745, 414517176, 0.90535533, 0.045639794, -0.26142094, 0.3315228, -0.29057378, 0.9373036, -0.2867508
746, 414533843, 0.90494406, 0.046252396, -0.26358905, 0.3308432, -0.43877897, 0.528371, 0.1634531
747, 414550510, 0.9043536, 0.046632245, -0.2665383, 0.3300404, -0.22403866, 0.0542419, 0.31558228
748, 414567177, 0.90351504, 0.047045924, -0.27019775, 0.32930186, -0.09468411, -0.014698491, 0.30758095
749, 414583844, 0.90255314, 0.048594456, -0.27340078, 0.3290709, -0.18174376, 0.2595498, 0.5434866
750, 414600511, 0.90167147, 0.05037113, -0.2764587, 0.328666, -0.6395697, 0.6645505, 0.08141804
751, 414617178, 0.90085775, 0.05176425, -0.2800719, 0.32762018, -1.0381986, 0.49867377, -0.2633686
752, 414633845, 0.9001282, 0.05190497, -0.28451675, 0.32576814, -1.0907432, 0.8727908, -0.073124886
753, 414650512, 0.8993976, 0.05134851, -0.28938308, 0.32357988, -0.28099468, 0.72135866, 0.21580696
754, 414667179, 0.89858496, 0.050969206, -0.29434428, 0.321416, 0.75379676, -0.31679237, 0.5412426
755, 414683846, 0.89749336, 0.05116812, -0.29954436, 0.31962523, 0.8823397, -1.1687971, 0.5137453
756, 414700513, 0.8959015, 0.05186257, -0.30531612, 0.31851622, 0.6119635, -1.3301618, 0.10162449
757, 414717180, 0.89401054, 0.05316273, -0.31099644, 0.31811887, 0.13676155, -0.5282029, 0.004527092
758, 414733847, 0.89213556, 0.054300804, -0.3163464, 0.317915, -0.0064521483, 0.5432021, -0.15855885
759, 414750514, 0.89047384, 0.054674417, -0.32171047, 0.31712636, 0.39667737, 0.8003792, 0.022159576
760, 414767181, 0.8889085, 0.054503743, -0.3271247, 0.31600645, 0.31652898, 0.40496612, 0.33275318
761, 414783848, 0.88671005, 0.055467594, -0.3338417, 0.3149885, -0.024148116, -0.57748556, 0.8883877
762, 414800515, 0.8844241, 0.056807984, -0.34036076, 0.31419867, 0.32398537, 0.04535008, 0.038544655
763, 414817182, 0.88210917, 0.058027435, -0.3467507, 0.31349632, 0.4576877, 0.37384716, -0.13834953
764, 414833849, 0.8800414, 0.05879485, -0.352876, 0.31232727, 0.26304322, 0.49743077, 0.047535896
765, 414850516, 0.87823313, 0.059145592, -0.35820904, 0.31127897, 0.4744029, 0.12476426, 0.0048122406
766, 414867183, 0.87630916, 0.059352428, -0.36370367, 0.31028828, 0.28874946, -0.30143198, 0.30347347
767, 414883850, 0.87418056, 0.059436012, -0.3694665, 0.3094671, 0.20152017, -0.0040144604, 0.23360348
768, 414900517, 0.87188405, 0.059609618, -0.37533042, 0.30885524, 0.25915635, 0.30126745, 0.064697266
769, 414917184, 0.8695599, 0.05986455, -0.38135883, 0.30797234, 0.2265525, 0.44126955, 0.21596432
770, 414933851, 0.8671502, 0.060423296, -0.38763112, 0.30682465, 0.66667455, 0.4009458, 0.07730675
771, 414950518, 0.8647109, 0.061457187, -0.39400533, 0.305381, 0.59303576, -0.024223998, 0.2493763
772, 414967185, 0.86225706, 0.06213321, -0.4005698, 0.3036378, 0.20229241, -0.17470628, 0.23495388
773, 414983852, 0.8596651, 0.06241948, -0.40686896, 0.3025508, 0.2873914, -0.17236863, -0.023200035
774, 415000519, 0.85696465, 0.062259004, -0.4131789, 0.3016922, -0.028383017, 0.08225774, -0.009407043
775, 415017186, 0.85410696, 0.061607495, -0.42008308, 0.30039248, 0.030962355, 0.456614, 0.07315159
776, 415033853, 0.851399, 0.061373647, -0.4266181, 0.29891422, 0.260347, 1.0329506, -0.1747303
777, 415050520, 0.84893227, 0.0613668, -0.43285492, 0.29695827, 0.23289715, 0.6508674, -0.041193962
778, 415067187, 0.8465665, 0.061262343, -0.43896696, 0.29475367, -0.07371256, 0.04077153, 0.03390026
779, 415083854, 0.84410745, 0.06099172, -0.4450836, 0.2926821, -0.237316, -0.32988185, 0.11183739
780, 415100521, 0.8415196, 0.060843203, -0.45112386, 0.29091182, -0.16779721, -0.35541612, 0.11005306
781, 415117188, 0.8390994, 0.06073591, -0.4568268, 0.28901935, -0.29622284, 0.38970542, -0.15507507
782, 415133855, 0.8368563, 0.06072323, -0.46252364, 0.28645357, -0.34830785, 0.752892, -0.19737339
783, 415150522, 0.83485156, 0.06023406, -0.46814042, 0.28326422, -0.39740938, 1.1056405, -0.34191322
784, 415167189, 0.83290404, 0.05903932, -0.4739755, 0.2795209, -0.18313289, 0.5164673, -0.17528439
785, 415183856, 0.83078265, 0.057644963, -0.48004264, 0.27574602, 0.21512318, -0.20616403, 0.13497257
786, 415200523, 0.8284838, 0.05663363, -0.48593268, 0.27253652, 0.22649999, -0.8469818, 0.16821003
787, 415217190, 0.82606906, 0.056416288, -0.4913992, 0.27009887, 0.40165904, -0.70979655, 0.11192322
788, 415233857, 0.8238034, 0.056911524, -0.49626404, 0.26801246, 0.47466955, -0.20075573, -0.0047540665
789, 415250524, 0.8217352, 0.05757424, -0.50091577, 0.26555473, 0.17027664, -0.22264595, 0.027192116
790, 415267191, 0.8195765, 0.057750933, -0.5058745, 0.26277295, -0.17067628, 0.04627185, -0.14336777
791, 415283858, 0.81736183, 0.057424285, -0.511045, 0.25972062, -0.08903728, 0.28275594, -0.036649704
792, 415300525, 0.81501645, 0.056981433, -0.51638883, 0.25659978, 0.13078637, 0.32604063, -0.0521698
793, 415317192, 0.8126876, 0.056442793, -0.52159035, 0.25356713, 0.23236273, 0.036255144, 0.006954193
794, 415333859, 0.81047577, 0.056161553, -0.52659106, 0.25035292, 0.010292771, 0.09762395, 0.16830063
795, 415350526, 0.80838627, 0.056443945, -0.5312546, 0.24717128, -0.065797746, 0.39935058, 0.117845535
796, 415367193, 0.8062932, 0.056824587, -0.53591603, 0.24383569, -0.11634922, 0.22409546, 0.044286728
797, 415383860, 0.8038797, 0.05703778, -0.5410112, 0.24047984, 0.29441574, -0.09126897, -0.23962307
798, 415400527, 0.80143815, 0.05699417, -0.5459828, 0.23738353, 0.40606314, -0.62651294, 4.4822693E-5
799, 415417194, 0.79890525, 0.057863593, -0.5505934, 0.23505066, 0.4427407, -0.48888358, 0.033607483
800, 415433861, 0.7962646, 0.060209423, -0.5547953, 0.2335361, 0.13790168, -0.012498956, 0.11553764
801, 415450528, 0.79349047, 0.06322675, -0.5589474, 0.23227727, 0.019464849, 0.43279442, -0.027230263
802, 415467195, 0.7906008, 0.06579427, -0.56347215, 0.23047796, 0.48424128, 0.14834468, -0.19113922
803, 415483862, 0.7877988, 0.06844199, -0.5677868, 0.22870612, 0.35811558, -0.19248539, -0.026257515
804, 415500529, 0.78510535, 0.070765376, -0.5718742, 0.22707082, 0.05056042, -0.30962378, -0.14475536
805, 415517196, 0.7823028, 0.073655255, -0.5757317, 0.22607455, -0.77767175, -0.3445405, 0.063090324
806, 415533863, 0.7783911, 0.07822787, -0.58033663, 0.22626671, -0.18199855, 0.12253383, -0.34140873
807, 415550530, 0.77425957, 0.08366343, -0.5847448, 0.22714618, 0.058510773, -0.19178613, -0.34490013
808, 415567197, 0.77063096, 0.088051595, -0.588732, 0.22752729, 0.35523495, -0.12679133, -0.08353996
809, 415583864, 0.7675144, 0.08982715, -0.59287846, 0.22659974, -0.22355005, -1.0679775, 0.4492216
810, 415600531, 0.7639938, 0.09078767, -0.5978457, 0.225058, -0.9118676, -1.3678288, 0.46115017
811, 415617198, 0.7595206, 0.09300604, -0.6034421, 0.22435626, -0.18430655, -0.866669, 0.04658413
812, 415633865, 0.75523823, 0.09591049, -0.60821676, 0.22469561, 0.15003039, -0.3868594, -0.07226086
813, 415650532, 0.7516358, 0.09828731, -0.6121082, 0.22518033, -6.146606E-4, 0.0013404631, 0.2684946
814, 415667199, 0.7487803, 0.099669755, -0.6156313, 0.22448026, -0.14319134, -0.24511476, 0.4880581
815, 415683866, 0.7464749, 0.10041395, -0.6188238, 0.22304422, -0.5299608, -0.9897822, 0.5037918
816, 415700533, 0.743883, 0.10053411, -0.6224049, 0.22168197, -0.73230845, -1.1787926, 0.5228367
817, 415717200, 0.740792, 0.10144391, -0.6262478, 0.22079314, 0.008312447, -0.40209666, -0.039066315
818, 415733867, 0.7379418, 0.10315644, -0.62919503, 0.22116508, -0.027416099, -0.2702024, 0.16478443
819, 415750534, 0.735495, 0.104451284, -0.63178027, 0.22133768, 0.03712729, 0.067174755, 0.33998108
820, 415767201, 0.73358065, 0.105542086, -0.63397855, 0.22088708, -0.32313895, 0.119214214, 0.32973003
821, 415783868, 0.7320767, 0.10608401, -0.6360265, 0.21972702, -0.5024173, 0.15568644, 0.33927727
822, 415800535, 0.7306277, 0.105881825, -0.6382809, 0.21810333, -0.11725803, -0.1532358, 0.33088017
823, 415817202, 0.72903085, 0.106127955, -0.6403904, 0.21714212, 0.19481792, -0.39509845, -0.004555702
824, 415833869, 0.72734886, 0.10706578, -0.64213973, 0.21715608, 0.030827802, -0.08386262, -0.017879486
825, 415850536, 0.7259618, 0.10742803, -0.6437453, 0.21686459, -0.34543973, 0.023326147, 0.6042757
826, 415867203, 0.72432613, 0.107197136, -0.64614815, 0.21529701, -0.27054903, -0.09792181, 0.42951202
827, 415883870, 0.7223071, 0.10687761, -0.64894885, 0.21380976, 0.23582852, -0.2797056, 0.34860325
828, 415900537, 0.7203226, 0.10768877, -0.65114754, 0.2134125, 0.68269706, 0.20890225, -0.22813988
829, 415917204, 0.7189363, 0.10917732, -0.6522753, 0.21388587, 0.5819991, 0.3953188, -0.29297733
830, 415933871, 0.71807927, 0.11114901, -0.652685, 0.21449932, 0.10973592, 0.5066173, -0.32561588
831, 415950538, 0.7177246, 0.111942835, -0.6529578, 0.21444352, -0.90572906, -0.1748951, 0.9002676
832, 415967205, 0.7169947, 0.10944131, -0.654995, 0.21194847, -0.55525446, -0.6957324, 1.5844965
833, 415983872, 0.71499366, 0.10913842, -0.65774554, 0.21034032, 0.077705175, -0.46050286, -0.02565384
834, 416000539, 0.7133236, 0.110649884, -0.6591186, 0.21092224, 0.521002, 0.11625641, -0.4535513
835, 416017206, 0.71247447, 0.11269113, -0.6593007, 0.21213938, 0.29178277, 0.66717654, -0.41233063
836, 416033873, 0.71213406, 0.1149355, -0.65896356, 0.21312302, -0.2690649, 0.35799763, -0.11926842
837, 416050540, 0.7122228, 0.11579038, -0.6588021, 0.21286273, -0.9203213, -0.38521564, 1.0047874
838, 416067207, 0.7117494, 0.11367725, -0.6602528, 0.21108328, -0.4156626, -0.7459797, 1.926219
839, 416083874, 0.7098649, 0.113651186, -0.6625166, 0.2103484, 0.084801264, -0.27761853, -0.4927616
840, 416100541, 0.70833564, 0.11533434, -0.6635404, 0.21135774, 0.42400676, 0.59855986, -0.9037342
841, 416117208, 0.7076419, 0.11684378, -0.66367215, 0.21243659, 0.47187072, 0.776593, -0.538764
842, 416133875, 0.70738775, 0.11827686, -0.6636095, 0.21268518, 0.1474734, 0.18840036, -0.16435814
843, 416150542, 0.707149, 0.11874384, -0.66408926, 0.21172014, -0.3570338, -0.09212305, 0.8332977
844, 416167209, 0.70640975, 0.11742784, -0.6656944, 0.20987245, 0.029054897, 0.2398332, 1.4730301
845, 416183876, 0.70491266, 0.11684437, -0.6679282, 0.20812741, 0.37960368, 0.15668945, -0.19293213
846, 416200543, 0.7036728, 0.1167706, -0.6696558, 0.20680872, 0.5305956, 0.28593606, -0.47910595
847, 416217210, 0.7028401, 0.11651909, -0.67084754, 0.2059187, 0.67320985, 0.43298897, -0.0507679
848, 416233877, 0.7022924, 0.116598465, -0.67173153, 0.20485733, 0.5840161, -0.25902385, -0.13010693
849, 416250544, 0.7015311, 0.11735974, -0.67273474, 0.20373604, 0.130895, -0.6008624, -0.18483925
850, 416267211, 0.7003744, 0.118767254, -0.6738001, 0.20337887, -0.32971647, -0.5768162, 0.20978642
851, 416283878, 0.69920933, 0.11969539, -0.67472935, 0.20376258, -0.1931581, -0.004517141, 0.8412428
852, 416300545, 0.6983598, 0.120777816, -0.6752231, 0.2044012, -0.24698628, 0.20081644, 0.1924038
853, 416317212, 0.69784397, 0.12158384, -0.6756434, 0.2042963, -0.361458, 0.025522497, -0.26927853
854, 416333879, 0.6972749, 0.1222508, -0.67629194, 0.20369387, -0.3974646, -0.39033636, -0.13901615
855, 416350546, 0.6964812, 0.123080246, -0.677081, 0.2032878, -0.6046678, -0.8064526, 0.4374113
856, 416367213, 0.69566405, 0.12339959, -0.67773694, 0.20370594, -0.4174319, -0.31916025, 1.5665255
857, 416383880, 0.6950657, 0.12361768, -0.6780884, 0.20444563, -0.10012308, 0.12824921, 1.1116972
858, 416400547, 0.694944, 0.12405221, -0.67807287, 0.20464714, -0.07621077, 0.01888489, -0.21374226
859, 416417214, 0.6948915, 0.12460439, -0.67800725, 0.20470773, 0.05947903, 0.043318655, -0.64356995
860, 416433881, 0.69463205, 0.12568523, -0.67798454, 0.20500205, 0.0124246385, 0.23428679, -0.52589417
861, 416450548, 0.69421047, 0.12665956, -0.6782716, 0.20488085, -0.123257115, 0.22344959, 0.1059618
862, 416467215, 0.69385886, 0.12629858, -0.67876214, 0.20467065, 0.030007508, 0.22797164, 1.5233526
863, 416483882, 0.69392365, 0.12506461, -0.6788673, 0.20485994, 0.4049961, 0.44619322, 1.2572498
864, 416500549, 0.6945282, 0.12433641, -0.6784372, 0.20467958, 0.027201079, 0.07881061, -0.24773979
865, 416517216, 0.69505566, 0.12354643, -0.6782005, 0.20415072, -0.044998523, 0.12461328, -0.7186756
866, 416533883, 0.6952078, 0.12341465, -0.6781448, 0.20389742, 0.07951652, 0.012180059, -0.6125555
867, 416550550, 0.69516474, 0.12368378, -0.67822725, 0.20360686, -0.18160339, -0.2604744, 0.083247185
868, 416567217, 0.6950456, 0.123546936, -0.67837656, 0.20359911, -0.25678778, -0.18742394, 1.1647062
869, 416583884, 0.6950183, 0.123209745, -0.67827535, 0.20423257, 0.11094379, 0.07300777, 1.1062651
870, 416600551, 0.6953428, 0.12300691, -0.6777907, 0.20485842, 0.062408842, 0.12484729, -0.031184196
871, 416617218, 0.6958707, 0.12286977, -0.6771834, 0.20515655, -0.18124263, 0.061199356, -0.35494614
872, 416633885, 0.696333, 0.12292307, -0.67664695, 0.20532598, -0.1042156, 0.024067875, -0.3122673
873, 416650552, 0.6966077, 0.123607166, -0.676067, 0.20589276, -0.16501738, -0.234692, 0.06600571
874, 416667219, 0.6967231, 0.12425695, -0.67555124, 0.20680268, -0.0022002615, -0.21831684, 0.6253109
875, 416683886, 0.69671, 0.12523971, -0.67507476, 0.2078074, 0.1390036, -0.10337581, 0.22678185
876, 416700553, 0.69691384, 0.12631422, -0.6743753, 0.20874223, 0.023115262, 0.21277031, -0.030247688
877, 416717220, 0.6974628, 0.1266786, -0.6734714, 0.20960459, -0.33920684, 0.2894333, 0.44704056
878, 416733887, 0.69863385, 0.12635802, -0.67205995, 0.21042596, -0.4271422, 0.1982821, 0.6490507
879, 416750554, 0.7004542, 0.12598631, -0.6700735, 0.21093245, -0.6593324, -0.20415618, 0.3444786
880, 416767221, 0.70238006, 0.12553363, -0.66795784, 0.21150796, -0.4525087, -0.51504266, 0.30908203
881, 416783888, 0.7043224, 0.12552796, -0.6656309, 0.21238543, -0.30719128, -0.79187346, 0.17113781
882, 416800555, 0.7065127, 0.126307, -0.66279566, 0.21351287, -0.6520119, -0.78023964, 0.016097069
883, 416817222, 0.70882547, 0.1267088, -0.65983063, 0.21478976, -1.5772116, -0.63665515, 1.0338888
884, 416833889, 0.71176845, 0.12507568, -0.6565815, 0.21596768, -1.2082373, -0.2442269, 1.666275
885, 416850556, 0.71605194, 0.12238862, -0.6522008, 0.21662039, -1.3995863, -1.3684335, 1.0106773
886, 416867223, 0.7214005, 0.11992463, -0.64666504, 0.21684867, -1.508813, -1.7759526, 0.23768806
887, 416883890, 0.7271568, 0.11902637, -0.6400889, 0.21762677, -1.1728065, -1.641856, -0.3794651
888, 416900557, 0.73299325, 0.1188268, -0.63298976, 0.21891697, -1.7672548, -2.0499718, 0.190691
889, 416917224, 0.738511, 0.116907835, -0.6267411, 0.21938366, -1.9953485, -2.1058388, 1.2536917
890, 416933891, 0.7431652, 0.11445929, -0.6219028, 0.21872579, -1.6097957, -1.9073424, 0.8787699
891, 416950558, 0.7475509, 0.11389466, -0.61698675, 0.21799667, -1.8646327, -1.5596844, -0.4779644
892, 416967225, 0.75130445, 0.11362944, -0.612643, 0.2174808, -1.5984105, -1.8602203, -1.7233362
893, 416983892, 0.75340235, 0.111194424, -0.6103493, 0.21793072, -1.4117941, -2.6392708, -1.2335796
894, 417000559, 0.753544, 0.107802235, -0.61000156, 0.220108, 0.6590503, -2.911741, -1.1050282
895, 417017226, 0.7550343, 0.107619256, -0.60652757, 0.22464386, 1.4927222, -0.1753044, -0.87121964
896, 417033893, 0.75821245, 0.10808647, -0.60084313, 0.22895002, -0.08846643, 1.182851, -0.43587685
897, 417050560, 0.7612491, 0.1076353, -0.5956983, 0.2325035, -0.44331694, 1.0428292, -0.90094376
898, 417067227, 0.7640202, 0.1064364, -0.5913756, 0.2349874, 1.3450106, 1.1990353, -1.0032549
899, 417083894, 0.7675264, 0.10532526, -0.5861122, 0.23723836, 1.7013911, 0.76657677, -0.4891672
900, 417100561, 0.7710599, 0.102909304, -0.5810738, 0.23922622, 0.96779275, 0.30120093, 0.2269001
901, 417117228, 0.7740631, 0.10015463, -0.5768983, 0.24079752, -0.506542, 0.7471803, 0.3158779
902, 417133895, 0.7759308, 0.09900632, -0.573624, 0.24307239, 0.33518672, 1.5853612, -0.122582436
903, 417150562, 0.7778794, 0.10020111, -0.5695146, 0.24600041, 1.1351168, 2.3269134, -0.27196693
904, 417167229, 0.7806118, 0.10182706, -0.56425, 0.24879391, 1.7647616, 1.9591581, -0.5460167
905, 417183896, 0.7830852, 0.10174254, -0.5600848, 0.2504605, 0.81332743, 0.59286857, 0.0048599243
906, 417200563, 0.78511953, 0.10081949, -0.55662256, 0.25217816, 0.5367847, 1.7139304, 0.73341846
907, 417217230, 0.7871919, 0.09946274, -0.5533719, 0.25340676, 0.6390204, 2.1295974, 0.67198753
908, 417233897, 0.7899257, 0.0974017, -0.5497435, 0.25359833, 0.4787187, 1.4934183, -0.14443779
909, 417250564, 0.79279405, 0.094909675, -0.54618263, 0.25328636, 0.7601126, -0.025717735, -0.5866051
910, 417267231, 0.795576, 0.09213684, -0.54288054, 0.25268564, 1.2687087, -1.0814267, 0.23617172
911, 417283898, 0.7977089, 0.09094856, -0.53939587, 0.25385147, 1.8004841, -1.3573407, 0.8392658
912, 417300565, 0.79949903, 0.09245914, -0.53484106, 0.25728834, 1.2625116, -0.751969, 0.87524414
913, 417317232, 0.8012687, 0.09513283, -0.52973294, 0.26134434, 0.32776296, 0.42024046, 0.64974594
914, 417333899, 0.8030221, 0.09719467, -0.5250226, 0.26468778, -0.41779175, 0.4296081, 0.112119675
915, 417350566, 0.8050702, 0.09826884, -0.5204477, 0.2670938, -0.5026594, -0.08274192, -0.44120502
916, 417367233, 0.80724925, 0.099241465, -0.51553893, 0.2696647, -0.32136068, -0.6477591, -0.28390884
917, 417383900, 0.80957323, 0.10061873, -0.50993013, 0.27283326, -0.35059705, 0.41628316, -0.030742645
918, 417400567, 0.8121947, 0.10178663, -0.50362563, 0.276297, 0.2504722, 0.6050736, -0.20466232
919, 417417234, 0.8150019, 0.10270184, -0.4968593, 0.27991873, 0.26021424, -0.29441634, -0.2550106
920, 417433901, 0.817849, 0.103215665, -0.49012753, 0.283274, -0.3116432, -0.79639214, -0.20166397
921, 417450568, 0.82052517, 0.10366076, -0.4836865, 0.28642595, -0.7161248, -0.0127527, -0.25811768
922, 417467235, 0.82305264, 0.104291074, -0.4774886, 0.2893301, -0.5133297, 1.1764913, -0.29696274
923, 417483902, 0.82574177, 0.10418309, -0.4714983, 0.29152283, 0.07937101, 1.725473, -0.55805206
924, 417500569, 0.82884413, 0.102174506, -0.46598393, 0.29229546, 0.5684741, 0.5549339, -0.36768055
925, 417517236, 0.8317576, 0.10003583, -0.46072096, 0.29310054, -0.39379942, -0.16863918, 0.3081255
926, 417533903, 0.83428097, 0.098142125, -0.4560137, 0.29392958, -0.19044198, -0.110477366, 0.81600475
927, 417550570, 0.83652407, 0.09703728, -0.45151904, 0.29485795, 0.28638536, 0.65153295, 0.7774372
928, 417567237, 0.8385269, 0.09685299, -0.4469951, 0.29611978, 0.5611507, 1.3954643, 0.3424225
929, 417583904, 0.84058285, 0.096603744, -0.4427899, 0.29668996, 0.72824055, 1.4901787, 0.034379005
930, 417600571, 0.842839, 0.09571136, -0.43882534, 0.2964691, 0.80496246, 0.33137468, 0.6133337
931, 417617238, 0.8449, 0.09473489, -0.43493545, 0.296648, 0.69397736, 0.049607694, 1.1690054
932, 417633905, 0.84662825, 0.09350751, -0.43146652, 0.2971751, 0.98153836, 0.36903432, 1.206584
933, 417650572, 0.8479878, 0.0921371, -0.4288745, 0.29747862, 0.9708426, 0.37657338, 0.6158409
934, 417667239, 0.8493464, 0.09134326, -0.4261961, 0.297697, 0.79564846, 0.45644447, 0.3071947
935, 417683906, 0.85065335, 0.09077284, -0.42362925, 0.29780358, 0.6607401, 0.3603287, 0.44892693
936, 417700573, 0.85201883, 0.089794956, -0.42088926, 0.29808185, 0.9054637, 0.71874684, 0.8116455
937, 417717240, 0.85351145, 0.08814718, -0.4179623, 0.2984213, 1.0356015, 1.0642292, 0.8928919
938, 417733907, 0.85500765, 0.08635631, -0.4148832, 0.29895857, 1.1036406, 0.5105126, 0.55869865
939, 417750574, 0.8562495, 0.08498974, -0.411988, 0.29979837, 1.0784734, -0.65895516, 0.20976353
940, 417767241, 0.85726756, 0.084497556, -0.40888914, 0.30126685, 0.36849418, -0.6053936, 0.31454563
941, 417783908, 0.85795283, 0.08446013, -0.40611273, 0.303077, 0.16921785, 0.78156585, 0.5423193
942, 417800575, 0.8589159, 0.083940454, -0.40319756, 0.30438223, 0.49368894, 1.74958, 0.75658035
943, 417817242, 0.8602762, 0.0827079, -0.40038446, 0.30459154, 0.5516038, 1.2356915, 0.7224283
944, 417833909, 0.861711, 0.081091955, -0.3979493, 0.3041613, 0.64359975, -0.09504743, 0.46874237
945, 417850576, 0.862818, 0.07972516, -0.39597592, 0.30395985, 0.629801, -0.87674576, -0.036376
946, 417867243, 0.8636184, 0.07862242, -0.3939049, 0.30466434, 0.29915622, -0.8758204, 0.096432686
947, 417883910, 0.86424446, 0.07802746, -0.3915887, 0.30602485, 0.38648722, 0.05454141, 0.40542603
948, 417900577, 0.86503565, 0.07734697, -0.38924158, 0.30695495, 0.54927415, 0.84208894, 0.44909286
949, 417917244, 0.8660095, 0.076614335, -0.38682097, 0.30745256, 0.24066669, 1.0342137, 0.26875687
950, 417933911, 0.86718655, 0.075417526, -0.38437667, 0.30749607, 0.1414399, 0.71282905, 0.44103432
951, 417950578, 0.8684499, 0.07390521, -0.3817851, 0.30752626, 0.3821039, -0.04978237, 0.5314846
952, 417967245, 0.86962986, 0.07286815, -0.3787673, 0.30817056, 0.38517517, -0.17456512, 0.14091301
953, 417983912, 0.87032807, 0.07197023, -0.37682956, 0.3087855, 0.18242145, -0.20198564, -0.20979404
954, 418000579, 0.87105906, 0.07101552, -0.37499323, 0.30918074, -0.09154733, 0.50345004, 0.039925575
955, 418017246, 0.8720227, 0.069986075, -0.37262726, 0.30955914, 0.4681441, 0.52184534, 0.56836987
956, 418033913, 0.8731615, 0.068933964, -0.36988658, 0.30987233, 0.4840944, 0.048206605, 0.5693054
957, 418050580, 0.8743592, 0.06811409, -0.3666837, 0.31048214, 0.19429892, 0.11615745, -7.677078E-4
958, 418067247, 0.87567276, 0.06715913, -0.3630379, 0.31127167, 0.365213, 0.05021336, -0.2685318
959, 418083914, 0.87678844, 0.06627103, -0.3596376, 0.31226668, 0.2065919, -0.3864577, 0.021962166
960, 418100581, 0.8776191, 0.06549063, -0.35695028, 0.3131801, -0.5132901, 0.4140377, 0.5917368
961, 418117248, 0.87869257, 0.06389798, -0.35427523, 0.31353658, -0.21123628, 1.2447134, 0.67241
962, 418133915, 0.88010234, 0.06208528, -0.35145733, 0.3131179, 0.6495179, 0.65695745, 0.17183018
963, 418150582, 0.8818112, 0.060141794, -0.34847897, 0.31201574, 0.36138043, -0.5193268, -0.020241737
964, 418167249, 0.8832619, 0.05859515, -0.34554124, 0.31147346, -0.41540217, -1.2927208, -0.3150978
965, 418183916, 0.8843581, 0.05733845, -0.3426631, 0.31177628, -0.37441102, -1.2345948, -0.3031397
966, 418200583, 0.8853345, 0.05646419, -0.33961073, 0.31250396, -0.03092503, -0.35109308, -0.35569286
967, 418217250, 0.8863737, 0.055333152, -0.33711258, 0.31246564, 0.24982288, -0.05981852, 0.11033058
968, 418233917, 0.8875252, 0.054053325, -0.3346173, 0.3121024, -0.14293386, -0.44886893, 0.06715965
969, 418250584, 0.88858587, 0.053235088, -0.3316468, 0.3123958, -0.12610199, -0.0033297841, -0.09577179
970, 418267251, 0.8896605, 0.052331783, -0.32863677, 0.31267124, -0.24828646, 0.39328682, 0.03748417
971, 418283918, 0.89075065, 0.051277116, -0.32577837, 0.31273273, -0.1672628, 0.16065735, 0.32653332
972, 418300585, 0.8918447, 0.05018279, -0.32312214, 0.31254828, 0.34526986, -0.41257116, 0.05173397
973, 418317252, 0.89274114, 0.04963333, -0.32040948, 0.31286892, 0.11813464, -1.092784, 0.07993889
974, 418333919, 0.89361036, 0.04988051, -0.31679368, 0.31402814, 0.21256685, -0.5612985, -0.1966896
975, 418350586, 0.8944802, 0.050025046, -0.31301013, 0.31532016, -0.12446096, 0.692887, 0.10591507
976, 418367253, 0.8954401, 0.049173243, -0.30990413, 0.31579745, 0.26568517, 1.2600142, 0.27979183
977, 418383920, 0.89657617, 0.047341913, -0.3071567, 0.315538, 0.61392796, 0.15205158, 0.15898609
978, 418400587, 0.8974735, 0.046057533, -0.30483386, 0.3154297, 0.20397368, -0.75791067, 0.3374672
979, 418417254, 0.89804584, 0.045394845, -0.30271244, 0.31593877, 0.49161652, -0.7246626, 0.23984814
980, 418433921, 0.8986273, 0.045321196, -0.29985785, 0.31701702, 0.17558083, -0.2882887, 0.4430294
981, 418450588, 0.8993628, 0.044858094, -0.29670843, 0.31795862, 0.036986478, 0.6038673, 0.0042591095
982, 418467255, 0.9001651, 0.04422617, -0.2933089, 0.31892934, -0.39170176, 0.6798094, -0.17107773
983, 418483922, 0.9009448, 0.04316717, -0.29039907, 0.3195353, -0.19904767, 0.9050091, 0.118255615
984, 418500589, 0.9017626, 0.04140225, -0.28838718, 0.31928405, 0.18634677, -0.49781007, 0.66175747
985, 418517256, 0.9025347, 0.040194552, -0.28654268, 0.31891713, -0.4819498, -0.522139, 0.14791393
986, 418533923, 0.9031618, 0.039494377, -0.28413883, 0.31938002, -0.4355814, -0.3097024, -0.67319393
987, 418550590, 0.90362024, 0.039430935, -0.28152505, 0.32040426, -0.70402175, 0.25018907, 0.11603165
988, 418567257, 0.90430933, 0.03868897, -0.279507, 0.32031754, 0.3721455, 0.46647376, 0.4943266
989, 418583924, 0.9050357, 0.03798537, -0.27765015, 0.319965, 0.056190487, -0.66986734, 0.022232056
990, 418600591, 0.90548885, 0.037784513, -0.27622518, 0.3199396, -0.67503124, -0.61055595, -0.27837753
991, 418617258, 0.9060342, 0.037103757, -0.27469045, 0.31979665, -0.575571, 0.70740205, -0.26800632
992, 418633925, 0.906778, 0.03595953, -0.2732059, 0.31909022, 0.69086426, 0.037246812, 0.22171307
993, 418650592, 0.9076527, 0.03488776, -0.27154273, 0.31814042, 0.5827155, -1.5003277, 0.32311058
994, 418667259, 0.90810597, 0.034733556, -0.2693734, 0.3187073, -0.78182596, -1.0472914, -0.24832535
995, 418683926, 0.9082446, 0.035123453, -0.26674864, 0.32047212, -0.60949683, 0.30270317, -0.06591034
996, 418700593, 0.9087139, 0.035323165, -0.2644689, 0.32100928, -0.10433629, 0.98878926, 0.23362827
997, 418717260, 0.9093534, 0.03504531, -0.2630394, 0.32040256, -0.24420623, -0.22200543, -0.0810709
998, 418733927, 0.9097881, 0.034331687, -0.26186034, 0.32021174, -0.5440855, -0.57468665, 0.07056713
999, 418750594, 0.9099639, 0.033945695, -0.26060295, 0.32077837, 0.29659164, -0.22689769, 0.12782383
1000, 418767261, 0.9101316, 0.033996556, -0.25961334, 0.32109946, 0.0902257, 0.35268956, 0.45677376
1001, 418783928, 0.9103622, 0.03390691, -0.2589315, 0.32100576, -0.02435196, -0.21992977, 0.07843685
1002, 418800595, 0.910553, 0.03395091, -0.25806952, 0.32115436, -0.35154745, -0.34076995, -0.21774387
1003, 418817262, 0.9106366, 0.034392904, -0.25695384, 0.32176414, -0.111670874, -0.027666684, 0.17024899
1004, 418833929, 0.91088504, 0.034152657, -0.25591385, 0.32191548, 0.46838012, 0.55527085, 0.34220314
1005, 418850596, 0.91122806, 0.03378823, -0.25488517, 0.32179922, 1.1869454, -0.5129571, 0.20026875
1006, 418867263, 0.911319, 0.03438913, -0.25410587, 0.32209384, -0.19936283, -1.0695093, 0.48530483
1007, 418883930, 0.91114587, 0.03509, -0.25347862, 0.32300127, -0.48307362, 0.41267157, -0.08226299
1008, 418900597, 0.9110814, 0.035298377, -0.25282693, 0.32367083, -0.55827594, 1.2573993, -0.13591957
1009, 418917264, 0.91142184, 0.03485196, -0.25253746, 0.322986, -0.4624757, 0.9583252, 0.06759834
1010, 418933931, 0.9119009, 0.033946384, -0.25244415, 0.32180128, -0.2891824, -0.34530592, -0.019692421
1011, 418950598, 0.91230637, 0.033300377, -0.25192916, 0.32112205, 0.05683778, -0.8075092, 0.13404274
1012, 418967265, 0.9124163, 0.033410314, -0.25114197, 0.32141477, 0.27509415, -0.6477284, 0.022950172
1013, 418983932, 0.91234916, 0.034159787, -0.2505429, 0.32199368, -0.25889885, -0.13323626, 0.10125923
1014, 419000599, 0.9124698, 0.034520663, -0.24998085, 0.3220496, -0.14640367, -0.018528804, -0.0023565292
1015, 419017266, 0.91255647, 0.034727607, -0.24963136, 0.3220534, -0.83277565, 0.1696567, -0.3609209
1016, 419033933, 0.91269726, 0.034653727, -0.24967663, 0.32162684, -0.5245572, 0.49495876, 0.18274975
1017, 419050600, 0.9129619, 0.033967867, -0.24980047, 0.32085192, 0.4905412, 0.056598343, 0.38950157
1018, 419067267, 0.91321766, 0.033789366, -0.24978593, 0.3201531, 0.6352131, -0.6538874, 0.16244984
1019, 419083934, 0.9132959, 0.034280807, -0.24912144, 0.3203952, -0.33251062, -0.25156265, -0.042491913
1020, 419100601, 0.9133703, 0.034148797, -0.24829337, 0.32084, -0.086501524, 0.528887, -0.1661768
1021, 419117268, 0.9134401, 0.0330019, -0.24863845, 0.32049355, 0.108545266, 0.2509904, 0.34833527
1022, 419133935, 0.9135838, 0.032208323, -0.24937618, 0.31959012, 0.5342, -0.50414336, 0.4423828
1023, 419150602, 0.91354555, 0.032529783, -0.24956895, 0.31951624, 0.28417012, -0.21883848, 0.14877987
1024, 419167269, 0.9133946, 0.03352424, -0.24940021, 0.31997707, 0.19601884, 0.3928102, 0.3285427
1025, 419183936, 0.9134617, 0.034018867, -0.24883005, 0.3201765, 0.408809, 0.5388179, 0.1867485
1026, 419200603, 0.91352034, 0.033956237, -0.24869053, 0.3201241, 0.5371915, -0.1632128, 0.13682556
1027, 419217270, 0.9133569, 0.03380956, -0.24900061, 0.32036495, -0.2567824, -0.3867866, 0.17327881
1028, 419233937, 0.9130163, 0.033816636, -0.2496288, 0.3208457, -0.5797525, 0.52336085, 0.24648571
1029, 419250604, 0.9126173, 0.034456506, -0.25064662, 0.32111886, 0.12968378, 0.99431974, 0.5705185
1030, 419267271, 0.91252595, 0.03457983, -0.25211385, 0.32021558, 0.40886018, -0.05341486, 0.34492302
1031, 419283938, 0.91240543, 0.035295308, -0.25319973, 0.31962377, 0.37224898, -0.5236793, 0.21919537
1032, 419300605, 0.9120252, 0.036092985, -0.25412363, 0.3198862, 0.23790093, -0.19955495, 0.12589645
1033, 419317272, 0.91148573, 0.03644072, -0.2556334, 0.32018155, 0.31999522, 0.67475396, 0.24829865
1034, 419333939, 0.9109583, 0.03688201, -0.25761303, 0.3200454, 0.7610558, 0.18979351, 0.97420406
1035, 419350606, 0.9103756, 0.037488826, -0.25972942, 0.3199225, 0.7858311, 0.01893571, 0.25152493
1036, 419367273, 0.9096266, 0.038383435, -0.2619023, 0.32017538, 0.43132144, 0.28604156, 0.43565845
1037, 419383940, 0.9089362, 0.038719505, -0.26424494, 0.3201704, 0.074885555, 1.0754783, 0.36502743
1038, 419400607, 0.90832, 0.038501654, -0.26714203, 0.31954116, -0.40298492, 1.3814406, 0.33200455
1039, 419417274, 0.9078781, 0.038515836, -0.26971853, 0.31862915, -0.50082886, 0.84966654, 0.48058033
1040, 419433941, 0.9071594, 0.03870205, -0.2728782, 0.31796253, -0.628174, -0.033692062, 0.2159729
1041, 419450608, 0.90623504, 0.03880391, -0.27659422, 0.3173748, 0.19837959, -0.37894076, 0.2462511
1042, 419467275, 0.9051811, 0.039425537, -0.28046557, 0.31690726, 0.68983763, -0.8815948, 0.14354706
1043, 419483942, 0.90395325, 0.040968772, -0.2843682, 0.3167385, 0.0915109, -0.6250045, 0.30379677
1044, 419500609, 0.9025509, 0.042386565, -0.28878543, 0.31655434, -0.25236088, 0.30241877, 0.11739254
1045, 419517276, 0.901057, 0.043565385, -0.29318935, 0.316602, -0.35300764, 0.464111, 0.16268444
1046, 419533943, 0.89953005, 0.044558167, -0.2980183, 0.3162975, -0.10254104, 0.33822682, 0.11387539
1047, 419550610, 0.89784414, 0.045304976, -0.3038842, 0.3153987, 0.5275125, -0.47985885, 0.25894165
1048, 419567277, 0.89591396, 0.04632262, -0.30999875, 0.3147881, 0.49318737, -0.9469576, 0.22626114
1049, 419583944, 0.8938123, 0.04756842, -0.31596303, 0.314647, 0.2988862, -0.59263027, 0.0133218765
1050, 419600611, 0.8917804, 0.04868307, -0.32139543, 0.3147398, -0.17316599, 0.22591382, -0.005261421
1051, 419617278, 0.88976526, 0.049800813, -0.32668036, 0.3148273, -0.47387877, 0.54881394, 0.075099945
1052, 419633945, 0.8878153, 0.050656088, -0.33230248, 0.31431112, -0.12250745, 0.026538784, 0.09423733
1053, 419650612, 0.8855533, 0.05175995, -0.3387341, 0.31364587, -0.05668512, -0.7868882, 0.12109947
1054, 419667279, 0.8829589, 0.053809017, -0.34516546, 0.3136036, -0.27178302, -0.55688614, 0.08544922
1055, 419683946, 0.8804686, 0.056037854, -0.35081926, 0.31394094, 0.06739787, -0.13003749, -0.21052074
1056, 419700613, 0.87815297, 0.05796542, -0.35609195, 0.31414014, -0.0670626, 0.28667456, -0.16487122
1057, 419717280, 0.8759533, 0.059057087, -0.361516, 0.31388274, -0.1413011, 0.13368092, -0.0758419
1058, 419733947, 0.87380975, 0.059774548, -0.36694992, 0.3134157, -0.007044011, -0.14957833, 0.025544167
1059, 419750614, 0.8714894, 0.060224347, -0.37287828, 0.31279248, 0.06639564, -0.3414726, 0.22966003
1060, 419767281, 0.86888725, 0.061326806, -0.37911105, 0.31232488, 0.2523146, -0.31888023, 0.057785988
1061, 419783948, 0.86596787, 0.06313093, -0.38570255, 0.31200323, 0.029153466, -0.1848233, -0.07425308
1062, 419800615, 0.8630643, 0.064616, -0.3922729, 0.31155273, -0.25122187, 0.14682734, -0.11429596
1063, 419817282, 0.8601192, 0.06572523, -0.39904925, 0.31085786, -0.30972192, 0.5016681, 0.19051075
1064, 419833949, 0.8572379, 0.06652025, -0.40578324, 0.30992943, -0.25681415, 0.75460094, 0.18480396
1065, 419850616, 0.8543795, 0.066737995, -0.41273153, 0.3085974, -0.13284828, 0.4275307, 0.21123314
1066, 419867283, 0.8515762, 0.067016214, -0.4192511, 0.30749485, 0.4161362, 0.7438443, 0.052931786
1067, 419883950, 0.84879684, 0.067614436, -0.42585614, 0.3059684, 0.1782024, 0.6214431, 0.17086887
1068, 419900617, 0.84613204, 0.06813605, -0.43253222, 0.30386165, -0.024432648, 0.6172455, 0.026442528
1069, 419917284, 0.84347683, 0.067994244, -0.43936276, 0.3014667, -0.0476134, 0.73969597, -0.013494492
1070, 419933951, 0.8407658, 0.06744886, -0.44625613, 0.29902655, 0.29898232, 0.47191167, 0.13519764
1071, 419950618, 0.83803195, 0.06676097, -0.45332336, 0.29621157, 0.24774757, 0.22644092, 0.27878666
1072, 419967285, 0.83520025, 0.06624174, -0.4604964, 0.29324666, 0.52975565, 0.1926841, 0.03819084
1073, 419983952, 0.8324047, 0.06581253, -0.4676989, 0.28987372, 0.5719802, 0.3293583, 0.029559135
1074, 420000619, 0.8296485, 0.065707564, -0.47462612, 0.28652036, 0.59114015, 0.5988531, -0.0541811
1075, 420017286, 0.82690746, 0.06548132, -0.4816072, 0.28282264, 0.27591556, 0.36479154, 0.14075089
1076, 420033953, 0.8240589, 0.06487215, -0.48876345, 0.2789745, 0.30398387, 0.14437956, 0.095641136
1077, 420050620, 0.8211267, 0.06442988, -0.49579552, 0.27529, 0.31834638, 5.3668255E-4, 0.17377758
1078, 420067287, 0.8182743, 0.06417095, -0.50245535, 0.27174586, 0.152983, 0.21762587, -0.09025288
1079, 420083954, 0.8154924, 0.06439926, -0.5087367, 0.26834616, 0.21388803, -0.04683298, 0.124910355
1080, 420100621, 0.812791, 0.06424694, -0.5148938, 0.2648125, -0.03561187, -0.14921935, 0.009062767
1081, 420117288, 0.8100165, 0.064447485, -0.5208127, 0.26167104, -0.28976712, -0.1425154, -0.09082508
1082, 420133955, 0.80713916, 0.06504549, -0.5267459, 0.25851884, -0.17305714, 0.11475035, -0.38320732
1083, 420150622, 0.804552, 0.06572624, -0.53212065, 0.2553857, -0.3713328, -0.153535, -0.070158005
1084, 420167289, 0.80178976, 0.06633067, -0.53768164, 0.2522493, -0.40281594, 0.023118, -0.06745243
1085, 420183956, 0.7988727, 0.066984646, -0.5433811, 0.24909928, -0.020187244, 0.16552475, -0.17281914
1086, 420200623, 0.79581493, 0.068029076, -0.54907435, 0.24610129, 0.107013084, 0.21425712, -0.087088585
1087, 420217290, 0.79285, 0.06908314, -0.5546088, 0.24294664, 0.103524946, -0.28333458, -0.11098862
1088, 420233957, 0.7898176, 0.06996811, -0.5604432, 0.23915277, -0.31905758, -0.59651065, 0.020038605
1089, 420250624, 0.78629595, 0.07147906, -0.5667673, 0.23537678, -0.40557006, -0.48785526, -0.13829613
1090, 420267291, 0.782288, 0.07378257, -0.5732645, 0.23226538, 0.50425196, -0.7795184, -0.13824844
1091, 420283958, 0.7784018, 0.07651601, -0.5790185, 0.2301555, 0.7641421, -1.0290587, -0.06036377
1092, 420300625, 0.77474695, 0.079449125, -0.58402365, 0.22884338, 0.5596143, -1.1340353, -0.11099625
1093, 420317292, 0.7704713, 0.08331506, -0.5893536, 0.22823852, 0.22288935, -0.87029546, -0.29021263
1094, 420333959, 0.7653621, 0.08832221, -0.59537524, 0.2279174, -0.42582214, -1.1148316, -0.2578678
1095, 420350626, 0.75964224, 0.09440041, -0.6016295, 0.22819327, -0.060841568, -0.10654712, -0.27581596
1096, 420367293, 0.75475186, 0.09910255, -0.60707724, 0.22799926, 0.16870221, 0.13138494, 0.09744263
1097, 420383960, 0.750931, 0.10186567, -0.6116781, 0.22709833, 0.5681239, -0.3935357, 0.47624588
1098, 420400627, 0.7480458, 0.10441, -0.6149321, 0.22667715, -0.800867, -1.8561121, 0.8330469
1099, 420417294, 0.7439233, 0.10760177, -0.619188, 0.22716595, -0.8929566, -2.003685, 0.51113415
1100, 420433961, 0.7386286, 0.11272948, -0.62384987, 0.22919181, -0.40327862, -1.1018865, 0.054100037
1101, 420450628, 0.7332294, 0.11872223, -0.627972, 0.2322254, 0.03510405, 0.04533748, -0.11993694
1102, 420467295, 0.7286855, 0.12356763, -0.6316427, 0.23403844, 0.4048696, 0.7271383, -0.21604061
1103, 420483962, 0.72512627, 0.12679794, -0.6350668, 0.23409893, -0.32302585, 0.13160957, 0.45667553
1104, 420500629, 0.7218223, 0.12794597, -0.6390919, 0.23272723, -0.28162587, -0.011899886, 0.86454105
1105, 420517296, 0.7181038, 0.12933844, -0.6432974, 0.23187271, 0.1338637, 0.15916659, 0.15040112
1106, 420533963, 0.7145589, 0.13107228, -0.6468342, 0.23201059, 0.33930027, 0.18798943, -0.011838913
1107, 420550630, 0.7111714, 0.13255227, -0.65015763, 0.23228893, 0.3622519, 0.17637032, 0.12595749
1108, 420567297, 0.7079965, 0.13421367, -0.65315044, 0.23263735, -0.1638055, 0.09142049, 0.3604145
1109, 420583964, 0.7046464, 0.13536382, -0.65669304, 0.23216897, -0.192619, 0.47926196, 0.4051895
1110, 420600631, 0.7012713, 0.13612372, -0.6605799, 0.2309136, 0.45933253, 0.4022831, 0.030295372
1111, 420617298, 0.6982151, 0.13726158, -0.66392964, 0.22989199, 0.60433435, 0.05088563, -0.30274677
1112, 420633965, 0.6950583, 0.13961051, -0.6669165, 0.22939798, 0.41066438, -0.04965983, -0.5507622
1113, 420650632, 0.6918451, 0.14200522, -0.6699411, 0.22882637, -0.63211745, -0.43198723, 0.47243023
1114, 420667299, 0.68842274, 0.14105198, -0.67389244, 0.22813463, -0.07412539, 0.5625393, 2.5764685
1115, 420683966, 0.6843989, 0.14002745, -0.6785296, 0.2271252, 0.96340746, 0.5929562, 0.31891823
1116, 420700633, 0.68101025, 0.14069048, -0.6822201, 0.2258425, 1.2791001, 0.589165, -1.4898024
1117, 420717300, 0.6781859, 0.14180966, -0.6851464, 0.2247802, 0.93499446, 0.8539678, -1.0005617
1118, 420733967, 0.6755269, 0.14309128, -0.68794644, 0.22341816, 0.86842984, -0.016589466, -1.1484966
1119, 420750634, 0.67241687, 0.14485177, -0.6912104, 0.22158383, -0.35606506, -1.3294085, -0.9340801
1120, 420767301, 0.66957575, 0.14562951, -0.6941339, 0.22053646, -1.982462, -1.0402007, 2.4568043
1121, 420783968, 0.6679252, 0.14350379, -0.6964151, 0.21974164, -1.2728558, 0.273853, 3.3806915
1122, 420800635, 0.6682903, 0.14068922, -0.69749755, 0.21700102, -1.6214515, -0.12663853, 1.0311527
1123, 420817302, 0.66995156, 0.13701454, -0.69795984, 0.21270101, -1.6548868, -0.3463767, -0.26059437
1124, 420833969, 0.67093486, 0.13432766, -0.6985837, 0.2092394, -0.7436021, -0.87698615, -0.62501144
1125, 420850636, 0.6710118, 0.13408919, -0.69898546, 0.20779881, -0.23170516, -1.240018, -0.60904884
1126, 420867303, 0.6703878, 0.13480915, -0.69937783, 0.2080265, -0.38029835, -1.2376, 0.99518585
1127, 420883970, 0.66957676, 0.13483758, -0.69968706, 0.20957462, 0.27528483, -0.19737272, 1.98032
1128, 420900637, 0.66929245, 0.13481131, -0.6995307, 0.211017, 0.61432046, 0.26000893, 0.36263943
1129, 420917304, 0.6692969, 0.13514271, -0.6992497, 0.21172069, 0.5461253, 0.19681701, -1.2170668
1130, 420933971, 0.6689836, 0.13601078, -0.6991993, 0.21232049, 0.75716084, 0.12511785, -1.3308659
1131, 420950638, 0.6680436, 0.1382976, -0.699317, 0.21341288, 0.53179634, -0.1020844, -0.6166849
1132, 420967305, 0.6666148, 0.14091423, -0.6999044, 0.2142423, 0.15836206, 0.154648, 0.65394497
1133, 420983972, 0.66526777, 0.14274631, -0.70057666, 0.21501718, 0.4080314, 0.74044746, 1.6327372
1134, 421000639, 0.6651185, 0.14384082, -0.70033467, 0.21553722, 0.3672671, 0.7494303, 0.7523899
1135, 421017306, 0.6662332, 0.14347015, -0.6994965, 0.21506308, -0.020600295, 0.446566, 0.04925251
1136, 421033973, 0.66744566, 0.14251462, -0.6988417, 0.21406496, -0.26097462, 0.18354616, -0.32215595
1137, 421050640, 0.66830176, 0.1416329, -0.69863296, 0.21265632, -0.19251975, -0.006081564, -0.32300377
1138, 421067307, 0.66863567, 0.14107244, -0.6988583, 0.21123344, -0.19608389, -0.27365243, 0.06944275
1139, 421083974, 0.6688573, 0.14046347, -0.69898075, 0.2105324, -0.21992244, -0.19307049, 0.7358122
1140, 421100641, 0.6689799, 0.13992697, -0.69894147, 0.21062927, -0.1316916, 0.13147329, 0.51844215
1141, 421117308, 0.6694042, 0.13941553, -0.69856054, 0.21088459, -0.025862684, 0.1263901, 0.08319378
1142, 421133975, 0.66992414, 0.13904217, -0.69817275, 0.21076402, -0.021264128, -0.05101253, -0.23982239
1143, 421150642, 0.6701409, 0.13929841, -0.6979279, 0.21071653, 0.051652055, -0.17307809, -0.20384502
1144, 421167309, 0.66999334, 0.14027037, -0.6978539, 0.21078622, 0.05280404, -0.15208995, -0.010140419
1145, 421183976, 0.6699113, 0.14120822, -0.6976011, 0.21125703, -0.045277018, 0.057483174, 0.5488596
1146, 421200643, 0.6701666, 0.14136845, -0.69705725, 0.2121334, 0.1801206, 0.5390736, 0.9802389
1147, 421217310, 0.6710207, 0.14122531, -0.69613814, 0.2125474, 0.3215748, 0.53275055, 0.17344952
1148, 421233977, 0.6723707, 0.1406049, -0.6951349, 0.21197455, 0.122323275, 0.4651841, -0.16189289
1149, 421250644, 0.67383456, 0.13973433, -0.6942124, 0.21092182, 0.0043728077, 0.3998885, -0.23440266
1150, 421267311, 0.6753136, 0.13855337, -0.693431, 0.20953725, -0.054732066, 0.15629256, -0.06443405
1151, 421283978, 0.67685074, 0.13706695, -0.69270146, 0.20796166, -0.28207648, -0.07740013, 0.24392605
1152, 421300645, 0.6784084, 0.13511583, -0.691928, 0.20673391, -0.049678437, -0.24422936, 0.49300766
1153, 421317312, 0.67978215, 0.13349086, -0.69106036, 0.20617881, -0.0266794, -0.5894333, 0.45848656
1154, 421333979, 0.68117005, 0.13272251, -0.6898516, 0.20614207, -0.18009244, -0.34881672, 0.25539017
1155, 421350646, 0.6826588, 0.13283467, -0.6883196, 0.20626622, -0.2250333, -0.0044237683, 0.087781906
1156, 421367313, 0.6845594, 0.13339497, -0.6862974, 0.20634393, -0.14096202, 0.07449474, 0.026210785
1157, 421383980, 0.68705773, 0.13417558, -0.6835755, 0.20656888, -0.44728696, -0.22643477, 0.29745674
1158, 421400647, 0.68961275, 0.13363528, -0.68076634, 0.20767912, -0.6865563, -0.53941375, 1.4292784
1159, 421417314, 0.6922247, 0.13177858, -0.67784595, 0.20971885, 0.067622505, -0.72243196, 1.492732
1160, 421433981, 0.6951987, 0.13114041, -0.6741692, 0.21211979, -0.29213634, -0.57667875, 0.3338766
1161, 421450648, 0.698173, 0.13142999, -0.6704385, 0.2139869, -0.4887491, 0.27941456, -0.1621809
1162, 421467315, 0.7013725, 0.13151796, -0.66680926, 0.21480832, -0.31057796, 0.3406861, -0.1940155
1163, 421483982, 0.704874, 0.13023527, -0.6632292, 0.21521197, -0.20068915, -0.14227377, 0.5431385
1164, 421500649, 0.70891464, 0.12740771, -0.65925986, 0.21582761, -0.3351903, -0.53989655, 1.0022135
1165, 421517316, 0.71299887, 0.12467901, -0.6549329, 0.21713665, -0.46512374, -0.4069492, 0.5000372
1166, 421533983, 0.7165259, 0.12236445, -0.65098387, 0.21871302, -0.06499399, 0.26135197, -0.25152683
1167, 421550650, 0.71962184, 0.120725244, -0.64763814, 0.21939094, 0.15082565, 0.75786746, -0.7301302
1168, 421567317, 0.7226582, 0.11907514, -0.6446826, 0.21901675, 0.30951896, 0.99229425, -0.22473621
1169, 421583984, 0.72622025, 0.11652399, -0.64153486, 0.21784663, 0.49670658, 0.67040473, 0.31081295
1170, 421600651, 0.7303905, 0.11300159, -0.63783944, 0.21660803, 0.2134799, -0.34448346, 0.50206375
1171, 421617318, 0.7343642, 0.10925132, -0.6341321, 0.2159805, 0.8472022, -0.88243, 0.115730286
1172, 421633985, 0.7379927, 0.10628009, -0.63021773, 0.21655177, 0.6491956, -1.4727926, -0.11321068
1173, 421650652, 0.7409497, 0.10453301, -0.6265898, 0.21782863, 0.6602684, -0.81862557, -0.21833229
1174, 421667319, 0.74346757, 0.10424343, -0.6230974, 0.21940045, 0.60111576, 0.22053622, -0.10714245
1175, 421683986, 0.74636185, 0.10357467, -0.6195121, 0.22004305, 0.73272824, 0.5202754, 0.08636761
1176, 421700653, 0.75008935, 0.100940146, -0.61563456, 0.2194745, 0.9292614, -0.46069992, 0.32025337
1177, 421717320, 0.75377536, 0.097036, -0.6120925, 0.21851194, 0.38683432, -1.8850075, 0.5466881
1178, 421733987, 0.7562298, 0.09508819, -0.6092845, 0.21873455, 0.0889063, -1.3009495, 0.03640747
1179, 421750654, 0.7575922, 0.09628992, -0.6065922, 0.22096664, 0.048839368, 0.28013766, -0.172925
1180, 421767321, 0.7589663, 0.097956784, -0.60376203, 0.2232573, -0.108653225, 1.5494558, 0.04640484
1181, 421783988, 0.7614692, 0.097840026, -0.6003886, 0.22388242, -0.18617289, 1.4628867, 0.31064796
1182, 421800655, 0.7650181, 0.095134154, -0.5968216, 0.2224822, 0.28204653, -0.050195254, 0.35384464
1183, 421817322, 0.7689127, 0.092908196, -0.5923573, 0.22192833, -0.16497223, -1.3994212, 0.49460125
1184, 421833989, 0.77194434, 0.093477026, -0.5877579, 0.22338825, -0.56558925, -0.8819359, 0.28625965
1185, 421850656, 0.773874, 0.09632185, -0.5837246, 0.2260629, -0.6777713, 0.50081885, -0.050409317
1186, 421867323, 0.7758155, 0.097913325, -0.5800884, 0.22807615, -0.93991756, 0.8963569, 0.10657978
1187, 421883990, 0.7778413, 0.09643429, -0.5777024, 0.22786129, -0.5229224, 0.68699425, 0.2500553
1188, 421900657, 0.7798665, 0.09270865, -0.5763545, 0.22589093, -0.3188913, -0.5267681, 0.025326729
1189, 421917324, 0.78169763, 0.08791468, -0.57549083, 0.22366989, 0.18918942, -1.338552, -0.37361813
1190, 421933991, 0.78318423, 0.08609379, -0.57375056, 0.22364807, -0.59318995, -0.45911935, 0.067038536
1191, 421950658, 0.7849669, 0.08183333, -0.5719916, 0.22350323, -0.30557707, -1.7258639, 0.34116936
1192, 421967325, 0.7856364, 0.07691434, -0.572345, 0.22198772, -1.4604046, -0.5948426, 0.04429245
1193, 421983992, 0.78510046, 0.074680686, -0.57325774, 0.22229075, 0.39672655, 0.36798233, -0.45756626
1194, 422000659, 0.7856811, 0.074875794, -0.57196105, 0.22351047, 1.4712642, -0.28304052, -0.17304516
1195, 422017326, 0.7873377, 0.0755637, -0.5690664, 0.22483462, 1.2934998, -0.66523594, 0.36821556
1196, 422033993, 0.78917176, 0.07599462, -0.56589085, 0.22627033, 0.41505507, -0.500622, 0.6724529
1197, 422050660, 0.7902734, 0.07682219, -0.5632843, 0.22863674, 0.18929625, 0.6196226, 0.30564594
1198, 422067327, 0.79110545, 0.07846612, -0.56063014, 0.23170419, 0.7973355, 1.0531715, 0.18484306
1199, 422083994, 0.79207176, 0.07991203, -0.557924, 0.23442464, 1.4880768, 1.0127332, 0.08715439
1200, 422100661, 0.7933573, 0.08120029, -0.5550935, 0.23634653, 1.7169818, 0.4349358, -0.02198124
1201, 422117328, 0.7947778, 0.08115609, -0.5527035, 0.23718943, 0.86346227, -0.29356557, 0.19952393
1202, 422133995, 0.79608434, 0.08000348, -0.5505278, 0.23825589, 0.38007304, -0.68322873, 0.36969376
