sep=,
DeviceTag:,tibiaLeft,,,,,,,,,,,,,,,,,
FirmwareVersion:,1.6.0,,,,,,,,,,,,,,,,,
AppVersion:,2020.4,,,,,,,,,,,,,,,,,
SyncStatus:,Synced,,,,,,,,,,,,,,,,,
OutputRate:,60Hz,,,,,,,,,,,,,,,,,
FilterProfile:,General,,,,,,,,,,,,,,,,,
Measurement Mode:,Sensor fusion Mode - Complete (Quaternion),,,,,,,,,,,,,,,,,
StartTime:,2021-03-19 14:41:38.363 +0800,,,,,,,,,,,,,,,,,
© Xsens Technologies B. V. 2005-2021,,,,,,,,,,,,,,,,,,,

PacketCounter,SampleTimeFine,Quat_W,Quat_X,Quat_Y,Quat_Z,FreeAcc_X,FreeAcc_Y,FreeAcc_Z
1, 402116928, 0.59273547, -0.32163018, -0.696858, -0.24415106, 0.65769583, -0.39098686, -0.0847559
2, 402133595, 0.5926573, -0.3220197, -0.6970481, -0.24328323, 0.7423442, -0.44493327, -0.024271965
3, 402150262, 0.59238034, -0.32309264, -0.6968024, -0.2432388, 0.53644806, -0.50423616, 0.042549133
4, 402166929, 0.592033, -0.32436275, -0.6963931, -0.24356633, 0.14387305, -0.4838642, 8.1539154E-4
5, 402183596, 0.5918374, -0.32515627, -0.69617444, -0.24360831, -0.16301784, -0.20076336, 0.04623127
6, 402200263, 0.5918447, -0.3254326, -0.69616735, -0.24324185, -0.23030193, 0.16472134, 0.02905655
7, 402216930, 0.59198546, -0.32544568, -0.6962898, -0.24253012, -0.2893715, 0.39439744, -0.011112213
8, 402233597, 0.5921447, -0.3252824, -0.6965594, -0.24158494, -0.39668095, 0.33447886, -0.123158455
9, 402250264, 0.5923256, -0.32477477, -0.69709593, -0.24027275, -0.47711655, 0.09640237, -0.08524895
10, 402266931, 0.5925897, -0.32394764, -0.69781697, -0.23863968, -0.4067775, 0.038723953, -0.0037603378
11, 402283598, 0.5928397, -0.32311076, -0.6985901, -0.23688477, -0.209437, 0.11687515, -0.018813133
12, 402300265, 0.59302217, -0.32258984, -0.69922775, -0.23525186, 0.108309016, 0.18973891, -0.1112175
13, 402316932, 0.5930932, -0.32252595, -0.6996239, -0.23397855, 0.30365488, 0.079005346, -0.05919552
14, 402333599, 0.59307283, -0.3225849, -0.69996244, -0.23293452, 0.22953394, -0.1723077, -0.072579384
15, 402350266, 0.5932013, -0.32226154, -0.7003863, -0.23177737, 0.058814306, -0.36733326, 0.046383858
16, 402366933, 0.59348965, -0.32158357, -0.7008644, -0.23053247, 0.12578146, -0.2389662, 0.03923893
17, 402383600, 0.59361774, -0.32138088, -0.7011158, -0.22971939, 0.21142448, 0.0044016405, 0.07619858
18, 402400267, 0.5933981, -0.32195735, -0.70108336, -0.22957869, 0.033003923, 0.107608415, 0.052812576
19, 402416934, 0.5929865, -0.32287773, -0.7009491, -0.22975963, -0.07082187, 0.08225791, -0.07612705
20, 402433601, 0.5924423, -0.32393637, -0.70080996, -0.23009783, -0.03237719, -0.0076087164, -0.14723969
21, 402450268, 0.5919395, -0.32485408, -0.70072997, -0.23034114, -0.017447421, -0.025676498, -0.044898033
22, 402466935, 0.5915149, -0.32565027, -0.70065755, -0.23052777, 0.037593093, -0.005661695, 0.032737732
23, 402483602, 0.5911076, -0.32645178, -0.70056057, -0.23073381, 0.08823532, -0.019205574, 0.05735016
24, 402500269, 0.59074855, -0.32705328, -0.7005685, -0.23077747, -0.068993084, -0.07958056, 0.060577393
25, 402516936, 0.5905698, -0.3271545, -0.70080477, -0.23037378, -0.122834675, -0.10572018, -0.024336815
26, 402533603, 0.59051394, -0.326975, -0.7011687, -0.22966327, 0.021787148, -0.042328436, -0.0849123
27, 402550270, 0.5904814, -0.32676834, -0.7015436, -0.2288947, 0.029091105, -0.09363751, -0.06797218
28, 402566937, 0.5905153, -0.32646617, -0.7019087, -0.2281179, -0.017404506, -0.11544914, 0.007539749
29, 402583604, 0.5904924, -0.32620886, -0.7022423, -0.22751781, 0.08026082, -0.17490928, 0.03507614
30, 402600271, 0.5903825, -0.3261081, -0.70250505, -0.22713585, 0.15013231, -0.24435163, 0.05318737
31, 402616938, 0.5902844, -0.32608026, -0.7026915, -0.22685422, 0.36380577, -0.17956372, 0.0637579
32, 402633605, 0.5901656, -0.32632175, -0.70267785, -0.22685817, 0.46696728, -0.15458737, -0.05530262
33, 402650272, 0.59006053, -0.32669502, -0.7025295, -0.22705373, 0.33234408, -0.20463528, -0.025824547
34, 402666939, 0.5901078, -0.3267913, -0.7024155, -0.22714478, 0.176168, -0.2179286, -0.0010929108
35, 402683606, 0.5903193, -0.32656628, -0.7023981, -0.2269728, 0.09357906, -0.14930777, 0.008358002
36, 402700273, 0.5905387, -0.32634756, -0.70237935, -0.22677463, 0.11335325, -0.009753658, 0.013889313
37, 402716940, 0.5906931, -0.32631645, -0.70228845, -0.22669858, 0.019869855, 0.08381758, -0.05991745
38, 402733607, 0.59079194, -0.32646534, -0.7021428, -0.22667775, 0.0019611027, 0.12390251, -0.09458637
39, 402750274, 0.5908303, -0.32671222, -0.7019726, -0.2267493, 0.017133608, 0.10872486, -0.023575783
40, 402766941, 0.5908749, -0.3268514, -0.7018595, -0.22678263, 0.0066977893, 0.07108685, 0.043463707
41, 402783608, 0.59092104, -0.32686412, -0.70183194, -0.22672914, -0.02758418, 0.049921393, -0.031992912
42, 402800275, 0.59097695, -0.32678765, -0.70185924, -0.2266094, -0.036394615, 0.016515931, -0.011744499
43, 402816942, 0.5910097, -0.32676804, -0.7018693, -0.22652096, -0.008778248, 0.0020601188, -0.03479576
44, 402833609, 0.5910632, -0.32679933, -0.701828, -0.22646397, 0.024703993, -0.004839838, -0.014701843
45, 402850276, 0.5910904, -0.32690862, -0.7017393, -0.22651011, 0.13521416, -0.021211268, -0.002155304
46, 402866943, 0.5910578, -0.32709235, -0.7016182, -0.22670549, 0.12365005, -0.021753734, 0.011752129
47, 402883610, 0.59108025, -0.32714486, -0.7015501, -0.22678144, 0.0387196, -0.0894453, -0.037623405
48, 402900277, 0.5912482, -0.32692298, -0.70156276, -0.22662456, 0.0997972, -0.03636377, -0.036608696
49, 402916944, 0.5914317, -0.32677448, -0.7015319, -0.22645615, 0.1361574, 0.030817855, -0.035128593
50, 402933611, 0.5915607, -0.3267873, -0.70143676, -0.2263945, 0.07391216, 0.014063771, -0.027424812
51, 402950278, 0.5916914, -0.32675126, -0.7013645, -0.22632888, -0.0016262803, -0.034694575, -0.010212898
52, 402966945, 0.5918603, -0.32660463, -0.70133245, -0.22619887, 0.010417045, -0.039624937, 0.008449554
53, 402983612, 0.59202045, -0.3264009, -0.70133555, -0.2260641, 0.041927453, 0.01797994, 9.4127655E-4
54, 403000279, 0.59216154, -0.3262688, -0.7013158, -0.22594628, 0.05516568, 0.091440044, 0.008825302
55, 403016946, 0.5922741, -0.3262583, -0.70124066, -0.22589928, 0.12243906, 0.09872645, -0.082816124
56, 403033613, 0.59232783, -0.32637897, -0.7011293, -0.22592993, 0.05057696, 0.04908892, -0.056386948
57, 403050280, 0.5924494, -0.3263322, -0.7010747, -0.22584754, -0.010800146, -0.055025537, 0.024118423
58, 403066947, 0.5926719, -0.3260105, -0.7011317, -0.22555135, 0.033738833, -0.07526139, 9.784698E-4
59, 403083614, 0.5929563, -0.32565373, -0.70116186, -0.22522567, 0.1966087, -0.004271668, 0.06451225
60, 403100281, 0.5931575, -0.3254766, -0.70112544, -0.22506522, 0.15893604, 0.02405357, 0.007680893
61, 403116948, 0.5933335, -0.32538328, -0.70104444, -0.22498862, 0.07732833, 0.021458473, -0.056105614
62, 403133615, 0.5935089, -0.32529792, -0.7009655, -0.22489545, -0.011123793, 0.03995283, -0.05374527
63, 403150282, 0.5936676, -0.32524562, -0.70088875, -0.22479092, -0.05245715, 0.058866944, -0.038098335
64, 403166949, 0.593791, -0.3252247, -0.70082307, -0.22470054, -0.01306612, 0.08265778, -0.032025337
65, 403183616, 0.59385663, -0.3252697, -0.7007635, -0.22464748, 0.037069622, 0.0763328, -0.014508247
66, 403200283, 0.59389424, -0.3253504, -0.70070213, -0.22462279, 0.06828097, 0.06460631, -0.024382591
67, 403216950, 0.5939165, -0.32544294, -0.70063645, -0.22463483, 0.08850934, 0.065066636, 0.01656437
68, 403233617, 0.5939315, -0.32554364, -0.7005663, -0.22466767, 0.09902831, 0.014289966, -0.009062767
69, 403250284, 0.5939816, -0.32557368, -0.700516, -0.22464891, 0.07902613, -0.04109811, -0.02209568
70, 403266951, 0.59412277, -0.3254746, -0.7004908, -0.2244975, 0.08746599, 0.017997822, 0.037303925
71, 403283618, 0.5942471, -0.3254329, -0.7004341, -0.22440585, 0.09228895, -0.021405948, -0.052347183
72, 403300285, 0.5943752, -0.32539517, -0.7003733, -0.22431125, 0.053395458, -0.070654124, -0.005789757
73, 403316952, 0.59454834, -0.32526514, -0.7003339, -0.22416371, 0.07536365, -0.03972518, -0.014377594
74, 403333619, 0.59473187, -0.32509813, -0.7003075, -0.22400153, 0.08049819, -0.025256963, -0.0058107376
75, 403350286, 0.5949312, -0.32492983, -0.70026135, -0.22386059, 0.13787709, 0.03390658, 0.03940296
76, 403366953, 0.5951207, -0.32478994, -0.70019984, -0.22375241, 0.15637815, 0.060138285, -0.022341728
77, 403383620, 0.595337, -0.3246614, -0.7001173, -0.22362213, 0.123826176, 0.0056995805, -0.08142471
78, 403400287, 0.59563816, -0.32442296, -0.7000472, -0.22338532, 0.09668366, -0.052644677, -0.07244587
79, 403416954, 0.5960462, -0.32399365, -0.7000306, -0.22297132, 0.09987542, -0.04389068, 0.036047935
80, 403433621, 0.596481, -0.3234748, -0.700037, -0.22254163, 0.085447215, -0.08444275, 0.046788216
81, 403450288, 0.5969194, -0.32302693, -0.69997525, -0.2222107, 0.16443938, -0.12845501, 0.011979103
82, 403466955, 0.5974018, -0.32265282, -0.69980824, -0.22198346, 0.2592862, -0.107098356, -0.03730774
83, 403483622, 0.5978669, -0.32243925, -0.699534, -0.2219062, 0.29390657, -0.027322559, -0.03418541
84, 403500289, 0.59831375, -0.3223646, -0.6991649, -0.2219734, 0.20012367, -0.10913613, 0.028533936
85, 403516956, 0.59881663, -0.32213613, -0.6988134, -0.22205591, 0.0588304, -0.22589058, 0.107522964
86, 403533623, 0.59940434, -0.32171565, -0.69850516, -0.22205001, 0.15144031, -0.22317702, -0.020367622
87, 403550290, 0.600004, -0.32138813, -0.69810253, -0.2221713, 0.3837579, -0.181538, 0.049235344
88, 403566957, 0.6005592, -0.3213022, -0.697516, -0.22263661, 0.4451636, -0.101821214, 0.01965332
89, 403583624, 0.6010414, -0.32148874, -0.6967818, -0.22336422, 0.3319713, -0.008873129, -0.04677677
90, 403600291, 0.6015651, -0.3217032, -0.6959684, -0.22417966, 0.32763782, -0.15529546, 0.06298542
91, 403616958, 0.60214025, -0.32187653, -0.69507146, -0.22516753, 0.44046044, -0.27787042, 0.079875946
92, 403633625, 0.6027715, -0.32214835, -0.6940208, -0.22632745, 0.49152914, -0.46368656, -0.06754398
93, 403650292, 0.6034766, -0.32246038, -0.6928596, -0.2275585, 0.29690567, -0.31722602, -0.06420708
94, 403666959, 0.6041932, -0.32289526, -0.69159514, -0.22888263, 0.05096319, 0.03638489, -0.07326031
95, 403683626, 0.60477537, -0.32368568, -0.69019836, -0.23043995, -0.17506339, 0.29269233, -0.12033939
96, 403700293, 0.60514945, -0.32478473, -0.6887978, -0.23209615, -0.30310726, 0.38944328, -0.09547329
97, 403716960, 0.6054808, -0.3258125, -0.6875244, -0.23356207, -0.38232562, 0.41167453, 0.011209488
98, 403733627, 0.6059194, -0.32645124, -0.68650824, -0.23452047, -0.41437647, 0.45507863, -0.02678585
99, 403750294, 0.6064323, -0.32666904, -0.6857886, -0.23499654, -0.4158083, 0.5237946, -0.07776642
100, 403766961, 0.6069305, -0.32657343, -0.6853649, -0.23507902, -0.52562827, 0.5808118, -0.06434345
101, 403783628, 0.6074128, -0.3262219, -0.6852231, -0.23473503, -0.61302453, 0.70233446, -0.09981632
102, 403800295, 0.6077701, -0.32586384, -0.68527365, -0.23415926, -0.6371134, 0.67671484, -0.060214043
103, 403816962, 0.60797215, -0.32555833, -0.6854763, -0.23346545, -0.56818426, 0.58308405, -0.043720245
104, 403833629, 0.60805774, -0.32524922, -0.6858353, -0.23261729, -0.3340544, 0.53250486, -0.09280205
105, 403850296, 0.60801315, -0.32510012, -0.6862355, -0.2317605, -0.113933496, 0.4401389, -0.11655903
106, 403866963, 0.6078804, -0.32506248, -0.6866713, -0.23086883, -0.02305715, 0.37582886, -0.06462383
107, 403883630, 0.6077873, -0.32483882, -0.687219, -0.2297964, -0.09839487, 0.21393207, -0.044324875
108, 403900297, 0.60781157, -0.3243275, -0.68787664, -0.22848347, -0.0026186777, 0.1366414, -0.0283432
109, 403916964, 0.60779595, -0.32395592, -0.68846375, -0.22728054, 0.22039585, -0.029878654, -0.00789547
110, 403933631, 0.6076854, -0.32386765, -0.68891275, -0.22633936, 0.2333578, -0.19302131, 0.029985428
111, 403950298, 0.6076263, -0.3239013, -0.68920714, -0.22555274, 0.35198686, -0.30962557, 0.06991577
112, 403966965, 0.6076361, -0.32402554, -0.6893246, -0.22498755, 0.4771948, -0.3800268, -0.0070590973
113, 403983632, 0.6076846, -0.3242141, -0.6893234, -0.22458802, 0.40387717, -0.38761607, 0.009555817
114, 404000299, 0.60786325, -0.32422903, -0.6893044, -0.22414133, 0.27292943, -0.3317311, 0.06302738
115, 404016966, 0.6081278, -0.32415318, -0.6892357, -0.22374475, 0.26276004, -0.2785786, 0.02745533
116, 404033633, 0.60836095, -0.32417208, -0.6890917, -0.22352652, 0.21924385, -0.21160899, 0.04062462
117, 404050300, 0.6086208, -0.3242438, -0.6888626, -0.22342116, 0.22567701, -0.18286332, -0.017183304
118, 404066967, 0.6089038, -0.3243962, -0.6885454, -0.22340591, 0.29460126, -0.14162865, -0.06800079
119, 404083634, 0.6091649, -0.3246953, -0.6881269, -0.22355005, 0.21694927, -0.095567435, 0.016656876
120, 404100301, 0.6094814, -0.3249067, -0.6877059, -0.22367577, 0.090682335, -0.052827846, -0.04545498
121, 404116968, 0.60979044, -0.32510006, -0.6872862, -0.22384214, 0.099753834, 0.11194635, -0.008202553
122, 404133635, 0.61000365, -0.3254948, -0.6867915, -0.224206, 0.07352548, 0.13872723, 0.04047966
123, 404150302, 0.6101891, -0.32591417, -0.6862957, -0.22460996, 0.027188117, 0.09337388, -0.050505638
124, 404166969, 0.61041844, -0.3262817, -0.6858135, -0.22492556, 0.07278029, 0.034063596, -0.0868721
125, 404183636, 0.61066073, -0.3266586, -0.68530136, -0.22528163, 0.117996514, -0.08794519, -0.028328896
126, 404200303, 0.6109268, -0.3270004, -0.6847803, -0.22564875, 0.12954006, -0.17746504, 0.0068626404
127, 404216970, 0.61118305, -0.32738796, -0.6842193, -0.22609395, 0.103955425, -0.06832735, 0.043801308
128, 404233637, 0.6114551, -0.32777208, -0.6836447, -0.22653964, 0.05428325, 0.01690138, 0.004429817
129, 404250304, 0.61174124, -0.32807803, -0.6831122, -0.22693011, -0.07418574, 0.14310975, -0.07928085
130, 404266971, 0.61198384, -0.32839617, -0.68261623, -0.22730792, -0.19306065, 0.25543663, -0.053643227
131, 404283638, 0.61222667, -0.32860243, -0.68222666, -0.22752558, -0.24763939, 0.25956637, -0.034955025
132, 404300305, 0.61241347, -0.32879996, -0.68191266, -0.22767846, -0.23266491, 0.2952806, -0.025074005
133, 404316972, 0.6125035, -0.32907575, -0.681651, -0.22782098, -0.25329918, 0.2643758, -0.04280281
134, 404333639, 0.61251974, -0.32934573, -0.6814762, -0.22791074, -0.25767824, 0.2152365, -0.018795013
135, 404350306, 0.6125448, -0.32948098, -0.6813959, -0.22788772, -0.15967453, 0.21940076, 0.018597603
136, 404366973, 0.61256063, -0.3295533, -0.6813854, -0.22777213, -0.0975424, 0.18218474, -0.037758827
137, 404383640, 0.61260206, -0.3295443, -0.681428, -0.22754595, -0.07255231, 0.16798015, -0.074643135
138, 404400307, 0.6126745, -0.3294423, -0.68152153, -0.2272186, -0.07182813, 0.13598886, -0.017310143
139, 404416974, 0.61279064, -0.32911882, -0.6817602, -0.22665793, -0.105022036, 0.12693278, 0.013090134
140, 404433641, 0.6131877, -0.32806125, -0.68229926, -0.22549203, -0.20466098, 0.05321106, 0.039515495
141, 404450308, 0.61376476, -0.32655337, -0.6830062, -0.22396472, -0.084247395, 0.1897597, -0.055490494
142, 404466975, 0.6141511, -0.32540205, -0.68363404, -0.22266233, -0.04142768, 0.3082159, -0.0074653625
143, 404483642, 0.6143292, -0.32464895, -0.68416715, -0.22163069, -0.17762798, 0.32781327, -0.011076927
144, 404500309, 0.61436236, -0.324198, -0.68461883, -0.22080222, -0.16916086, 0.3436306, -0.11526108
145, 404516976, 0.6142791, -0.32401082, -0.6849897, -0.22015776, 0.09967113, 0.16589232, -0.2424221
146, 404533643, 0.61416364, -0.32397747, -0.6852613, -0.21968322, 0.31130838, -0.012291537, -0.12368202
147, 404550310, 0.61401933, -0.3240906, -0.68541634, -0.21943584, 0.4582199, -0.26308426, 0.14672184
148, 404566977, 0.61395645, -0.3241558, -0.68547815, -0.21932212, 0.47356495, -0.50170255, 0.2191019
149, 404583644, 0.61413103, -0.32393596, -0.68547535, -0.21916723, 0.6204966, -0.6409255, 0.16363811
150, 404600311, 0.6145438, -0.3235933, -0.68528765, -0.21910305, 0.7732111, -0.58533686, -0.06743336
151, 404616978, 0.61498314, -0.32371905, -0.68471736, -0.21946748, 0.9582414, -0.52948177, -0.21279907
152, 404633645, 0.61538386, -0.32445994, -0.6837053, -0.22040343, 0.8930795, -0.4035523, 0.02380848
153, 404650312, 0.6156698, -0.32574365, -0.6823305, -0.22196628, 0.5598664, -0.2881586, 0.06883907
154, 404666979, 0.61600393, -0.32701725, -0.68088806, -0.22358982, 0.057920255, -0.23565742, 0.03450203
155, 404683646, 0.6164737, -0.32798088, -0.6795182, -0.2250459, -0.1538234, -0.060061507, -0.055552483
156, 404700313, 0.6169299, -0.32884133, -0.6782406, -0.22639094, -0.27595133, 0.20862934, -0.15786839
157, 404716980, 0.61728764, -0.32969582, -0.6771032, -0.22757456, -0.43596068, 0.3794384, -0.051192284
158, 404733647, 0.61742276, -0.33064857, -0.6761248, -0.22873166, -0.6120652, 0.5495142, -0.014994621
159, 404750314, 0.61741656, -0.33150598, -0.6753817, -0.22970045, -0.741232, 0.6286498, 0.03909874
160, 404766981, 0.61733675, -0.3321721, -0.6748963, -0.23037791, -0.6901414, 0.6469751, -0.0141506195
161, 404783648, 0.6170849, -0.33279175, -0.6746627, -0.23084247, -0.58575505, 0.6573878, -0.05889225
162, 404800315, 0.6167557, -0.33317325, -0.6747271, -0.2309837, -0.61412776, 0.58561045, -0.020968437
163, 404816982, 0.61640054, -0.3332201, -0.6751177, -0.23072301, -0.56791335, 0.52759147, -0.08464527
164, 404833649, 0.6160282, -0.33303648, -0.6757442, -0.23014747, -0.43605366, 0.4866323, -0.0803709
165, 404850316, 0.61562127, -0.33275858, -0.67650354, -0.22940686, -0.2630077, 0.34002522, -0.033794403
166, 404866983, 0.6151466, -0.33254424, -0.6772886, -0.22867289, -0.10482713, 0.2331904, -0.0027303696
167, 404883650, 0.61456823, -0.33243728, -0.67808264, -0.22802868, -0.0043562674, 0.08296969, -0.02825737
168, 404900317, 0.613979, -0.33227032, -0.67892015, -0.22736734, -0.037166182, -0.0772463, -0.02063942
169, 404916984, 0.6134972, -0.33182693, -0.679855, -0.22652034, 0.07365691, -0.1288418, -0.015997887
170, 404933651, 0.6131239, -0.33124712, -0.6807886, -0.22557373, 0.27764198, -0.13764755, 0.025714874
171, 404950318, 0.6128166, -0.33069688, -0.6816199, -0.22470379, 0.3416856, -0.17178188, 0.06323528
172, 404966985, 0.6125666, -0.330185, -0.68234026, -0.2239507, 0.37018707, -0.28178334, -0.057411194
173, 404983652, 0.6124201, -0.32957816, -0.6830198, -0.22317225, 0.33495072, -0.39284325, 0.0035305023
174, 405000319, 0.612416, -0.3288205, -0.68364805, -0.22237656, 0.3793614, -0.33124408, 0.030129433
175, 405016986, 0.61252475, -0.3280061, -0.6841938, -0.2215997, 0.36431986, -0.24935116, -0.022788048
176, 405033653, 0.61272806, -0.32721993, -0.684632, -0.22084498, 0.37648523, -0.15385748, -0.013671875
177, 405050320, 0.6129044, -0.3266326, -0.68492764, -0.22030765, 0.33136913, -0.07189249, 0.003443718
178, 405066987, 0.613069, -0.326173, -0.6851211, -0.21992934, 0.21555366, -0.09907983, -0.0089178085
179, 405083654, 0.6132565, -0.32569897, -0.6852928, -0.21957341, 0.21678746, -0.06717838, -0.056937218
180, 405100321, 0.6134305, -0.3253414, -0.68539757, -0.21928984, 0.273448, 0.029877312, -0.028450012
181, 405116988, 0.6135238, -0.32521975, -0.6854022, -0.21919496, 0.16987967, 0.060413428, 0.0033006668
182, 405133655, 0.6135767, -0.32518354, -0.68536776, -0.21920818, 0.05635924, -0.020042518, 0.027620316
183, 405150322, 0.6137229, -0.32497773, -0.6853543, -0.21914686, 0.02456318, 0.0021095152, 0.002333641
184, 405166989, 0.61387354, -0.32479972, -0.68532795, -0.21907099, 0.09922053, 0.11874685, -0.040403366
185, 405183656, 0.6139226, -0.32490718, -0.68520606, -0.21915527, -0.013672288, 0.1916218, 0.040384293
186, 405200323, 0.61389804, -0.32502607, -0.68512446, -0.21930288, -0.2120977, 0.24004588, -0.036301613
187, 405216990, 0.61386055, -0.32505587, -0.6851274, -0.21935466, -0.20777094, 0.262714, -0.09364796
188, 405233657, 0.613774, -0.32511598, -0.68518144, -0.21933895, -0.102862, 0.2901074, -0.036743164
189, 405250324, 0.6136307, -0.32522163, -0.6852625, -0.21933013, -0.09757101, 0.25733763, -0.023575783
190, 405266991, 0.6134837, -0.32524428, -0.68540275, -0.219269, -0.21245934, 0.11341852, -0.018819809
191, 405283658, 0.613381, -0.3250775, -0.6856613, -0.21899532, -0.1282182, 0.099085525, -0.03788376
192, 405300325, 0.6132681, -0.32492802, -0.6859201, -0.21872254, 0.09279498, 0.14675413, -0.036863327
193, 405316992, 0.61310744, -0.32492846, -0.6861243, -0.21853164, 0.13082035, 0.1403154, -0.07000065
194, 405333659, 0.61291224, -0.3250333, -0.6862901, -0.21840288, 0.063977905, 0.06819045, -0.005867958
195, 405350326, 0.61270726, -0.32510033, -0.6864848, -0.21826641, 0.03793909, 0.0076480545, -0.01442337
196, 405366993, 0.6125533, -0.32506505, -0.68670565, -0.21805651, 0.08597605, 0.0024446729, -0.0025224686
197, 405383660, 0.6123944, -0.32506552, -0.6869012, -0.21788599, 0.20697658, 0.03210585, -0.0044527054
198, 405400327, 0.61217725, -0.32524192, -0.68700755, -0.21789825, 0.20913437, -0.007828318, -0.022075653
199, 405416994, 0.61196244, -0.32547662, -0.6870579, -0.21799195, 0.20808028, -0.059072237, -0.046779633
200, 405433661, 0.6117602, -0.3257319, -0.6870769, -0.21811837, 0.1666535, -0.12008513, 8.9645386E-4
201, 405450328, 0.6116222, -0.32590312, -0.68708354, -0.2182284, 0.17465392, -0.14480968, -0.005756378
202, 405466995, 0.6115382, -0.32602784, -0.6870677, -0.2183276, 0.19015588, -0.11511242, 0.013916969
203, 405483662, 0.6114844, -0.3261031, -0.687037, -0.21846256, 0.11858077, -0.07586499, 0.015048981
204, 405500329, 0.61153346, -0.32608443, -0.6869769, -0.21854186, 0.09609493, -0.04533111, -0.05558586
205, 405516996, 0.61151946, -0.3261761, -0.6868713, -0.21877606, 0.12674168, -0.0013941621, -0.04346466
206, 405533663, 0.61148167, -0.3264413, -0.6866707, -0.21911561, 0.10468274, -0.10085117, 0.017066956
207, 405550330, 0.61144406, -0.32670033, -0.6864631, -0.21948491, 0.10176768, -0.076300286, -0.031819344
208, 405566997, 0.6114366, -0.32692462, -0.6862391, -0.21987173, 0.08127244, -0.109952055, 0.070056915
209, 405583664, 0.6114985, -0.3269696, -0.68606013, -0.22019085, 0.082874134, -0.050438493, 0.025317192
210, 405600331, 0.6115956, -0.3269237, -0.68590075, -0.22048567, 0.07623491, 0.021817435, -0.04730892
211, 405616998, 0.6116788, -0.32693127, -0.6857104, -0.2208355, 0.071826786, -0.0022449642, -0.0782547
212, 405633665, 0.61174357, -0.32699007, -0.6854872, -0.2212615, 0.08296399, -0.06680445, -0.05891323
213, 405650332, 0.61177033, -0.3271816, -0.6852178, -0.2217387, 0.13778321, 0.0042994954, 0.113824844
214, 405666999, 0.61171716, -0.32746932, -0.6849264, -0.22235993, -0.018676296, 0.1102129, 0.032125473
215, 405683666, 0.61167634, -0.32762927, -0.68472683, -0.22285075, -0.20131052, 0.16185859, -0.11797714
216, 405700333, 0.6116579, -0.3276716, -0.6846053, -0.223212, -0.18506604, 0.14450291, -0.10078621
217, 405717000, 0.6115746, -0.32771668, -0.6845503, -0.22354254, -0.17611703, 0.16363674, -0.07818127
218, 405733667, 0.61138153, -0.32792214, -0.6845086, -0.2238967, -0.11955798, 0.2516729, 0.032361984
219, 405750334, 0.6110329, -0.32828888, -0.6845039, -0.2243251, -0.27912745, 0.32891428, 0.014298439
220, 405767001, 0.6106923, -0.3284794, -0.68463355, -0.22457793, -0.28814173, 0.33292142, -0.04359722
221, 405783668, 0.61035746, -0.32853726, -0.684864, -0.22470057, -0.08930863, 0.26745135, -0.076221466
222, 405800335, 0.6100643, -0.32848904, -0.68516755, -0.22464176, 0.021362474, 0.2181824, -0.0072698593
223, 405817002, 0.6098073, -0.3283687, -0.6855257, -0.22442298, -0.005916388, 0.20701703, -0.025084496
224, 405833669, 0.60959816, -0.32807016, -0.68601155, -0.22394294, -0.12060625, 0.21919222, -0.061206818
225, 405850336, 0.6094534, -0.3275883, -0.6865984, -0.22324228, -0.10288614, 0.16783533, -0.08289623
226, 405867003, 0.60933506, -0.32702288, -0.6872353, -0.22243316, 0.019796543, 0.23963505, -0.024703026
227, 405883670, 0.60915303, -0.32662976, -0.687832, -0.22166374, 0.0477522, 0.2760899, 0.011328697
228, 405900337, 0.60892636, -0.32635155, -0.6883887, -0.2209673, -0.08950442, 0.24235263, -0.035036087
229, 405917004, 0.6086948, -0.32599473, -0.6890089, -0.22019748, -0.15765755, 0.26999202, -0.088344574
230, 405933671, 0.6083399, -0.32575816, -0.6896587, -0.2194932, -0.11637604, 0.3304495, -0.10840893
231, 405950338, 0.60784805, -0.32573557, -0.6902973, -0.21888103, -0.13514309, 0.32918888, -0.018572807
232, 405967005, 0.6072474, -0.3258723, -0.6909351, -0.21833128, -0.10398985, 0.26157665, -0.007209778
233, 405983672, 0.6065658, -0.3261624, -0.69153935, -0.21787941, 0.055049453, 0.19653204, -0.021525383
234, 406000339, 0.60579437, -0.3266273, -0.69209224, -0.21757375, 0.14682521, 0.11877713, 0.0069885254
235, 406017006, 0.6050349, -0.32708153, -0.6926332, -0.21728246, 0.16226684, -0.025663534, -0.023118973
236, 406033673, 0.6043522, -0.32739365, -0.6932021, -0.21689811, 0.18072587, -0.11251408, -0.01713562
237, 406050340, 0.6037124, -0.32767665, -0.69375163, -0.21649526, 0.21754651, -0.073997654, 0.013410568
238, 406067007, 0.603036, -0.3281037, -0.6942153, -0.21624707, 0.21433999, -0.057369184, -0.0071105957
239, 406083674, 0.60229933, -0.32869434, -0.694604, -0.216155, 0.17417784, -0.07840846, -0.0413208
240, 406100341, 0.6016003, -0.32934293, -0.69490176, -0.21615738, 0.2471204, -0.113034636, 0.032598495
241, 406117008, 0.60096246, -0.33005342, -0.6950511, -0.21636757, 0.43748593, -0.16415149, 0.018630981
242, 406133675, 0.60041463, -0.3307461, -0.6951191, -0.21661212, 0.43148953, -0.24678926, -0.0076942444
243, 406150342, 0.6000067, -0.33133122, -0.69513893, -0.21678469, 0.34351483, -0.35940057, -0.0077791214
244, 406167009, 0.59977233, -0.3316302, -0.69517684, -0.21685426, 0.19479556, -0.29026264, 0.055847168
245, 406183676, 0.5996069, -0.33176497, -0.6952369, -0.21691312, 0.08814591, -0.14818394, 0.057002068
246, 406200343, 0.599459, -0.33192518, -0.69526523, -0.21698591, 0.10939529, -0.008247628, -0.033006668
247, 406217010, 0.59927744, -0.33224177, -0.6952167, -0.2171584, 0.098291166, 0.06720789, -0.0802536
248, 406233677, 0.5990876, -0.33259243, -0.69516075, -0.21732424, 0.09304666, 0.027149895, -0.036067963
249, 406250344, 0.598976, -0.33277223, -0.69516134, -0.2173548, 0.1186751, -0.01178405, -0.0057201385
250, 406267011, 0.5989577, -0.33274695, -0.6952087, -0.2172925, 0.14939874, 0.008132966, 0.028130531
251, 406283678, 0.59901154, -0.33257496, -0.6952936, -0.21713592, 0.100376986, 0.0068924692, 0.035873413
252, 406300345, 0.5991256, -0.33232057, -0.69538563, -0.21691579, 0.1007963, 0.036666855, -0.026891708
253, 406317012, 0.5991783, -0.33219767, -0.69544446, -0.21676965, 0.047053054, 0.0056397906, -0.07790375
254, 406333679, 0.5991877, -0.33216882, -0.695472, -0.21669972, 0.016082652, 0.009907324, -0.0014019012
255, 406350346, 0.5991621, -0.33218443, -0.6954955, -0.21667111, 0.026469298, 0.022007197, -0.009246826
256, 406367013, 0.59911686, -0.33221516, -0.69552094, -0.2166673, 0.020101862, 0.039339174, -0.017936707
257, 406383680, 0.599015, -0.33229488, -0.6955524, -0.21672553, 0.02337141, 0.07653631, -0.0042266846
258, 406400347, 0.5989112, -0.332344, -0.69560075, -0.21678196, -0.042112075, 0.08762512, -0.043938637
259, 406417014, 0.5987963, -0.33235183, -0.69570166, -0.21676393, 0.051215313, 0.097380124, -0.034427643
260, 406433681, 0.59864646, -0.33247316, -0.695751, -0.21683285, 0.14762896, 0.11284946, 0.0015954971
261, 406450348, 0.5984429, -0.33269638, -0.6957693, -0.21699397, 0.08840921, 0.02122859, 0.014670372
262, 406467015, 0.598273, -0.33282006, -0.6958181, -0.21711609, 0.01492843, -0.056427635, -0.023583412
263, 406483682, 0.5982012, -0.33275422, -0.6959267, -0.21706657, 0.0040782173, -0.056750275, -0.003227234
264, 406500349, 0.59818643, -0.3325902, -0.69606155, -0.2169265, 0.069158934, 0.016292306, -0.035015106
265, 406517016, 0.5981533, -0.33252162, -0.6961497, -0.21684006, 0.10721425, 0.057516366, -0.036914825
266, 406533683, 0.59808344, -0.33252862, -0.69621515, -0.21681193, 0.080039546, 0.06159112, 0.011088371
267, 406550350, 0.59802693, -0.33245397, -0.6963149, -0.21676153, 0.036878295, -0.0071316278, -0.020580292
268, 406567017, 0.5980134, -0.33226076, -0.6964619, -0.21662317, 0.020479597, -0.03121269, -0.024118423
269, 406583684, 0.5980408, -0.33202782, -0.6966032, -0.21645087, 0.15364414, -0.062104974, 0.0015134811
270, 406600351, 0.5981184, -0.3318194, -0.69668525, -0.21629153, 0.2327874, -0.023751603, 0.0014953613
271, 406617018, 0.5982027, -0.33168906, -0.6967029, -0.2162015, 0.24843778, -0.003035306, -0.023100853
272, 406633685, 0.5982789, -0.33161524, -0.6966877, -0.21615264, 0.14310908, 0.040506918, -0.0138196945
273, 406650352, 0.59833014, -0.33155218, -0.69667834, -0.21613792, 0.03560159, 0.16254666, -0.048573494
274, 406667019, 0.59833056, -0.33155406, -0.69668055, -0.21612664, 0.025775515, 0.23641022, -0.068956375
275, 406683686, 0.5982662, -0.33166954, -0.6966828, -0.21612051, -0.01824715, 0.24178067, -0.019358635
276, 406700353, 0.59820396, -0.33171713, -0.6967424, -0.21602775, -0.06319293, 0.17779294, 0.018556595
277, 406717020, 0.59820527, -0.33160648, -0.69687855, -0.21575424, 0.00467008, 0.24947488, -0.049102783
278, 406733687, 0.59823817, -0.33152205, -0.6970188, -0.21533947, 0.11415343, 0.29963878, -0.1333704
279, 406750354, 0.5982859, -0.33147785, -0.6971678, -0.21479236, 0.0273182, 0.32289732, -0.0830822
280, 406767021, 0.5983782, -0.3312574, -0.6974338, -0.21400964, -0.07959654, 0.31175396, -0.050218582
281, 406783688, 0.5984816, -0.330826, -0.69785386, -0.21301636, -0.16198699, 0.30909595, -0.094929695
282, 406800355, 0.59860545, -0.33018857, -0.69839627, -0.21187684, -0.1563272, -0.03897373, 0.07715511
283, 406817022, 0.59892946, -0.32906517, -0.6991026, -0.21037371, 0.0061649345, -0.13695087, 0.10680103
284, 406833689, 0.5994176, -0.32769826, -0.6998287, -0.20869665, 0.34546208, -0.12318, -0.011501312
285, 406850356, 0.5999386, -0.3265445, -0.70039034, -0.20711815, 0.52218616, -0.11904915, -0.063996315
286, 406867023, 0.6004302, -0.3257162, -0.70074016, -0.20581062, 0.4986592, -0.15800443, -0.011577606
287, 406883690, 0.6009606, -0.3248813, -0.70098484, -0.20474553, 0.2595589, -0.4086019, 0.15322399
288, 406900357, 0.6015838, -0.32385612, -0.70119536, -0.20381655, 0.1228235, -0.40514684, 0.0042324066
289, 406917024, 0.6022753, -0.32287318, -0.7013356, -0.20284937, 0.21391307, -0.03421067, -0.085084915
290, 406933691, 0.60290307, -0.322156, -0.70136, -0.20203882, 0.16032852, 0.25215256, -6.6661835E-4
291, 406950358, 0.6032804, -0.32191107, -0.70127016, -0.20161454, 0.02966151, 0.45994964, -0.029267311
292, 406967025, 0.60342085, -0.32190824, -0.7011822, -0.20150396, -0.23606455, 0.35508654, -0.03454399
293, 406983692, 0.60358876, -0.32162967, -0.70125556, -0.20119058, -0.35748082, 0.22869332, -0.10048008
294, 407000359, 0.6038089, -0.32104045, -0.7014793, -0.20069033, -0.32732177, 0.1022422, -0.21904755
295, 407017026, 0.60385084, -0.32062924, -0.701699, -0.20045269, -0.05361763, -0.03535774, -0.31365108
296, 407033693, 0.6036392, -0.3206147, -0.70182353, -0.20067789, -0.099771716, -0.4897476, 0.07578373
297, 407050360, 0.60345536, -0.32067376, -0.7017989, -0.2012216, 0.3252431, -0.72840905, 0.47579098
298, 407067027, 0.6032206, -0.32116145, -0.70143074, -0.2024277, 0.8859551, -0.7431645, 0.20444775
299, 407083694, 0.6030882, -0.32199034, -0.70074934, -0.20386021, 0.98181975, -0.47969145, -0.15849972
300, 407100361, 0.6032, -0.32281142, -0.6999145, -0.20509489, 0.5309577, 0.04475802, -0.10183525
301, 407117028, 0.60329676, -0.32365772, -0.6990674, -0.20636202, 0.024005739, 0.49113017, -0.08084297
302, 407133695, 0.6032154, -0.32446146, -0.69840246, -0.2075854, -0.47217828, 0.83101046, -0.014681816
303, 407150362, 0.6030702, -0.3251842, -0.6979133, -0.20851962, -0.53794783, 0.27517307, 0.28434658
304, 407167029, 0.60316825, -0.325181, -0.6976495, -0.20912287, -0.24865101, -0.4064897, -0.01825428
305, 407183696, 0.60350245, -0.32487065, -0.6975249, -0.20905642, 0.21363637, -0.50971574, -0.3022232
306, 407200363, 0.60394436, -0.32463476, -0.6972813, -0.20895916, 0.13018513, -0.7172904, 0.042660713
307, 407217030, 0.6043808, -0.3243776, -0.6969949, -0.2090525, -0.082493715, 0.075981215, -0.14177322
308, 407233697, 0.6044086, -0.32470468, -0.696665, -0.20956336, -0.38152766, 0.5286803, -0.17957115
309, 407250364, 0.60416114, -0.32526246, -0.6963857, -0.21033852, -0.46485972, 0.5591061, -0.029428482
310, 407267031, 0.60384464, -0.3256014, -0.69631684, -0.21094938, -0.48737583, 0.42665258, -0.06363869
311, 407283698, 0.603647, -0.32540244, -0.6966255, -0.21080363, -0.4569776, 0.7512326, -0.1100378
312, 407300365, 0.60347986, -0.32479933, -0.69727963, -0.2100489, -0.87070006, 0.7769861, -0.09556866
313, 407317032, 0.6031998, -0.32391077, -0.6983072, -0.20880748, -0.964487, 1.138699, -0.22269917
314, 407333699, 0.6024007, -0.3237914, -0.69925696, -0.20811975, -0.5929977, 0.9487344, 0.17780972
315, 407350366, 0.60083574, -0.3245243, -0.7001392, -0.20853588, -0.7771501, 0.33536187, -0.072301865
316, 407367033, 0.5989773, -0.32548723, -0.70113957, -0.20901951, -0.80069023, -0.600721, -0.17328167
317, 407383700, 0.59724927, -0.32581875, -0.702483, -0.20893714, -0.47343978, -0.5174449, -0.15066528
318, 407400367, 0.595612, -0.32589918, -0.70390874, -0.2086872, 0.26462683, -0.14486724, -0.08992958
319, 407417034, 0.59388167, -0.32635105, -0.705096, -0.20890413, 0.6695308, -0.009418501, 0.09747028
320, 407433701, 0.59206444, -0.3270076, -0.706114, -0.20959626, 0.20884067, -0.13100888, -0.16480255
321, 407450368, 0.59047025, -0.32712024, -0.70734084, -0.20978048, -0.20624614, -0.3293888, -0.07994366
322, 407467035, 0.5891599, -0.32664165, -0.7087778, -0.20935953, 0.13327853, -0.05451615, 0.004635811
323, 407483702, 0.5876811, -0.3267119, -0.7100122, -0.20922352, 0.81698453, 0.34816626, -0.10629845
324, 407500369, 0.5861472, -0.32771713, -0.71062905, -0.20985977, 0.997381, 0.061333183, 0.36764908
325, 407517036, 0.5846072, -0.32906026, -0.71087253, -0.211224, 0.49387422, -0.36643016, 0.010202408
326, 407533703, 0.5833119, -0.32961872, -0.7114588, -0.21195948, -0.39318857, -0.6270531, -0.25586987
327, 407550370, 0.5826603, -0.32885203, -0.71250194, -0.21143794, -0.37876236, -0.38857782, 0.12220669
328, 407567037, 0.5820482, -0.32772222, -0.71371603, -0.2107827, 0.13332145, 0.16370827, 0.0020771027
329, 407583704, 0.58099383, -0.3276872, -0.7145405, -0.21095216, 0.33539996, 0.34337357, -0.083631516
330, 407600371, 0.57948834, -0.32839304, -0.7151981, -0.2117652, -0.78695536, 0.19037145, -0.33746338
331, 407617038, 0.57784617, -0.32860178, -0.7162467, -0.21238436, -1.6734004, -0.41572717, -0.14937592
332, 407633705, 0.57650596, -0.32704848, -0.7182662, -0.21160245, -1.5465413, -0.069276944, -0.08969784
333, 407650372, 0.57527727, -0.32482186, -0.7207452, -0.20994009, -0.5362626, 0.69851565, -0.22754478
334, 407667039, 0.57357466, -0.32353204, -0.72306806, -0.20859838, 0.041234564, 1.3706734, -0.27133465
335, 407683706, 0.57104915, -0.32355514, -0.72520936, -0.20805772, -0.35975885, 1.7735518, -0.3737793
336, 407700373, 0.56807655, -0.32459584, -0.7270357, -0.20820002, -0.28278905, 1.100371, -0.18172073
337, 407717040, 0.5648287, -0.32543573, -0.72911483, -0.2084547, -1.1739669, -0.0031864007, -0.50543976
338, 407733707, 0.56198585, -0.32475486, -0.73189723, -0.20744663, -0.96177, -0.64716184, -0.23808193
339, 407750374, 0.55961704, -0.32284406, -0.73526186, -0.20491935, -0.4615623, -0.10834366, -0.21782494
340, 407767041, 0.55712074, -0.32103342, -0.73866844, -0.20229763, 0.21985628, 0.5529724, -0.18323708
341, 407783708, 0.5541238, -0.32052067, -0.7415008, -0.20097587, 0.38810208, 0.4172437, -0.15598488
342, 407800375, 0.55054945, -0.32081732, -0.74412143, -0.20063971, -0.7088669, -0.117220476, -0.5255251
343, 407817042, 0.5472368, -0.32029715, -0.74705416, -0.19963294, -0.3946604, -0.715088, 0.021081924
344, 407833709, 0.54451036, -0.3183751, -0.75049573, -0.19723926, 0.27436975, -0.32314062, 0.12549305
345, 407850376, 0.5422537, -0.31600374, -0.7539322, -0.19413991, 1.5288143, 0.62245774, -0.13358498
346, 407867043, 0.5397449, -0.3149843, -0.75674653, -0.19182396, 1.3141903, 1.0873399, -0.18179798
347, 407883710, 0.536683, -0.31533533, -0.7590468, -0.19074753, 0.26509172, 0.8431161, -0.21124554
348, 407900377, 0.53372216, -0.31599274, -0.76112473, -0.18968435, 0.23965015, 0.031366132, 0.33144283
349, 407917044, 0.5313279, -0.3159611, -0.76330686, -0.1876791, 0.72552127, -0.26204568, 0.3534937
350, 407933711, 0.5294823, -0.31560862, -0.76529557, -0.18537472, 1.4787703, 0.0875717, -0.008769035
351, 407950378, 0.5274053, -0.31606916, -0.7669424, -0.18369828, 0.60735106, 0.1888529, -0.5615063
352, 407967045, 0.52475524, -0.3173422, -0.7684245, -0.1828967, -0.56428504, -0.12650499, -0.40840816
353, 407983712, 0.5218263, -0.31834537, -0.7701507, -0.18227175, -1.3337977, -0.5508157, 0.02525711
354, 408000379, 0.51918864, -0.31805792, -0.7724118, -0.1807318, -0.69038796, -0.36342558, 0.049666405
355, 408017046, 0.5167415, -0.31737125, -0.7748364, -0.17856066, 0.30415285, 0.5064052, -0.440691
356, 408033713, 0.5137235, -0.3177661, -0.77702653, -0.17704281, 0.111348346, 0.98975694, -0.9004402
357, 408050380, 0.5097874, -0.31906456, -0.7792261, -0.17641659, -1.4008064, 0.0725779, -0.6663418
358, 408067047, 0.505949, -0.31898698, -0.7821739, -0.17455223, -1.8409889, -0.06702617, -0.320199
359, 408083714, 0.5029563, -0.31720653, -0.7856213, -0.17092644, -0.2362228, 0.64772356, 0.05129528
360, 408100381, 0.5002373, -0.31558916, -0.7888253, -0.16709931, 1.753087, 1.118288, -0.21988583
361, 408117048, 0.49657446, -0.3160057, -0.7913364, -0.16535561, 1.0749873, 0.46425498, -0.5845709
362, 408133715, 0.49247795, -0.31710762, -0.79369503, -0.16418886, -0.6367135, -0.3128531, -0.34518528
363, 408150382, 0.4889078, -0.31701767, -0.79645586, -0.16164349, -0.9244163, -0.68297344, 0.1585207
364, 408167049, 0.4862457, -0.3159142, -0.7991703, -0.15840423, 0.80924946, -0.45647806, 0.65604687
365, 408183716, 0.4835787, -0.31551948, -0.8012943, -0.15661417, 1.9683939, -0.0699914, 0.23896217
366, 408200383, 0.48036215, -0.31653753, -0.80290896, -0.15618917, 1.563308, 0.0022869846, -0.37020588
367, 408217050, 0.47694606, -0.3179994, -0.8044661, -0.15567446, -0.034952287, -0.8193396, 0.042574883
368, 408233717, 0.47397745, -0.31864908, -0.8062082, -0.15439582, -0.93608654, -1.1579404, 0.40489483
369, 408250384, 0.4719044, -0.31834754, -0.8078165, -0.15295488, 0.36154473, -0.86858153, 0.75564003
370, 408267051, 0.4700201, -0.31798407, -0.8091974, -0.15221159, 1.5744058, -0.62876767, 0.13261223
371, 408283718, 0.4679786, -0.3185155, -0.8101852, -0.1521356, 1.6318855, -0.3106479, -0.13910198
372, 408300385, 0.46571967, -0.31956026, -0.811056, -0.15223642, -0.04804009, -0.5415044, 0.45420933
373, 408317052, 0.4637841, -0.31975135, -0.8122121, -0.1515789, -0.54801667, -0.4035296, 0.5088196
374, 408333719, 0.46217752, -0.3192414, -0.8134923, -0.15069406, 0.45639, -0.33460975, 0.32270527
375, 408350386, 0.46065852, -0.31881776, -0.8146238, -0.1501293, 0.94388044, -0.25043005, 0.051730156
376, 408367053, 0.45929688, -0.31882513, -0.8154386, -0.14986119, 0.8340784, -0.03841372, 0.016810417
377, 408383720, 0.45762485, -0.3191201, -0.8162626, -0.14986299, -0.10918049, -0.23256445, -0.0029125214
378, 408400387, 0.4560502, -0.31902534, -0.81727177, -0.1493632, -0.19545805, -0.053263698, 0.30292892
379, 408417054, 0.4548167, -0.31903097, -0.8179928, -0.14916576, 0.6110766, 0.12493871, 0.16990852
380, 408433721, 0.45368814, -0.31934434, -0.8183978, -0.14970833, 1.4808592, 0.28414175, -0.1701212
381, 408450388, 0.4522506, -0.3203692, -0.81853485, -0.15111297, 1.0807526, -0.12186261, 0.041832924
382, 408467055, 0.450525, -0.3213028, -0.81892896, -0.15214644, -0.91608727, -0.9634423, 0.46009445
383, 408483722, 0.44957328, -0.32090357, -0.8196958, -0.15167396, -0.8897152, -0.8433871, 0.33328152
384, 408500389, 0.44894302, -0.31996188, -0.8205058, -0.15114991, 0.15612939, -0.44212997, -0.22243309
385, 408517056, 0.44834387, -0.31950366, -0.8209897, -0.15126924, 1.5526524, 0.045749526, -0.036003113
386, 408533723, 0.4474627, -0.320009, -0.82106835, -0.15238002, 0.89141816, -0.15378194, 0.5820894
387, 408550390, 0.4465816, -0.32015207, -0.82139504, -0.15290314, -0.27766633, -0.6925636, 0.7591009
388, 408567057, 0.4462494, -0.31947407, -0.8219458, -0.1523305, -0.09719752, -0.5974924, 0.15153694
389, 408583724, 0.44616655, -0.31862637, -0.82240736, -0.1518574, 0.26279804, -0.4189222, -0.102695465
390, 408600391, 0.44632512, -0.31804204, -0.82253015, -0.15195023, 0.9034398, 0.022376664, 0.20518208
391, 408617058, 0.446182, -0.31797475, -0.8224747, -0.15280849, 0.8398318, 0.085490465, 0.15704441
392, 408633725, 0.44594496, -0.31813094, -0.82233924, -0.15390123, 0.70319164, 0.082457505, 0.37350178
393, 408650392, 0.44601342, -0.318234, -0.82213783, -0.15456387, 0.82960457, -0.31948182, 0.41012287
394, 408667059, 0.44646293, -0.31835935, -0.8218263, -0.15466516, 0.44793382, -0.40206203, 0.44187546
395, 408683726, 0.44697666, -0.31818235, -0.8215767, -0.15487106, -0.2973813, -0.8130915, -0.023385048
396, 408700393, 0.4474825, -0.31732777, -0.82153654, -0.15537636, -0.64979863, -1.1590282, -0.018540382
397, 408717060, 0.4481661, -0.31617522, -0.82162577, -0.15528405, -0.40302762, -0.4555157, 0.22296143
398, 408733727, 0.44902763, -0.31524295, -0.821535, -0.15517007, 0.4599025, 0.18092771, 0.26893616
399, 408750394, 0.44940165, -0.31487146, -0.8212954, -0.15610808, 0.8891944, 0.33339247, -0.27346992
400, 408767061, 0.4491404, -0.3151204, -0.8210638, -0.1575681, -0.4394819, -0.31439656, -0.44318008
401, 408783728, 0.44944838, -0.31434864, -0.82112455, -0.15791434, -1.5134976, -0.16776603, -0.14245415
402, 408800395, 0.4501481, -0.31263205, -0.82148594, -0.15744936, -0.26892006, 0.38038206, -0.17712975
403, 408817062, 0.4507601, -0.31148088, -0.82157195, -0.15753111, 1.400002, 1.380413, -0.15379715
404, 408833729, 0.4502697, -0.31214032, -0.8213445, -0.15880919, 1.1978234, 0.89531523, -0.6229954
405, 408850396, 0.44932368, -0.313078, -0.8212967, -0.15988696, -1.1989908, -0.08543973, 0.006778717
406, 408867063, 0.44922864, -0.31259814, -0.82163936, -0.15933065, -1.2698214, -0.06327942, -0.15546608
407, 408883730, 0.44942692, -0.31131107, -0.82222956, -0.1582432, 0.17238571, 0.5641475, -0.3676138
408, 408900397, 0.44924554, -0.31096205, -0.8225231, -0.15791863, 1.0489391, 1.054649, -0.35716438
409, 408917064, 0.44844928, -0.31177363, -0.8225178, -0.15860784, 0.20527028, 0.2963651, -0.19300461
410, 408933731, 0.44767654, -0.31219375, -0.8226986, -0.1590268, -1.0408072, -0.62669134, -0.10155201
411, 408950398, 0.44750077, -0.31151792, -0.8232081, -0.15820773, -0.49962634, -0.42890126, 0.065499306
412, 408967065, 0.4473544, -0.31085846, -0.8236851, -0.1574342, 0.5166133, 0.16465361, -0.034752846
413, 408983732, 0.44665256, -0.31090787, -0.82402354, -0.15755822, 0.7308755, 0.2482793, -0.2212801
414, 409000399, 0.44559294, -0.31115994, -0.8244256, -0.15795717, -0.076213896, -0.29943717, 0.028812408
415, 409017066, 0.445038, -0.31069103, -0.825012, -0.15738225, -0.5132123, -0.3350826, 0.26329994
416, 409033733, 0.4451393, -0.30984282, -0.82545054, -0.1564648, 0.5372896, 0.09032304, 0.13549232
417, 409050400, 0.44471464, -0.3098106, -0.8256872, -0.15648781, 1.143836, 0.3443387, -0.29576588
418, 409067067, 0.44373673, -0.31076968, -0.8256761, -0.15741815, 0.034763865, -0.24013036, -0.09777737
419, 409083734, 0.44295216, -0.3110581, -0.82588905, -0.15793984, -0.87466836, -0.9867468, 0.2880392
420, 409100401, 0.44274014, -0.31009895, -0.82647085, -0.15737593, -0.8912713, -0.85674804, 0.34408855
421, 409117068, 0.44312, -0.3085812, -0.8269366, -0.1568434, 0.6614517, 0.047463425, 0.007657051
422, 409133735, 0.44309238, -0.30816743, -0.82699794, -0.1574105, 1.7373841, 0.52513665, -0.15512085
423, 409150402, 0.442473, -0.3090378, -0.826744, -0.15877399, 0.76485217, 0.14968997, 0.25945282
424, 409167069, 0.44192407, -0.3094217, -0.8267278, -0.1596372, -0.4148776, -0.48254278, 0.23111057
425, 409183736, 0.44206104, -0.3085515, -0.8270349, -0.1593518, -0.44853932, -0.4108356, 0.016068459
426, 409200403, 0.44260076, -0.30727556, -0.82731336, -0.15887326, 0.43113324, -0.16334774, 0.2508011
427, 409217070, 0.4428935, -0.30659735, -0.8273845, -0.15899673, 0.89293003, 0.029789472, 0.003537178
428, 409233737, 0.44276148, -0.30671585, -0.8273047, -0.15954943, 0.048087694, -0.16309796, -0.16783619
429, 409250404, 0.44277182, -0.30664146, -0.8272455, -0.15997094, -0.14099644, -0.06441386, 0.0010519028
430, 409267071, 0.44321835, -0.3060556, -0.82717544, -0.16021815, 0.5750731, 0.32008174, 0.13551807
431, 409283738, 0.4434291, -0.3059743, -0.82694477, -0.16097914, 0.3847894, 0.06386849, -0.046129227
432, 409300405, 0.44337115, -0.3060241, -0.82684, -0.1615818, -0.41559842, -0.3681417, -0.08629036
433, 409317072, 0.44351652, -0.305467, -0.8270061, -0.16138542, -0.95232946, -0.39764878, -0.12948704
434, 409333739, 0.44411758, -0.30449724, -0.8271218, -0.16097227, 0.8102092, 0.5849038, 0.15697575
435, 409350406, 0.44401258, -0.30447993, -0.82705677, -0.1616276, 1.1397847, 0.45802823, -0.2682619
436, 409367073, 0.4436769, -0.30502078, -0.82686704, -0.16249776, -0.35434583, -0.46151614, 0.051311493
437, 409383740, 0.44388095, -0.30469802, -0.8269098, -0.16232887, -1.3266248, -0.68750495, -0.078014374
438, 409400407, 0.44437873, -0.3031919, -0.82740325, -0.16126914, -0.39474154, 0.1585745, -0.25675964
439, 409417074, 0.44455478, -0.30253106, -0.82757384, -0.16114895, 1.0674067, 1.0525689, -0.20066452
440, 409433741, 0.44392592, -0.30316305, -0.82749724, -0.16208573, 0.7381339, 0.52848387, -0.24459743
441, 409450408, 0.4432509, -0.30404493, -0.8274044, -0.16275463, -0.3443986, -0.0032545722, -0.050601006
442, 409467075, 0.44288152, -0.30395567, -0.82766724, -0.16258925, -1.130457, -0.20385812, -0.1932602
443, 409483742, 0.442767, -0.30323893, -0.82808065, -0.16213433, -0.45269644, 0.0122860605, -0.46883774
444, 409500409, 0.44265673, -0.30284074, -0.8284157, -0.16146684, 1.0037152, 0.9489711, -0.027963638
445, 409517076, 0.4419408, -0.30364132, -0.8284903, -0.16154161, 1.1378124, 0.90982467, -0.05696106
446, 409533743, 0.44065264, -0.30478474, -0.82861966, -0.1622426, -0.6340528, -0.25214094, -0.12423134
447, 409550410, 0.44003117, -0.30468535, -0.8290627, -0.16185154, -1.2568328, -0.73169637, -0.21093464
448, 409567077, 0.44002157, -0.30382428, -0.8296251, -0.16060992, -0.1440351, -0.049543656, -0.12783432
449, 409583744, 0.439665, -0.3035765, -0.83002156, -0.16000606, 0.98406184, 0.8186921, -0.24041843
450, 409600411, 0.43867305, -0.30447298, -0.83008474, -0.1606954, 0.7922466, 0.1915164, 0.22264767
451, 409617078, 0.4376899, -0.30502492, -0.83033454, -0.16103902, -0.36391395, -0.755805, 0.042429924
452, 409633745, 0.43756825, -0.30448785, -0.8307159, -0.16041784, -0.76036716, -1.0136096, 0.25380707
453, 409650412, 0.43815395, -0.30338106, -0.8310439, -0.15921271, 0.9780044, -0.08969966, 0.3400221
454, 409667079, 0.43792054, -0.3036194, -0.83106846, -0.15927187, 1.4480046, 0.27743167, -0.23999119
455, 409683746, 0.4370094, -0.3046959, -0.83095264, -0.16031969, -0.15065444, -0.3129112, 0.32671738
456, 409700413, 0.4364244, -0.30479774, -0.83120793, -0.16039671, -1.0785524, -0.7966289, 0.2933693
457, 409717080, 0.4368915, -0.303695, -0.8315451, -0.15946676, 0.21411446, -0.44154045, 0.3908224
458, 409733747, 0.43745214, -0.30276248, -0.8316666, -0.15906775, 1.825022, 0.020403491, -0.027765274
459, 409750414, 0.43737936, -0.3032456, -0.83139277, -0.15977795, 0.44773737, -0.26370338, -0.008853912
460, 409767081, 0.43739805, -0.30342734, -0.8312459, -0.16014585, -0.88163346, -0.7702587, 0.22356606
461, 409783748, 0.43800652, -0.30248103, -0.83136266, -0.15966599, -0.09697087, -0.22733358, 0.11820984
462, 409800415, 0.4386197, -0.30189708, -0.8312621, -0.15961146, 1.0449392, 0.51513386, -0.02305317
463, 409817082, 0.43887228, -0.30229086, -0.83084035, -0.16036646, 1.1333616, 0.6575787, 0.1227808
464, 409833749, 0.43899938, -0.30283538, -0.83041364, -0.16119814, 0.1317305, -0.22308192, 0.107253075
465, 409850416, 0.43978325, -0.30246344, -0.83017564, -0.16098598, -0.3208126, -0.77985936, 0.1705389
466, 409867083, 0.4410944, -0.30161226, -0.82995856, -0.16011266, 0.18092413, -0.19603896, 0.1658392
467, 409883750, 0.4423067, -0.30132514, -0.82946944, -0.15984374, 1.1681279, 0.6454197, 0.11227894
468, 409900417, 0.442813, -0.30217305, -0.82868576, -0.16090311, 0.90228426, 0.18431571, 0.09241009
469, 409917084, 0.4433028, -0.3031999, -0.82787067, -0.16181497, -0.053586338, -0.49208423, 0.24333572
470, 409933751, 0.44463152, -0.30331802, -0.827168, -0.16154185, 0.050376467, -0.42287177, 0.33786583
471, 409950418, 0.4463077, -0.30326563, -0.82636136, -0.16114497, 0.8276479, -0.03227639, 0.26857185
472, 409967085, 0.4477429, -0.30379698, -0.825349, -0.16135135, 1.1369977, 0.09017149, -0.017276764
473, 409983752, 0.44886565, -0.30493242, -0.82418084, -0.16205929, 0.5380169, -0.08728874, 0.2559805
474, 410000419, 0.4500357, -0.305834, -0.8231541, -0.16233413, -0.16313271, -0.2118259, 0.19184113
475, 410017086, 0.45144075, -0.30610463, -0.82233185, -0.1620905, -0.25883538, -0.5488926, 0.088825226
476, 410033753, 0.45329764, -0.30590165, -0.8215294, -0.16135837, 0.21427807, -0.4195033, 0.44033718
477, 410050420, 0.45550758, -0.30573255, -0.82052815, -0.16054752, 0.90708864, -0.13318601, 0.14178848
478, 410067087, 0.45731196, -0.3061417, -0.81936604, -0.16057375, 0.57582366, -0.17295444, 0.100875854
479, 410083754, 0.45888987, -0.30679938, -0.8181626, -0.16095282, 0.09456632, -0.3382407, -0.030356407
480, 410100421, 0.46061188, -0.30698684, -0.8171382, -0.16088057, -0.3972927, -0.33307564, -0.08589363
481, 410117088, 0.46246484, -0.3066159, -0.8163803, -0.16011758, -0.3532173, -0.33100536, 0.16771221
482, 410133755, 0.4645029, -0.3059213, -0.81563747, -0.15933102, -0.08892463, -0.21186157, 0.2114439
483, 410150422, 0.4667022, -0.30518383, -0.81466615, -0.15928702, 0.49557048, -0.15150614, -0.2904892
484, 410167089, 0.46886352, -0.30471775, -0.81359434, -0.1593112, 0.6347853, -0.24064545, -0.19767952
485, 410183756, 0.47105557, -0.30430806, -0.8126071, -0.15866455, -0.029187215, 0.014474923, 0.030611992
486, 410200423, 0.47317526, -0.3033914, -0.8120137, -0.15714346, 0.14751318, 0.4178272, 0.2738304
487, 410217090, 0.47511843, -0.30248624, -0.81149864, -0.15567875, 0.1835171, 0.49199402, 0.4558506
488, 410233757, 0.47699612, -0.301966, -0.81069064, -0.15515615, 0.5841688, 0.14699766, -0.22467136
489, 410250424, 0.4791151, -0.30180013, -0.8094504, -0.15542501, 0.76151264, -0.17422456, -0.43558216
490, 410267091, 0.4816783, -0.30177876, -0.80797505, -0.15522034, 0.37715018, -0.29577303, -0.084778786
491, 410283758, 0.48426402, -0.30165988, -0.80656797, -0.15472381, -0.13777427, -0.30259207, 0.09603596
492, 410300425, 0.48634455, -0.30126, -0.8055529, -0.15426542, -0.6046665, -0.25525427, -0.012081146
493, 410317092, 0.48821425, -0.30057997, -0.8047631, -0.15380597, -0.45067543, -0.28917503, 0.015864372
494, 410333759, 0.49036068, -0.2997889, -0.803788, -0.15362051, 0.0860136, -0.2944477, -0.034745216
495, 410350426, 0.49278024, -0.29914826, -0.8025282, -0.15371346, 0.9426545, -0.09499937, -0.1801281
496, 410367093, 0.4951726, -0.2991913, -0.8009404, -0.15422314, 0.92677414, 0.1564194, -0.043157578
497, 410383760, 0.49724767, -0.29990327, -0.7991824, -0.15527952, 0.39157236, 0.16456868, 0.07564068
498, 410400427, 0.49920744, -0.30065498, -0.7974338, -0.15652303, 0.21015581, 0.009249413, 0.12497902
499, 410417094, 0.50132066, -0.30116853, -0.7956976, -0.1576136, 0.15719174, -0.24211046, 0.14605999
500, 410433761, 0.5038933, -0.30113164, -0.7939474, -0.15830438, 0.3784624, -0.49417004, 0.28382015
501, 410450428, 0.5068264, -0.30069387, -0.7921627, -0.15871407, 0.7819353, -0.4321861, 0.19232559
502, 410467095, 0.50978655, -0.30052346, -0.7902071, -0.15930285, 0.9473342, -0.2676657, 0.027599335
503, 410483762, 0.51279444, -0.30077538, -0.78797984, -0.16020358, 0.91758347, 0.05684795, 0.0015850067
504, 410500429, 0.51564074, -0.3016956, -0.7854274, -0.16186254, 0.6002554, -0.04122596, 0.04502392
505, 410517096, 0.5183649, -0.3029461, -0.7826801, -0.16411828, 0.24703635, -0.22128186, 0.031306267
506, 410533763, 0.52109635, -0.304226, -0.7798264, -0.16666542, 0.15896823, -0.5505893, 0.040815353
507, 410550430, 0.524383, -0.304997, -0.7768411, -0.16887465, 0.89673173, -0.78665215, 0.21843433
508, 410567097, 0.5279912, -0.3055408, -0.77373827, -0.17088242, 0.8856191, -0.78244287, 0.09520817
509, 410583764, 0.53175145, -0.30605638, -0.77053434, -0.17276613, 0.7963525, -0.44370776, -0.020320892
510, 410600431, 0.5354769, -0.3068416, -0.7671374, -0.17496935, 0.54806226, 0.046148498, 0.04754734
511, 410617098, 0.53919864, -0.30815628, -0.76333404, -0.17784002, 0.705484, -0.072463684, -0.009672165
512, 410633765, 0.54293966, -0.30977592, -0.75925195, -0.18108921, 0.49342206, -0.5412926, -0.062051773
513, 410650432, 0.54702157, -0.3107905, -0.755209, -0.18395005, 0.15451808, -0.6455044, -0.06426239
514, 410667099, 0.5514188, -0.31084362, -0.75146484, -0.18605222, -0.10261256, -0.30978146, -0.1706438
515, 410683766, 0.5560575, -0.3104077, -0.7478197, -0.18765457, 0.32302675, 0.14345452, -0.36481762
516, 410700433, 0.5608533, -0.31057215, -0.743671, -0.18958764, 0.88095665, 0.4270556, -0.38636303
517, 410717100, 0.5652232, -0.31172103, -0.73908496, -0.19263399, 0.58944994, 0.5487777, -0.5100746
518, 410733767, 0.5690431, -0.3140269, -0.73411894, -0.19659124, 0.045019086, 0.34314167, -0.5424862
519, 410750434, 0.5724466, -0.316447, -0.7293735, -0.20045432, -1.2133808, 0.12850207, -0.57333755
520, 410767101, 0.5762812, -0.3175089, -0.7252191, -0.20284739, -1.121882, -0.08725923, -0.1816101
521, 410783768, 0.58036464, -0.31757852, -0.7214279, -0.20460725, -0.72984624, 0.08947302, -0.31451988
522, 410800435, 0.58416617, -0.31770068, -0.71776164, -0.20648511, -0.2618356, 0.02888469, -0.5120878
523, 410817102, 0.5877796, -0.31771663, -0.7143525, -0.20802258, -0.7751767, 0.3215263, -0.43841076
524, 410833769, 0.59144604, -0.31750962, -0.71108305, -0.20914479, -1.2156029, 0.1622076, -0.16641712
525, 410850436, 0.59473556, -0.31676164, -0.7083603, -0.21018803, -2.2359262, 0.30820134, -0.29529572
526, 410867103, 0.59779423, -0.31522697, -0.70638585, -0.21046254, -1.9240174, 0.84305614, -0.27477455
527, 410883770, 0.6004818, -0.31358206, -0.7048519, -0.21041168, -1.7014794, 1.2335554, -0.24853134
528, 410900437, 0.6024644, -0.31258643, -0.7035313, -0.21064574, -0.94965243, 1.1519978, -0.2928896
529, 410917104, 0.60381645, -0.31233498, -0.702288, -0.21129486, -0.5160297, 0.7544919, -0.22858906
530, 410933771, 0.6052268, -0.31172425, -0.7013319, -0.21133712, -0.42568713, 0.3897221, -0.115382195
531, 410950438, 0.6069177, -0.31030437, -0.7007453, -0.21052167, -0.28667012, 0.6576679, -0.15372467
532, 410967105, 0.60841167, -0.309191, -0.70018274, -0.20971766, -0.18357879, 1.0847796, -0.27212334
533, 410983772, 0.60931766, -0.30908242, -0.6994453, -0.2097078, -0.52860945, 0.88163805, -0.082616806
534, 411000439, 0.60977376, -0.30935973, -0.6988178, -0.21006553, -0.8405066, 0.5398668, 0.014111519
535, 411017106, 0.6099642, -0.30971205, -0.6983492, -0.21055117, -0.76197535, 0.10980342, -0.02110672
536, 411033773, 0.6100584, -0.30998927, -0.6980335, -0.21091609, -0.40882844, -0.13888603, -0.11601734
537, 411050440, 0.6101891, -0.31024456, -0.697742, -0.21112728, 0.08764837, -0.12769328, -0.09670162
538, 411067107, 0.6102918, -0.31067237, -0.69735956, -0.21146427, 0.28960842, 0.07333293, -0.14124298
539, 411083774, 0.61030304, -0.31151345, -0.69676906, -0.21214014, 0.39028493, 0.13376993, -0.012191772
540, 411100441, 0.6100779, -0.31298852, -0.695935, -0.21335092, 0.1889279, 0.13234895, 0.009129524
541, 411117108, 0.609802, -0.3143972, -0.69512135, -0.21471621, -0.2452393, -0.14820172, 0.08945179
542, 411133775, 0.60970485, -0.314961, -0.69469726, -0.21553698, -0.4162151, -0.08857729, 0.038998604
543, 411150442, 0.6099272, -0.314954, -0.6944356, -0.21576053, 0.021741552, -0.29572406, 0.039738655
544, 411167109, 0.610326, -0.31492013, -0.69401705, -0.21602918, 0.80019915, -0.5344638, 0.067629814
545, 411183776, 0.61081874, -0.31518802, -0.6932352, -0.2167549, 1.171398, -0.9457099, 0.16084957
546, 411200443, 0.61162627, -0.31505907, -0.6923359, -0.21753839, 0.76717985, -0.99518985, 0.060863495
547, 411217110, 0.6127565, -0.3145292, -0.6914101, -0.2180686, 0.48779422, -0.550677, -0.05444336
548, 411233777, 0.6139579, -0.31401554, -0.6903593, -0.21875784, 0.16008267, -0.16741054, -0.04786682
549, 411250444, 0.6150699, -0.31375182, -0.68915516, -0.21980675, 0.09307393, -0.055117402, -0.0127801895
550, 411267111, 0.6160815, -0.31355274, -0.68798864, -0.22090879, -0.23825409, 0.2883392, -0.17642593
551, 411283778, 0.617046, -0.31330436, -0.68696797, -0.22174421, -0.54693395, 0.62633014, -0.16274261
552, 411300445, 0.61781764, -0.3131888, -0.68610966, -0.22241487, -0.7649025, 0.98790365, -0.09029007
553, 411317112, 0.61819077, -0.31345683, -0.6853922, -0.22321105, -1.054193, 1.1685404, -0.05902481
554, 411333779, 0.6182929, -0.3136587, -0.68506736, -0.22364159, -1.046851, 1.1598352, -0.08915138
555, 411350446, 0.61821026, -0.31374103, -0.685075, -0.2237313, -0.79570925, 1.0100309, -0.07308769
556, 411367113, 0.61801463, -0.31376988, -0.6852937, -0.22356184, -0.2304128, 0.5283619, 0.013065338
557, 411383780, 0.61785525, -0.3138765, -0.685385, -0.22357258, 0.49396273, -0.4022232, 0.15829277
558, 411400447, 0.61800903, -0.3135634, -0.6853935, -0.22356056, 0.94534785, -0.8814789, 0.0917387
559, 411417114, 0.6185248, -0.3130342, -0.68518, -0.22353055, 1.225566, -0.8743769, -0.065208435
560, 411433781, 0.61913794, -0.3128581, -0.6846123, -0.22381894, 0.9092947, -0.55680853, -0.20778942
561, 411450448, 0.6195813, -0.31326136, -0.68378943, -0.22454238, 0.037897963, -0.10631092, -0.09555435
562, 411467115, 0.6199364, -0.31358024, -0.683082, -0.22526926, -0.7998563, 0.30000234, -0.004187584
563, 411483782, 0.62022555, -0.31359765, -0.6826687, -0.22570117, -0.75625384, 0.62928575, 0.0031223297
564, 411500449, 0.6202956, -0.3137045, -0.68244505, -0.22603665, -0.54178154, 0.7808879, -0.0054893494
565, 411517116, 0.6202387, -0.31395704, -0.6823226, -0.22621185, -0.3799586, 0.7473451, -0.07391453
566, 411533783, 0.62003136, -0.31447873, -0.6822372, -0.22631286, -0.34591624, 0.59196836, -0.13329887
567, 411550450, 0.6198144, -0.31479082, -0.6823776, -0.22604969, -0.49176517, 0.53613573, -0.071460724
568, 411567117, 0.6196607, -0.3146562, -0.682807, -0.22536115, -0.48736554, 0.6462353, -0.093354225
569, 411583784, 0.6194, -0.31452528, -0.68334264, -0.22463547, -0.26477256, 0.52828944, -0.03297901
570, 411600451, 0.61898947, -0.31465447, -0.683797, -0.22420365, 0.06622555, 0.12116905, 0.089375496
571, 411617118, 0.6185999, -0.31482136, -0.6841689, -0.22390966, 0.26805595, -0.112020895, -0.0075979233
572, 411633785, 0.6182793, -0.3150312, -0.68448824, -0.22352362, 0.28096563, -0.2640705, -0.15447807
573, 411650452, 0.61813045, -0.31502745, -0.68484, -0.22286208, 0.19004591, -0.29779616, -0.042491913
574, 411667119, 0.6181453, -0.31465447, -0.6852682, -0.22202927, 0.21484601, -0.09681274, 0.08189392
575, 411683786, 0.61815596, -0.3142721, -0.685649, -0.22136515, 0.2516778, -0.07208192, 0.09021568
576, 411700453, 0.61816657, -0.31400764, -0.68593425, -0.22082667, 0.3472734, -0.17044808, -0.0031490326
577, 411717120, 0.6182199, -0.31385598, -0.6861087, -0.22035058, 0.29653195, -0.080459185, -0.07536316
578, 411733787, 0.61818725, -0.31408897, -0.6861224, -0.2200674, 0.15391952, 0.14765288, -0.06824112
579, 411750454, 0.6179959, -0.31467044, -0.6860475, -0.22000755, -0.23741814, 0.23691547, -0.044056892
580, 411767121, 0.6177956, -0.3150641, -0.68611455, -0.21979725, -0.3315846, 0.21966451, -0.022928238
581, 411783788, 0.6176951, -0.31509987, -0.68630594, -0.21943033, -0.11816593, 0.18009244, 0.0328207
582, 411800455, 0.617552, -0.31512794, -0.6865497, -0.2190304, 0.09929295, 0.32732734, -0.11389446
583, 411817122, 0.6174345, -0.31523114, -0.6867755, -0.21850477, -0.05585589, 0.29276195, -0.08376503
584, 411833789, 0.6172833, -0.3153503, -0.6870516, -0.21789153, -0.2483363, 0.23154601, -0.074934006
585, 411850456, 0.61709535, -0.31534004, -0.6874353, -0.2172269, -0.36150673, -0.037649862, 0.058587074
586, 411867123, 0.61692196, -0.31496748, -0.6880143, -0.21642545, -0.3657727, 0.060309943, 0.03051567
587, 411883790, 0.61669433, -0.31458217, -0.6886783, -0.21552058, -0.20228772, 0.2637579, -0.08699989
588, 411900457, 0.61626613, -0.31458986, -0.68928385, -0.21479769, -0.19094801, 0.40792924, -0.095308304
589, 411917124, 0.61563957, -0.3148271, -0.68991905, -0.21420655, -0.48469543, 0.37496644, -0.13860035
590, 411933791, 0.6150459, -0.31480396, -0.69071245, -0.21338782, -0.39304754, 0.23269007, -0.113674164
591, 411950458, 0.61438817, -0.3146507, -0.6916231, -0.21255714, -0.15133123, 0.31540886, -0.07830334
592, 411967125, 0.61362296, -0.31475, -0.6924409, -0.21195737, 0.075301066, 0.22281134, 0.05283165
593, 411983792, 0.61271614, -0.31503803, -0.6932583, -0.21147996, -0.05088496, 0.16113272, -0.036172867
594, 412000459, 0.61168945, -0.31546003, -0.69408506, -0.21111135, -0.4265007, -0.03251577, -0.05044365
595, 412017126, 0.61060125, -0.31552634, -0.69519645, -0.21050398, -0.9875475, 0.29367724, -0.33077335
596, 412033793, 0.6093476, -0.3154921, -0.6965672, -0.20965466, -0.7264493, 0.3985301, -0.08636284
597, 412050460, 0.60780287, -0.31569493, -0.69797295, -0.2091578, -0.41570774, 0.22010908, 0.28190708
598, 412067127, 0.60590464, -0.31642777, -0.6992551, -0.20927502, -0.17502138, -0.46797723, 0.028713226
599, 412083794, 0.6040943, -0.31673592, -0.7007102, -0.20917562, -0.5186415, -0.41612592, -0.46621037
600, 412100461, 0.6022102, -0.31713134, -0.7022239, -0.20893279, -0.6284112, 0.16218145, -0.3739891
601, 412117128, 0.60000193, -0.31811565, -0.7036368, -0.20903581, -0.7988773, 0.45619252, 0.011375427
602, 412133795, 0.59743756, -0.31947446, -0.7049974, -0.20972332, -0.18542501, 0.2876177, 0.1763897
603, 412150462, 0.59460014, -0.32097277, -0.706359, -0.21091416, 0.27921328, -0.27423754, 0.054855347
604, 412167129, 0.5920781, -0.3219991, -0.7077545, -0.21176434, 0.45688283, -0.40392634, -0.16241455
605, 412183796, 0.5898748, -0.3224211, -0.70928544, -0.21214905, 0.027908722, -0.3133048, -0.40252304
606, 412200463, 0.58787936, -0.3221954, -0.7112016, -0.21161506, -0.26782665, 0.4041683, -0.22488117
607, 412217130, 0.585911, -0.3219475, -0.71319765, -0.21073122, 0.2052515, 0.947438, 0.3493328
608, 412233797, 0.58387256, -0.32226953, -0.7148242, -0.2103856, 1.0438972, 0.6195475, 0.51095486
609, 412250464, 0.58161134, -0.32314953, -0.71615165, -0.21078402, 0.6335761, -0.033447485, -0.22236347
610, 412267131, 0.5795034, -0.32384074, -0.7175039, -0.21093042, -0.32859823, -0.6931359, -0.56949234
611, 412283798, 0.5777936, -0.32336307, -0.71940464, -0.20987703, -1.1293676, -0.50546515, -0.34972477
612, 412300465, 0.57604957, -0.32211387, -0.7218604, -0.20815295, -1.0890086, 0.24728076, 0.039367676
613, 412317132, 0.57426614, -0.3211072, -0.72419894, -0.20650652, 0.15383145, 0.66041976, 0.42717648
614, 412333799, 0.57229006, -0.32105625, -0.7259636, -0.20587415, 0.6422797, 0.545976, -0.10458183
615, 412350466, 0.56977475, -0.32201463, -0.7274149, -0.20623082, -0.07593361, 0.14952861, -0.709651
616, 412367133, 0.5666905, -0.32306468, -0.7292448, -0.20662375, -2.0233383, -0.49376896, -0.67031
617, 412383800, 0.563758, -0.3224212, -0.7321804, -0.2052649, -2.4390306, -0.44761956, -0.08784485
618, 412400467, 0.56140053, -0.31986997, -0.7359304, -0.20228569, -0.48655283, 0.3160605, 0.3447485
619, 412417134, 0.5591252, -0.31744835, -0.73942244, -0.1996502, 1.0517575, 0.8718532, -0.28027725
620, 412433801, 0.55617666, -0.31687954, -0.74213713, -0.1987143, 0.88806593, 0.57816285, -0.6850319
621, 412450468, 0.5527217, -0.3175204, -0.7444779, -0.19857539, -0.12739791, -0.08989445, -0.46762657
622, 412467135, 0.5491362, -0.31779188, -0.74720484, -0.19784532, -0.75896907, -0.34678292, -0.0767746
623, 412483802, 0.5461118, -0.31670293, -0.7504266, -0.1957581, 0.09919594, 0.06256183, 0.30533504
624, 412500469, 0.54367954, -0.31506464, -0.7535537, -0.19314213, 1.2937598, 0.68884313, 0.006939888
625, 412517136, 0.54105264, -0.31451654, -0.7560662, -0.19158639, 1.3248075, 0.6489086, -0.5146923
626, 412533803, 0.5377063, -0.31556475, -0.75808316, -0.19131403, 0.20418444, -0.10581718, -0.24609184
627, 412550470, 0.53440034, -0.31618664, -0.76035297, -0.19054127, -0.22347675, -0.6046532, 0.37314224
628, 412567137, 0.53210217, -0.31512898, -0.76301867, -0.18805222, 1.0622151, -0.19939557, 0.57780075
629, 412583804, 0.53085655, -0.31395763, -0.76507235, -0.18516608, 2.7116675, 0.7460561, 0.41327953
630, 412600471, 0.52940553, -0.31508103, -0.7657777, -0.18449533, 2.630766, 0.41453427, -0.26056194
631, 412617138, 0.52680385, -0.3182663, -0.7658588, -0.18613066, 0.050288852, -1.1272862, -0.24312115
632, 412633805, 0.5242383, -0.3204818, -0.7664095, -0.18730214, -1.7342469, -1.9994628, 0.40193748
633, 412650472, 0.5230114, -0.31941834, -0.7681143, -0.18555777, -1.071256, -1.6840494, 0.8967781
634, 412667139, 0.52285767, -0.3167004, -0.7701011, -0.18238719, 0.9882869, -0.10354663, 0.29430485
635, 412683806, 0.5221632, -0.31592107, -0.7712652, -0.18080248, 1.4262661, 1.081174, -0.76525974
636, 412700473, 0.5202241, -0.3179838, -0.77151215, -0.18172023, 0.012367419, 0.46923783, -0.5665035
637, 412717140, 0.51772964, -0.31996515, -0.772042, -0.18311122, -1.6336019, -0.7580309, 0.09198189
638, 412733807, 0.51628345, -0.31900585, -0.7737133, -0.18181004, -0.92519903, -0.76825315, 0.5951576
639, 412750474, 0.5160434, -0.31610978, -0.7758492, -0.17841548, 1.0014453, 0.2521976, 0.31418228
640, 412767141, 0.5156299, -0.31429917, -0.77747446, -0.17571425, 1.2884136, 1.3255708, -0.89365673
641, 412783808, 0.51396155, -0.31493908, -0.77845794, -0.17510144, -0.269585, 1.0688405, -1.0175381
642, 412800475, 0.51157767, -0.31623128, -0.7794515, -0.1753335, -1.5691946, 0.00499015, -0.08681965
643, 412817142, 0.50962955, -0.31582984, -0.7811543, -0.1741477, -1.2012639, -0.20850395, 0.27218914
644, 412833809, 0.50811756, -0.31430644, -0.78327686, -0.17177226, 0.06619068, 0.12901056, -0.12658691
645, 412850476, 0.50645614, -0.31342113, -0.78512186, -0.16986194, 0.9648567, 0.19289213, -0.3892908
646, 412867143, 0.5040362, -0.31377253, -0.78664887, -0.16934617, -0.20087892, -0.20254889, -0.38755512
647, 412883810, 0.50151676, -0.31400806, -0.7882693, -0.16885427, -1.2748687, -0.43162352, -0.1386261
648, 412900477, 0.49961042, -0.3132906, -0.79002994, -0.16760424, -0.46937856, -0.07602525, 0.18608093
649, 412917144, 0.49793187, -0.31196982, -0.7919977, -0.16576666, 0.9056298, 0.21424387, -0.046468735
650, 412933811, 0.4961906, -0.311661, -0.7934889, -0.16443254, 1.7748884, 0.7719782, 0.005903244
651, 412950478, 0.49353594, -0.3129619, -0.79456806, -0.16473906, 0.18146034, -0.122898936, -0.23923397
652, 412967145, 0.49093232, -0.31361884, -0.7959278, -0.16470535, -1.4993356, -1.0437706, -0.1478138
653, 412983812, 0.4891574, -0.31226394, -0.7979131, -0.16294587, -1.0305645, -0.6783961, 0.25016785
654, 413000479, 0.48786235, -0.30998555, -0.80014294, -0.16022092, 0.5653919, 0.20804262, 0.103671074
655, 413017146, 0.4866292, -0.30883276, -0.80171007, -0.15835276, 2.4452913, 0.729765, 0.34955597
656, 413033813, 0.4846752, -0.3098485, -0.8024076, -0.15882736, 1.8794239, 0.14840713, 0.18853664
657, 413050480, 0.48236164, -0.31178617, -0.8027306, -0.16043772, 2.1948972E-4, -0.5534651, -0.16659355
658, 413067147, 0.48044786, -0.312516, -0.80353105, -0.1607532, -1.3489702, -1.0477701, 0.00557518
659, 413083814, 0.4792435, -0.3115514, -0.80488276, -0.15945292, -0.8823379, -0.7204279, 0.25347328
660, 413100481, 0.4783594, -0.31004277, -0.8063008, -0.15787603, 0.49616167, 0.04117779, 0.15950775
661, 413117148, 0.47725347, -0.30957898, -0.807242, -0.1573241, 1.5966203, 0.56838113, -0.0625906
662, 413133815, 0.4755124, -0.31083122, -0.8075688, -0.15844493, 0.79806954, 0.5126882, -0.27504444
663, 413150482, 0.47339815, -0.31222433, -0.8080376, -0.15964201, -0.58289653, -0.051179104, -0.28715038
664, 413167149, 0.4716499, -0.3126487, -0.8089232, -0.15950139, -0.99951375, -0.08356993, 0.012440681
665, 413183816, 0.47015235, -0.31241733, -0.81006384, -0.15858418, -0.5307619, 0.08248511, -0.109345436
666, 413200483, 0.46873128, -0.31212255, -0.8111601, -0.15776537, 0.5309278, 0.4991783, -0.29853344
667, 413217150, 0.46711332, -0.3124115, -0.8120121, -0.15761013, 0.86040264, 0.35727182, -0.22357655
668, 413233817, 0.4653032, -0.31321806, -0.81265557, -0.1580462, 0.3801097, -0.17079943, 0.2772646
669, 413250484, 0.46347415, -0.3139067, -0.8133256, -0.1586065, -0.539653, -0.75574154, 0.039076805
670, 413267151, 0.46181488, -0.31387293, -0.8142934, -0.15854794, -0.7760841, -0.43456003, -0.22839165
671, 413283818, 0.46046755, -0.31359166, -0.8152428, -0.15814276, 0.27544037, 0.16456366, 0.05488968
672, 413300485, 0.4593232, -0.3135518, -0.81595725, -0.15786548, 1.360052, 0.4597704, 0.18657207
673, 413317152, 0.45773408, -0.31434673, -0.81638163, -0.15870336, 0.70315385, -0.37490767, 0.20628643
674, 413333819, 0.45578498, -0.314895, -0.817116, -0.15944439, -1.040776, -1.3503153, -0.079377174
675, 413350486, 0.45454577, -0.31420878, -0.8181593, -0.15898605, -0.9344766, -0.7813614, 0.07524109
676, 413367153, 0.4537913, -0.31291384, -0.81929815, -0.15782578, 0.78907496, 0.3999761, 0.027617455
677, 413383820, 0.4522943, -0.31296635, -0.8201181, -0.15776087, 1.4414469, 0.90338004, -0.14771652
678, 413400487, 0.44996163, -0.31391475, -0.8208361, -0.15880878, -0.35507783, -0.42859605, 0.33049965
679, 413417154, 0.4485156, -0.31350356, -0.82182515, -0.15859716, -0.77181524, -0.8623377, 0.53442
680, 413433821, 0.44790053, -0.31220698, -0.8228335, -0.15766177, 0.75778466, -0.22060606, -0.090538025
681, 413450488, 0.44670644, -0.31184337, -0.8236637, -0.1574335, 1.0675298, 0.442773, -0.5076475
682, 413467155, 0.4446911, -0.31274205, -0.8242842, -0.15810795, -0.3630834, 0.1605194, -0.04521942
683, 413483822, 0.4429531, -0.312703, -0.8252338, -0.15810958, -1.1493372, -0.6168483, 0.30229855
684, 413500489, 0.4419802, -0.31120968, -0.8265572, -0.15686058, -0.067830816, -0.5369389, 0.21760178
685, 413517156, 0.4410921, -0.3099174, -0.8277693, -0.1555222, 1.0254554, 0.45738205, -0.07699776
686, 413533823, 0.43950662, -0.30992645, -0.8285412, -0.15588212, 0.39128312, 0.17630199, -0.38162613
687, 413550490, 0.43767515, -0.3101413, -0.829313, -0.15650198, -0.12730314, 0.16936873, -0.35286236
688, 413567157, 0.4362677, -0.3102107, -0.8300511, -0.15638106, 0.2470263, 0.31885195, 0.16218948
689, 413583824, 0.43540144, -0.31000826, -0.83066356, -0.15594506, 1.1130949, 0.59633493, 0.36952114
690, 413600491, 0.4340481, -0.31044424, -0.8310761, -0.15665004, 0.67480886, -0.25342458, 0.2968216
691, 413617158, 0.43271637, -0.31068754, -0.83162045, -0.15696275, -0.6214313, -1.1992294, 0.1475153
692, 413633825, 0.43211424, -0.30999547, -0.8323619, -0.15605685, -0.45624873, -0.74978685, 0.082398415
693, 413650492, 0.43187678, -0.30912426, -0.83293223, -0.15539767, 0.85360044, 0.35299322, 0.026934624
694, 413667159, 0.4310842, -0.30916783, -0.83318037, -0.15618029, 1.1789334, 0.14119984, 0.11037636
695, 413683826, 0.429958, -0.30997148, -0.8332119, -0.15751772, 0.24745253, -0.3214522, 0.39235592
696, 413700493, 0.42924064, -0.31017473, -0.83346474, -0.15773714, -0.11042859, -0.6133476, 0.23390293
697, 413717160, 0.42905635, -0.30970556, -0.8337733, -0.15752903, 0.39874756, -0.1370863, 0.2125721
698, 413733827, 0.4286573, -0.3095205, -0.8340236, -0.15765345, 0.69771177, 0.06838267, 0.11845684
699, 413750494, 0.4281328, -0.30948347, -0.8342064, -0.15818334, -0.5144763, -0.80926675, 0.14755535
700, 413767161, 0.42834446, -0.3084903, -0.8345648, -0.15765962, -0.46417427, -0.78995794, -0.039344788
701, 413783828, 0.42917803, -0.30721298, -0.8348347, -0.15645336, 1.108114, 0.45451137, 0.5650377
702, 413800495, 0.4292967, -0.30711037, -0.83476317, -0.15671015, 1.5776416, 1.0165625, -0.010361671
703, 413817162, 0.4283488, -0.3080434, -0.83458954, -0.15838903, 0.056677744, -0.056313194, -0.111144066
704, 413833829, 0.42792967, -0.30859056, -0.83449304, -0.15896462, -0.80090994, -0.51739526, -0.22566509
705, 413850496, 0.42841583, -0.30800822, -0.8345893, -0.158278, -0.37078005, -0.22671321, 0.17034817
706, 413867163, 0.42899126, -0.30714363, -0.83468133, -0.15791275, 0.6633223, -0.043328322, 0.25790882
707, 413883830, 0.42892882, -0.30716294, -0.8345789, -0.1585851, 0.35409817, -0.22573255, -0.022920609
708, 413900497, 0.4287983, -0.30742148, -0.8344132, -0.15930842, -0.17027798, -0.28505668, -0.22665405
709, 413917164, 0.4289535, -0.3075245, -0.83418316, -0.15989429, 0.47802067, 0.27740383, 0.046839714
710, 413933831, 0.42878136, -0.3080681, -0.83384913, -0.1610473, 0.3870042, 0.22778328, 0.015832901
711, 413950498, 0.42874452, -0.30851045, -0.83349615, -0.16212225, -0.012355573, -0.12396051, 0.1370182
712, 413967165, 0.42897847, -0.30841196, -0.83329296, -0.16273439, -0.53290653, -1.0233365, 0.15111637
713, 413983832, 0.4297276, -0.3075851, -0.83328426, -0.16236705, -0.07460527, -0.43278345, 0.07976055
714, 414000499, 0.43058655, -0.30688477, -0.833122, -0.1622499, 1.0709523, 0.48230487, 0.016582489
715, 414017166, 0.43066606, -0.30744037, -0.8326496, -0.16340742, 1.1145666, 0.7353348, 0.051225662
716, 414033833, 0.43025163, -0.30844614, -0.832149, -0.16514444, -0.770957, -0.5141842, -0.21000957
717, 414050500, 0.43073753, -0.3079864, -0.8320036, -0.16546841, -1.1154206, -0.84113467, 0.006134033
718, 414067167, 0.43192258, -0.30670923, -0.8320091, -0.16472234, 0.31936783, -0.051119983, -0.029733658
719, 414083834, 0.4326419, -0.30607823, -0.83184457, -0.16483885, 1.3305237, 0.83677024, 0.05607605
720, 414100501, 0.43230245, -0.30681995, -0.8314868, -0.16615057, -0.23085402, 0.2504019, -0.06345177
721, 414117168, 0.4323369, -0.3069437, -0.8313252, -0.16664042, -0.7770115, -0.14439842, -0.30969906
722, 414133835, 0.43299598, -0.30636692, -0.83128303, -0.16620089, 0.1725073, 0.13458699, 0.014033318
723, 414150502, 0.4336706, -0.30609828, -0.8310587, -0.16605821, 0.7974757, 0.18878944, -0.08851051
724, 414167169, 0.43383783, -0.30628228, -0.83085793, -0.16628554, -0.0029228788, -0.056961607, -0.14454556
725, 414183836, 0.43377, -0.30634984, -0.8308618, -0.16631922, -1.0103552, -0.05133534, -0.2584858
726, 414200503, 0.43412277, -0.3058528, -0.8309138, -0.16605395, -0.10301712, 0.52867675, -0.122945786
727, 414217170, 0.43416327, -0.3059018, -0.83079296, -0.1664623, 0.8393886, 0.50989753, -0.2938261
728, 414233837, 0.43381953, -0.30642265, -0.83067024, -0.16701163, -0.057544753, -0.26075792, -0.09114933
729, 414250504, 0.43379524, -0.30646297, -0.83071214, -0.16679233, -0.6115373, -0.43224746, 0.18419647
730, 414267171, 0.4338175, -0.3059163, -0.83099383, -0.16633408, -0.6237364, -0.14794244, -0.23215961
731, 414283838, 0.43412864, -0.30490562, -0.8312623, -0.16603711, 0.107687645, -0.20298575, -0.36742783
732, 414300505, 0.43457073, -0.30438682, -0.8312376, -0.16595508, 1.2422293, 0.33221558, 0.31341457
733, 414317172, 0.43441212, -0.30480325, -0.8310711, -0.16643953, 0.095035024, -0.46230894, 0.28373528
734, 414333839, 0.43441093, -0.30428627, -0.8312551, -0.16646956, -0.92145944, -0.728002, 0.33581352
735, 414350506, 0.4349936, -0.3029465, -0.8315148, -0.1660944, 0.3015916, -0.21731147, -0.14532089
736, 414367173, 0.43554828, -0.30191734, -0.8315915, -0.16613099, 0.69577706, -0.62793505, 0.048731804
737, 414383840, 0.43673816, -0.30099958, -0.8314748, -0.16525392, 0.8040818, -0.5442299, 0.6780424
738, 414400507, 0.43786588, -0.3003074, -0.8312607, -0.16460532, 0.28938535, -0.67082286, 0.63539886
739, 414417174, 0.4386984, -0.29909086, -0.83128244, -0.16449302, -0.41451192, -0.41610402, -0.22527981
740, 414433841, 0.43960032, -0.29787984, -0.831162, -0.1648911, 0.39217225, 0.09198754, -0.03795433
741, 414450508, 0.44069892, -0.29719493, -0.8307294, -0.16537373, 0.7219748, -0.04772348, 0.17436123
742, 414467175, 0.4418047, -0.29699063, -0.83008045, -0.16604768, 1.1426861, -0.11246826, 0.5319824
743, 414483842, 0.4428276, -0.29688615, -0.8294315, -0.16675162, 0.36690658, -0.18875726, 0.27810192
744, 414500509, 0.44420204, -0.29654753, -0.8287038, -0.16731526, 0.4803613, 0.22365287, 0.19449711
745, 414517176, 0.44552258, -0.29657787, -0.8277709, -0.1683653, 0.93310356, 0.70339626, -0.2343607
746, 414533843, 0.44660243, -0.29740354, -0.82655543, -0.17001072, 0.27138585, 0.14084166, -0.06299114
747, 414550510, 0.4479767, -0.29799446, -0.82536495, -0.17114112, -0.09373083, -0.18639047, 0.25091648
748, 414567177, 0.44972098, -0.29794806, -0.8243421, -0.17157587, 0.3211063, -0.22891471, 0.21948242
749, 414583844, 0.45167992, -0.2977711, -0.8233217, -0.17163728, 0.7065055, 0.26302078, 0.2901001
750, 414600511, 0.4533715, -0.29830077, -0.8221317, -0.17196165, 0.55972224, 0.5947048, -0.3997879
751, 414617178, 0.45501146, -0.29932943, -0.8207704, -0.17234403, 0.57691735, 0.80560774, -0.19411469
752, 414633845, 0.4568283, -0.30075946, -0.8192044, -0.17249906, 0.7680006, 0.8306145, 0.07862282
753, 414650512, 0.45837337, -0.30243573, -0.81767684, -0.17271799, 0.5196066, 0.076841965, 0.07102203
754, 414667179, 0.45997584, -0.3038445, -0.816291, -0.1725396, -0.33895874, -0.9079984, 0.33395386
755, 414683846, 0.4622298, -0.30406395, -0.81512463, -0.17164142, -1.3019737, -1.5389557, 0.051270485
756, 414700513, 0.4650275, -0.3032081, -0.8141333, -0.1702981, -0.33144936, -0.83572567, -0.017395973
757, 414717180, 0.46735972, -0.3028263, -0.8130492, -0.16977133, 0.5312237, -0.26041988, -0.09821701
758, 414733847, 0.46903816, -0.3033342, -0.81181866, -0.1701244, 0.7612527, 0.21620274, -3.5953522E-4
759, 414750514, 0.4703277, -0.30448562, -0.81038946, -0.17131731, 0.28593743, -0.2025053, 0.058817863
760, 414767181, 0.47179672, -0.3052231, -0.8090394, -0.17234287, -0.25441185, -0.49900496, 0.041661263
761, 414783848, 0.47417632, -0.30516973, -0.8076675, -0.1723416, 0.010109938, -0.40128645, 0.4125681
762, 414800515, 0.4768716, -0.3045153, -0.806442, -0.17180058, 0.31733876, -0.2067125, 0.18202686
763, 414817182, 0.47949415, -0.30381417, -0.8052404, -0.17137775, 0.80601275, 0.010378489, -0.09508896
764, 414833849, 0.48177466, -0.30379725, -0.80384445, -0.17156519, 0.25055847, -0.33028442, -0.054023743
765, 414850516, 0.48416203, -0.3036794, -0.8024446, -0.17160672, -0.124112494, -0.42171273, -0.085391045
766, 414867183, 0.4866628, -0.30311176, -0.80120236, -0.17134097, -0.27412814, -0.5168062, 0.19032001
767, 414883850, 0.4892648, -0.30199292, -0.80020016, -0.17058763, 0.07908961, -0.23853928, 0.18460655
768, 414900517, 0.49198908, -0.30078673, -0.79914194, -0.16984238, 0.4654331, -0.06261928, 0.21812916
769, 414917184, 0.49485376, -0.29993924, -0.79774183, -0.16960052, 0.7041575, -0.21383116, 0.26242256
770, 414933851, 0.4977007, -0.29955655, -0.7959287, -0.17046277, 0.81786454, -0.16001807, -0.22007275
771, 414950518, 0.500258, -0.29966068, -0.7940112, -0.17173214, 0.27979755, -0.4462197, -0.30636883
772, 414967185, 0.5028155, -0.299402, -0.7923534, -0.17236993, -0.54725695, -0.4759657, -0.023393631
773, 414983852, 0.50557715, -0.2980217, -0.79120135, -0.17197502, -0.4095182, -0.2298832, 0.032224655
774, 415000519, 0.5086558, -0.29593495, -0.7902042, -0.17108293, 0.024720086, 0.027439345, 0.30874443
775, 415017186, 0.5119138, -0.29420435, -0.78887206, -0.17049678, 1.0042675, 0.11710816, 0.20549393
776, 415033853, 0.51496184, -0.29354334, -0.78698987, -0.17115492, 1.1688449, 0.16079679, -0.22968292
777, 415050520, 0.5178301, -0.2940607, -0.7844955, -0.17305341, 0.6227491, 0.08713698, -0.53004074
778, 415067187, 0.5207073, -0.29457524, -0.7820766, -0.17448662, -0.20388718, -0.11263175, -0.16590309
779, 415083854, 0.5236632, -0.29438338, -0.7800264, -0.17514034, -0.5344137, -0.055808503, -0.027235985
780, 415100521, 0.5266646, -0.29342854, -0.7783664, -0.17512879, -0.27289054, 0.3307861, -0.08559322
781, 415117188, 0.5299032, -0.29237348, -0.77662444, -0.17485759, 0.51201814, 0.78905785, -0.0049448013
782, 415133855, 0.5328241, -0.2922388, -0.7745208, -0.17553517, 0.9204648, 0.61700606, -0.12830448
783, 415150522, 0.53531957, -0.2931683, -0.7720753, -0.17715853, 0.7738772, 0.354412, -0.3911581
784, 415167189, 0.53772813, -0.29464453, -0.76939005, -0.17908703, 0.16632582, -0.024436448, -0.26944542
785, 415183856, 0.5402199, -0.29583883, -0.7667918, -0.18075462, -0.38070112, -0.4230108, -0.052754402
786, 415200523, 0.54292345, -0.2959668, -0.76460606, -0.18170194, -0.7601329, -0.4522589, -0.037683487
787, 415217190, 0.54596, -0.29548994, -0.76254916, -0.18202308, -0.21254696, -0.11602267, -0.10667801
788, 415233857, 0.5489781, -0.2954198, -0.7602256, -0.18277714, 0.24950036, 0.15301697, -0.18295383
789, 415250524, 0.5515241, -0.2963171, -0.7575769, -0.1846478, 0.016185021, -0.01916523, -0.2209034
790, 415267191, 0.5537862, -0.2978086, -0.75475025, -0.18703815, 0.17402674, -0.121711634, 0.009536743
791, 415283858, 0.55596995, -0.29928106, -0.7519233, -0.18957774, 0.103138715, -0.05620602, -0.08714104
792, 415300525, 0.5582923, -0.3005724, -0.7491275, -0.19176558, -0.016437143, -0.05487936, -0.30456066
793, 415317192, 0.56091714, -0.30146715, -0.7463802, -0.1934061, 0.14440279, -0.00846276, -0.14282131
794, 415333859, 0.56370604, -0.30215448, -0.7435933, -0.19495413, 0.35405704, 0.18476228, -0.08339214
795, 415350526, 0.5663741, -0.30329654, -0.7405913, -0.19686544, 0.4985376, 0.25683817, -0.09296322
796, 415367193, 0.5687537, -0.30496144, -0.7374621, -0.19916733, -0.10085665, 0.2403931, -0.31308556
797, 415383860, 0.5711479, -0.30673718, -0.73422676, -0.20152825, -0.2422344, -0.08734216, -0.20388794
798, 415400527, 0.573704, -0.3079836, -0.73111457, -0.20367047, -0.21906818, -0.46083152, 0.01416111
799, 415417194, 0.5764439, -0.30867162, -0.72817796, -0.20540507, 0.2595884, -0.4508844, -0.09784317
800, 415433861, 0.5792493, -0.30907035, -0.7253865, -0.2067855, 0.2493971, -0.114855036, -0.15050411
801, 415450528, 0.5822171, -0.30952203, -0.7224765, -0.20795956, 0.18522698, 0.14730945, -0.078804016
802, 415467195, 0.585162, -0.31024024, -0.71935064, -0.20945393, 0.18449073, 0.030648544, -0.15336323
803, 415483862, 0.58791894, -0.3111283, -0.71617585, -0.21128747, -0.37753797, -0.003981883, -0.37589455
804, 415500529, 0.590762, -0.311646, -0.71320873, -0.21262717, -0.41911808, -0.005658342, -0.10363388
805, 415517196, 0.5938216, -0.31130445, -0.71066916, -0.21310745, -0.29770005, 0.30668738, -0.07383251
806, 415533863, 0.597118, -0.31075075, -0.70806164, -0.21338417, 0.25219727, 0.36259323, -0.10650253
807, 415550530, 0.5999741, -0.31090268, -0.70525616, -0.2144391, -0.01461283, 0.53132695, -0.364645
808, 415567197, 0.6023466, -0.31177583, -0.7023477, -0.21606025, -0.96247137, 0.20012188, -0.27420044
809, 415583864, 0.6047322, -0.31185117, -0.6999192, -0.21716501, -1.3849537, -0.28444594, -0.04176426
810, 415600531, 0.60733664, -0.3107104, -0.69809383, -0.21740742, -0.811909, 0.07693629, -0.10885048
811, 415617198, 0.609821, -0.30987775, -0.69615, -0.2178733, -0.23020718, 0.38508734, -0.1687088
812, 415633865, 0.6118016, -0.3100557, -0.69398373, -0.218976, -0.17589557, 0.41129866, -0.23192883
813, 415650532, 0.613466, -0.3105887, -0.69186765, -0.22025666, -0.8195871, 0.26558882, -0.15642643
814, 415667199, 0.615083, -0.3105541, -0.69016796, -0.22112638, -1.2303356, 0.3367794, -0.040358543
815, 415683866, 0.6165043, -0.3101868, -0.6888482, -0.2217982, -0.9563154, 0.48537773, -0.11382961
816, 415700533, 0.6177165, -0.31006095, -0.68756765, -0.2225734, -0.42768934, 0.2698747, -0.0626812
817, 415717200, 0.6186368, -0.31011745, -0.6864051, -0.22352472, -0.5314061, 0.1983958, -0.18406677
818, 415733867, 0.61958146, -0.30986473, -0.68549854, -0.22404088, -0.4789963, 0.23853458, -0.08219051
819, 415750534, 0.6206053, -0.30963877, -0.6845608, -0.22438619, -0.18821669, 0.4772755, 0.085832596
820, 415767201, 0.6213484, -0.30984816, -0.6835275, -0.22518899, -0.2509219, 0.5236885, -0.11477566
821, 415783868, 0.6218046, -0.31031403, -0.6825589, -0.22622375, -0.36835828, 0.45222035, -0.06745148
822, 415800535, 0.6221927, -0.3107246, -0.6816982, -0.22718678, -0.4054212, 0.09780111, 0.02734375
823, 415817202, 0.62263715, -0.31081113, -0.68101084, -0.22791079, -0.25806046, -0.10301522, -0.099173546
824, 415833869, 0.6231052, -0.3106019, -0.680535, -0.22833769, -0.14656773, 0.17247824, -0.16693878
825, 415850536, 0.62350386, -0.31071663, -0.6799433, -0.22885601, 0.05959258, 0.25388244, 0.06170559
826, 415867203, 0.623628, -0.3111787, -0.6792678, -0.229893, -0.22501408, 0.16224883, -0.0062294006
827, 415883870, 0.6238848, -0.31138045, -0.67864686, -0.23075607, -0.18078041, -0.24829182, 0.12631512
828, 415900537, 0.62432915, -0.31105328, -0.6782149, -0.23126464, -0.03494357, -0.17435855, -0.06611729
829, 415917204, 0.6249797, -0.3103636, -0.6779014, -0.23135275, 0.037789334, 0.024157727, -0.17989922
830, 415933871, 0.6256103, -0.3098479, -0.6774998, -0.23151645, 0.0013079979, 0.3778397, -0.17860126
831, 415950538, 0.62590295, -0.30999494, -0.6769434, -0.23215559, 0.06895777, 0.6119236, -0.11299038
832, 415967205, 0.6257566, -0.31110775, -0.6760714, -0.23359793, -0.1413183, 0.105831705, 0.36202526
833, 415983872, 0.6257299, -0.31146896, -0.6755842, -0.23459536, -0.61547333, -0.12059083, 0.17908573
834, 416000539, 0.6263141, -0.31053832, -0.6755511, -0.23436533, -0.21788937, 0.042492718, -0.16249275
835, 416017206, 0.6269107, -0.30967262, -0.675527, -0.23398468, 0.07005477, 0.47891662, -0.2750616
836, 416033873, 0.62722844, -0.30948967, -0.6752991, -0.23403274, -0.12054188, 0.52915215, -0.05892086
837, 416050540, 0.627336, -0.30955485, -0.67507446, -0.23430635, -0.15813228, 0.36799866, 0.032434464
838, 416067207, 0.62720937, -0.3098716, -0.67481846, -0.2349632, -0.0805563, -0.033158593, 0.21990299
839, 416083874, 0.62725717, -0.3096451, -0.6747749, -0.23525901, -0.28971437, -0.09147894, 0.05869484
840, 416100541, 0.6276747, -0.3088001, -0.6748859, -0.23493768, 0.039719593, -0.018398693, -0.21145439
841, 416117208, 0.6280317, -0.3083065, -0.67481714, -0.23482928, 0.1497054, 0.011588924, -0.27882004
842, 416133875, 0.6282946, -0.30819303, -0.67456543, -0.23499791, 0.10975827, -0.046897825, -0.053551674
843, 416150542, 0.62844205, -0.30833578, -0.6742026, -0.23545782, 0.3497504, -0.024674937, 0.04438114
844, 416167209, 0.62829876, -0.30929133, -0.6734508, -0.23673463, 0.49325287, -0.22862235, 0.27416515
845, 416183876, 0.6280979, -0.31051445, -0.6724952, -0.23837738, 0.12869743, -0.32665727, 0.01008606
846, 416200543, 0.62818414, -0.31130746, -0.67161137, -0.2396047, 0.1264395, -0.4041854, -0.1256733
847, 416217210, 0.62835634, -0.3120178, -0.6706849, -0.24082108, 0.15629189, -0.31175554, -0.1083374
848, 416233877, 0.6286308, -0.31246227, -0.6698343, -0.24189368, -0.002674556, -0.16828324, 0.024130821
849, 416250544, 0.6291336, -0.31235412, -0.6691872, -0.2425162, -0.12932013, 0.027725218, -0.028367996
850, 416267211, 0.6297744, -0.31176534, -0.66878533, -0.24271888, -0.18599854, 0.24998818, -0.082481384
851, 416283878, 0.63039345, -0.31117815, -0.66841364, -0.24288951, -0.25718474, 0.3717948, -0.013224602
852, 416300545, 0.6308885, -0.31071645, -0.66809636, -0.24306792, -0.4877504, 0.53397995, -0.062464714
853, 416317212, 0.63114613, -0.31053072, -0.66784954, -0.24331477, -0.4601488, 0.5830221, -0.08687782
854, 416333879, 0.63108814, -0.31081417, -0.6676161, -0.2437431, -0.3963421, 0.5413774, -0.10712147
855, 416350546, 0.6308872, -0.3112017, -0.66749537, -0.2440999, -0.39191967, 0.48381647, -0.041726112
856, 416367213, 0.6307619, -0.31135678, -0.66750467, -0.24419992, -0.30373758, 0.3918172, 0.14896584
857, 416383880, 0.6307037, -0.31124792, -0.66764534, -0.24410474, -0.38631576, 0.34806398, 0.14959621
858, 416400547, 0.6307106, -0.3107854, -0.6679872, -0.24373965, -0.2675544, 0.22101721, -0.042510986
859, 416417214, 0.63068223, -0.31035292, -0.6683421, -0.24339163, 0.048420954, 0.12277634, -0.2278881
860, 416433881, 0.63057685, -0.31021777, -0.6685908, -0.24315342, 0.25410116, 0.06896593, -0.15747261
861, 416450548, 0.63035315, -0.31048802, -0.66864866, -0.24322994, 0.28142112, -0.043805744, -0.03330326
862, 416467215, 0.6301662, -0.31084818, -0.6685714, -0.2434668, 0.11434744, -0.13275944, 0.17434978
863, 416483882, 0.6300732, -0.3109271, -0.6685438, -0.24368276, -0.1460666, -0.04962457, 0.2341919
864, 416500549, 0.6300373, -0.31081823, -0.6686106, -0.24373077, -0.012334786, 0.19657607, -0.103414536
865, 416517216, 0.62987465, -0.3111082, -0.6685188, -0.2440329, 0.10195186, 0.16355069, -0.20410919
866, 416533883, 0.6296881, -0.3115183, -0.6684056, -0.24430136, -0.107328236, 0.120109715, -0.10270882
867, 416550550, 0.6296487, -0.3115976, -0.6684526, -0.24417277, -0.14204785, 0.19566101, -0.066905975
868, 416567217, 0.6296322, -0.31159455, -0.6685346, -0.24399467, -0.025202874, 0.17172958, 0.14600945
869, 416583884, 0.6296281, -0.31151795, -0.66861534, -0.24388136, -0.13011718, 0.09388337, 0.1336937
870, 416600551, 0.6297118, -0.31109738, -0.66887814, -0.2434813, -0.21785495, 0.23108435, -0.07352543
871, 416617218, 0.6297476, -0.31087413, -0.6691226, -0.24300192, 0.02771963, 0.45251137, -0.1329298
872, 416633885, 0.62959987, -0.31114185, -0.66923034, -0.24274535, -0.084108375, 0.3207744, -0.06398201
873, 416650552, 0.6294932, -0.3112065, -0.6694688, -0.24228168, -0.21398638, 0.07418909, 0.0023050308
874, 416667219, 0.62953377, -0.31083328, -0.66985893, -0.24157579, -0.12215609, -0.0022964838, 0.043976784
875, 416683886, 0.62964857, -0.31027585, -0.6702984, -0.24077238, -0.036971726, 0.11294042, -0.013504982
876, 416700553, 0.6297047, -0.30989382, -0.6707062, -0.23998098, -0.020450095, 0.37202546, -0.111014366
877, 416717220, 0.6296263, -0.30987537, -0.67104465, -0.2392632, -0.14348996, 0.65057033, -0.11475563
878, 416733887, 0.6294084, -0.31003335, -0.6714362, -0.23853254, -0.43748817, 0.900107, -0.013894081
879, 416750554, 0.628922, -0.3103802, -0.6719991, -0.23777765, -0.63901144, 0.7413031, -0.010245323
880, 416767221, 0.62831223, -0.31048384, -0.6728636, -0.236807, -0.7907772, 0.41870773, 0.05475521
881, 416783888, 0.62775016, -0.30994198, -0.67417884, -0.23526207, -0.80049956, 0.66961074, -0.1614542
882, 416800555, 0.6270462, -0.30952817, -0.6756524, -0.23344971, -0.7166822, 0.9373817, -0.12291813
883, 416817222, 0.6259337, -0.30976817, -0.67713463, -0.23181695, -0.8447547, 1.290909, -0.1577816
884, 416833889, 0.6241, -0.31086665, -0.67871577, -0.23066387, -1.5726944, 1.4843494, -0.05060482
885, 416850556, 0.6215561, -0.31201884, -0.68097943, -0.22930136, -2.345683, 1.3471675, -0.103634834
886, 416867223, 0.6186718, -0.31248063, -0.6840987, -0.22717798, -2.5073898, 0.78625566, -0.12212181
887, 416883890, 0.61538064, -0.3124152, -0.6879348, -0.22460766, -2.2110772, 0.78548837, -0.43628407
888, 416900557, 0.61130846, -0.31262523, -0.69226974, -0.22210282, -2.0699883, 0.8334646, -0.60837555
889, 416917224, 0.60651654, -0.31309128, -0.69707566, -0.21953796, -1.7843397, 0.95747215, -0.46148682
890, 416933891, 0.60083765, -0.3140836, -0.7022618, -0.21719529, -1.8413639, 1.412942, -0.5135441
891, 416950558, 0.59400445, -0.3162169, -0.7076232, -0.2154872, -1.8038129, 1.4600735, -0.61759186
892, 416967225, 0.5862924, -0.31944242, -0.71275693, -0.21493039, -1.7707982, -0.08188733, -0.6939478
893, 416983892, 0.5787193, -0.32094163, -0.7186303, -0.21366051, -1.7299871, -0.13004218, -1.4474907
894, 417000559, 0.57161623, -0.32092428, -0.72509587, -0.21094593, -0.6967239, 0.14922328, -0.8840971
895, 417017226, 0.5645448, -0.32037222, -0.73179257, -0.2076781, -0.2999423, 0.24422121, -0.28243256
896, 417033893, 0.5571991, -0.3200546, -0.73844826, -0.20442133, 0.0412064, 0.56126875, -0.53487587
897, 417050560, 0.5496098, -0.32066193, -0.74461013, -0.20164427, 1.4201041, -0.06748437, -0.3477354
898, 417067227, 0.5421707, -0.3216348, -0.75022584, -0.1994061, 1.0103402, -0.86106074, -0.8695955
899, 417083894, 0.535088, -0.32200712, -0.7558101, -0.19683269, 0.57809836, -1.4282317, -0.91852283
900, 417100561, 0.5284505, -0.32128236, -0.7617008, -0.19320716, 0.097446285, -1.1661731, -0.0473938
901, 417117228, 0.5221584, -0.31986067, -0.76773673, -0.18873152, 0.5492366, -0.016138418, 0.60681343
902, 417133895, 0.51632696, -0.318776, -0.77312315, -0.18457635, 2.4475148, 0.7423299, 0.50238705
903, 417150562, 0.51044756, -0.31922594, -0.7774253, -0.18206447, 3.1458015, 0.24955529, -0.2778778
904, 417167229, 0.5045148, -0.3212862, -0.7807056, -0.18093733, 1.7882317, -1.6043403, -0.5157404
905, 417183896, 0.49943247, -0.32277578, -0.7838113, -0.17894818, 0.12207384, -2.4031398, 0.45884228
906, 417200563, 0.49567747, -0.32230538, -0.7870828, -0.17585039, 0.96536297, -0.62873906, 0.93360233
907, 417217230, 0.4921341, -0.321995, -0.7900552, -0.17301896, 1.9894378, 1.045714, 0.03657627
908, 417233897, 0.487431, -0.32409596, -0.7921906, -0.17264506, 1.7215574, 0.99725723, -0.8251772
909, 417250564, 0.48208037, -0.32776275, -0.7937027, -0.17379789, 0.49649915, -0.6578725, 0.082629204
910, 417267231, 0.4772159, -0.33000654, -0.7956232, -0.17419513, -1.0351189, -2.3141744, 0.6915531
911, 417283898, 0.473727, -0.32953322, -0.798293, -0.17239086, -0.5729024, -2.6353388, 0.505414
912, 417300565, 0.47120705, -0.32717225, -0.80156285, -0.16857855, 0.30166313, -1.2923657, 0.18723774
913, 417317232, 0.46858594, -0.32496688, -0.80474246, -0.16496369, 0.3583031, 0.6399714, -0.122859
914, 417333899, 0.4650131, -0.32432264, -0.80748266, -0.16293831, 0.18157746, 1.2914227, -0.25676155
915, 417350566, 0.46064362, -0.32446578, -0.81008315, -0.16215499, -0.24298115, 0.5383597, -0.14805317
916, 417367233, 0.4565194, -0.32384145, -0.81299496, -0.16048494, -0.3931461, -0.1114611, -0.14672947
917, 417383900, 0.4530001, -0.32239938, -0.81617606, -0.15718065, -0.26763263, 0.24106622, -0.1809597
918, 417400567, 0.44966245, -0.32084852, -0.8193888, -0.15317143, 0.0063254167, 0.21494727, -0.47759914
919, 417417234, 0.44591174, -0.31953666, -0.82257813, -0.14974676, 0.019082418, -0.007527469, -0.7244005
920, 417433901, 0.44190854, -0.31823263, -0.82573503, -0.14698899, -0.71150833, 0.24759749, -0.28244114
921, 417450568, 0.43797082, -0.31694466, -0.8288572, -0.14395443, 0.025843909, 0.7029279, 0.028447151
922, 417467235, 0.43378043, -0.3160699, -0.8318638, -0.14119658, 1.1124123, 0.6913734, -0.32781315
923, 417483902, 0.429293, -0.3162515, -0.8344702, -0.13910921, 1.2368178, 0.3608826, -0.77215576
924, 417500569, 0.42479715, -0.31684184, -0.836808, -0.13751481, 0.473725, -0.67484766, -0.6872091
925, 417517236, 0.42092863, -0.3171293, -0.83897746, -0.13551524, -0.16647357, -0.39631003, 0.5408306
926, 417533903, 0.4172697, -0.31738067, -0.8410283, -0.13351624, 0.22567657, 0.2005726, 0.950408
927, 417550570, 0.4135044, -0.31770208, -0.84296155, -0.13226888, 0.9073857, 0.078435615, 0.74863625
928, 417567237, 0.4099019, -0.31817427, -0.84470177, -0.13124098, 1.844228, -0.09119446, 0.114748955
929, 417583904, 0.40667984, -0.31949157, -0.84591025, -0.13027759, 1.7144631, -0.54615235, -0.09743786
930, 417600571, 0.4038591, -0.3213203, -0.8466912, -0.12947825, 0.33802155, -1.2086333, 0.58635044
931, 417617238, 0.40184215, -0.32285666, -0.8471302, -0.12905969, 0.005911918, -0.8207139, 1.3456354
932, 417633905, 0.39977556, -0.32388097, -0.84769976, -0.1291719, 0.47895542, -0.6175767, 0.8180866
933, 417650572, 0.39756113, -0.32451162, -0.84846705, -0.12938507, 1.131774, -0.5251599, 0.25629425
934, 417667239, 0.39546594, -0.3254248, -0.8490495, -0.12969178, 0.830012, -0.68686557, 0.29473114
935, 417683906, 0.39395908, -0.32643053, -0.8493596, -0.12971987, 0.53103685, -0.86959225, 0.6636267
936, 417700573, 0.39294726, -0.32707703, -0.8496136, -0.12949689, 0.59942126, -0.71961105, 0.8743639
937, 417717240, 0.39203545, -0.32763004, -0.8498255, -0.12947236, 0.73428434, -0.40183908, 0.5516329
938, 417733907, 0.39109805, -0.32810047, -0.850053, -0.12962148, 0.3676826, -0.8375003, 0.07672596
939, 417750574, 0.39059862, -0.32788712, -0.85039455, -0.12942666, -0.068051204, -1.2275684, 0.06951332
940, 417767241, 0.39090762, -0.32694715, -0.85077065, -0.12839666, 0.14335406, -0.6217487, 0.6009226
941, 417783908, 0.3917354, -0.32591093, -0.8509489, -0.12732239, 1.0289879, 0.012348755, 0.723052
942, 417800575, 0.3922494, -0.32537892, -0.8509648, -0.12699264, 1.5364828, 0.42086753, 0.41255856
943, 417817242, 0.39225224, -0.32565078, -0.8507909, -0.12745222, 0.65549463, 0.24239969, 0.13217258
944, 417833909, 0.39225426, -0.32607874, -0.8505428, -0.12800713, -0.3960169, -0.57914174, -0.025403976
945, 417850576, 0.3928642, -0.32581636, -0.85038733, -0.12783699, -0.6122505, -0.9814267, -0.052725792
946, 417867243, 0.3939462, -0.32501224, -0.8502924, -0.12718318, 0.10612686, -0.5506435, 0.3982725
947, 417883910, 0.3949611, -0.3244629, -0.8500294, -0.12719654, 0.48021042, -0.32066587, 0.5282173
948, 417900577, 0.39586928, -0.32402262, -0.84966063, -0.12795778, 0.73338825, -0.101612456, 0.18534088
949, 417917244, 0.39679575, -0.3238694, -0.8491326, -0.12897688, 1.0061157, 0.13468002, -0.031217575
950, 417933911, 0.39757818, -0.32420918, -0.8484485, -0.13020962, 0.25324175, 0.088431336, 0.06804943
951, 417950578, 0.39841208, -0.32434553, -0.84784675, -0.13123725, -0.4370599, -0.13844515, 0.17729759
952, 417967245, 0.39960667, -0.3238124, -0.8473661, -0.13202338, -0.18976384, -0.26287863, 0.09704876
953, 417983912, 0.40111127, -0.32307434, -0.8468141, -0.13280907, 0.68738884, -0.31947935, -0.18814945
954, 418000579, 0.40259603, -0.3229775, -0.8459864, -0.13382304, 0.8228077, 0.10768161, 0.10264015
955, 418017246, 0.40373763, -0.32339612, -0.84508884, -0.13503839, 0.052241236, -0.043987684, 0.13394356
956, 418033913, 0.4048973, -0.3233068, -0.8443892, -0.13615115, -0.28525817, -0.13247669, 0.23797417
957, 418050580, 0.4061526, -0.32301298, -0.84374106, -0.13712418, 0.26730406, -0.06976208, -0.0783968
958, 418067247, 0.40735382, -0.3227458, -0.8430914, -0.13818276, -0.15678495, -0.28715435, -0.27570343
959, 418083914, 0.4091387, -0.32165766, -0.8426029, -0.13842604, 0.08630439, -0.47306395, -0.0110731125
960, 418100581, 0.41114834, -0.32035688, -0.84223926, -0.13769925, 0.71450967, -2.4821114E-4, 0.6640606
961, 418117248, 0.41312274, -0.31980675, -0.8416, -0.13697512, 0.5754102, 0.7457645, 0.4997368
962, 418133915, 0.4144591, -0.31987885, -0.84078884, -0.13774897, 0.8071352, 0.35344282, -0.37455082
963, 418150582, 0.41492173, -0.32060245, -0.8399811, -0.1395907, -0.65969557, -0.28527808, -0.6414709
964, 418167249, 0.41591853, -0.32084835, -0.8392899, -0.14021412, -1.3186827, -0.37765935, -0.17178059
965, 418183916, 0.4174036, -0.3203847, -0.83872265, -0.14025578, -0.44490343, -0.1757584, -0.03767395
966, 418200583, 0.41865224, -0.31997365, -0.83814085, -0.14094898, 0.519502, 0.25650057, -0.14890575
967, 418217250, 0.41940978, -0.32027325, -0.83739626, -0.14243448, -0.044485338, -0.26195103, -0.30814743
968, 418233917, 0.42033976, -0.3203663, -0.8366879, -0.14364076, -0.69553614, -0.09834581, -0.074466705
969, 418250584, 0.42151082, -0.32003027, -0.83611804, -0.14427531, 0.22097497, 0.35217395, -0.224926
970, 418267251, 0.4222328, -0.32007217, -0.8355518, -0.14534758, 0.41603875, 0.518695, -0.20659542
971, 418283918, 0.4228378, -0.3205179, -0.83485997, -0.14657673, 0.008105697, -0.03698737, 0.14177608
972, 418300585, 0.42345637, -0.32049185, -0.83439064, -0.14751771, -0.70355797, -0.4987009, -0.20429993
973, 418317252, 0.4244788, -0.31977832, -0.83408856, -0.14783578, -0.5273862, -0.35226, -0.07632923
974, 418333919, 0.4256376, -0.31884083, -0.8337889, -0.14821894, 0.11102045, -0.06442269, 0.03608322
975, 418350586, 0.42666033, -0.31823453, -0.8333647, -0.14896505, 0.9459468, 0.40242916, 0.09672642
976, 418367253, 0.42723793, -0.31845835, -0.8327138, -0.1504641, 0.3804944, 0.1200231, -0.021755219
977, 418383920, 0.4277765, -0.3185576, -0.83213615, -0.15191193, -0.26503763, -0.5521079, -0.0774107
978, 418400587, 0.42889896, -0.31790164, -0.83167696, -0.15263513, -0.35928702, -0.7539537, 0.07171726
979, 418417254, 0.43023235, -0.31694883, -0.8312824, -0.15301174, -0.06647678, -0.5306002, 0.16470623
980, 418433921, 0.43148732, -0.3158468, -0.8309997, -0.15329196, 0.2116567, -0.08126171, 0.3274088
981, 418450588, 0.43248022, -0.31511408, -0.8305653, -0.15435308, 0.22202258, 0.26584932, -0.15085697
982, 418467255, 0.43346772, -0.31453314, -0.8300468, -0.15555196, 0.81791884, 0.26729077, -0.118842125
983, 418483922, 0.43447965, -0.3143398, -0.8294075, -0.15652746, 0.7109623, 0.49226806, -0.20941925
984, 418500589, 0.4353074, -0.31406012, -0.8289347, -0.15729001, -0.7711689, -0.18911879, 0.26242542
985, 418517256, 0.43665212, -0.31313437, -0.82859033, -0.15722384, -0.7019509, 0.10810997, 0.13646984
986, 418533923, 0.4379501, -0.3120503, -0.8283129, -0.15723112, 0.40430006, 0.14452526, -0.5684986
987, 418550590, 0.43927687, -0.3115173, -0.8277229, -0.15769371, 1.2478015, 0.5143097, 0.035889626
988, 418567257, 0.4397615, -0.3122447, -0.8269255, -0.15908065, -0.29669958, -0.01919138, -0.0051498413
989, 418583924, 0.44033554, -0.31219012, -0.8264722, -0.15995346, -0.932338, 0.09328749, -0.38578224
990, 418600591, 0.44126904, -0.31163278, -0.8260982, -0.16039945, 0.23574, 0.28369516, -0.08568382
991, 418617258, 0.44203517, -0.31189492, -0.8254356, -0.16118924, 0.85074484, 0.61580837, -0.2863369
992, 418633925, 0.44221222, -0.31281415, -0.82466215, -0.1628735, -0.45167765, -0.4014761, -0.11321926
993, 418650592, 0.44244403, -0.3127397, -0.8243969, -0.16372634, -2.0709572, -1.0904229, -0.10218811
994, 418667259, 0.4435318, -0.3113131, -0.8244703, -0.16313194, -0.30387434, -0.014340703, -0.0824213
995, 418683926, 0.444476, -0.31037074, -0.82427734, -0.1633331, 1.4058448, 1.0611626, -0.18972111
996, 418700593, 0.44411415, -0.3113047, -0.82368386, -0.1655182, 0.76300126, 0.74496925, -0.44588852
997, 418717260, 0.4435208, -0.31213972, -0.8233545, -0.16716728, -1.1957004, -0.35386717, -0.075107574
998, 418733927, 0.4442358, -0.31134778, -0.8233526, -0.16675504, -0.59929323, -0.29593775, 0.1671505
999, 418750594, 0.44504923, -0.31012192, -0.82346535, -0.16631313, 0.45574918, -0.03851732, -8.392334E-4
1000, 418767261, 0.4454976, -0.30960324, -0.8233773, -0.1665143, 0.61442345, 0.40401375, -0.10106182
1001, 418783928, 0.44540697, -0.30977482, -0.823176, -0.16743101, -0.45909896, -0.07847138, -0.2337122
1002, 418800595, 0.4455437, -0.30935866, -0.8232205, -0.16761723, -0.13206084, -0.098767355, -0.12663364
1003, 418817262, 0.44602692, -0.3088221, -0.82318693, -0.16748637, 0.36184067, -0.065326914, 0.24058819
1004, 418833929, 0.44643417, -0.3087647, -0.8228922, -0.1679556, 0.31063652, -0.24973404, 0.2712221
1005, 418850596, 0.4464729, -0.30827233, -0.82291484, -0.16864426, -0.70830965, -0.80435777, -0.31364346
1006, 418867263, 0.44702816, -0.30717403, -0.82306314, -0.16845328, -0.46329498, -0.49743703, 0.21920013
1007, 418883930, 0.44751018, -0.30638203, -0.82314956, -0.1681929, 0.7126963, 0.54194695, -0.17027569
1008, 418900597, 0.44766504, -0.30651265, -0.8228656, -0.16893089, 1.2982298, 1.2275716, -0.1880312
1009, 418917264, 0.44733998, -0.30772182, -0.82227504, -0.17046261, 0.38690293, 0.7519366, -0.106752396
1010, 418933931, 0.44720823, -0.30851242, -0.8218781, -0.17129214, -0.7671497, -0.16957504, -0.11100483
1011, 418950598, 0.44763258, -0.30818328, -0.821841, -0.17095333, -0.6153768, -0.5065198, 0.035279274
1012, 418967265, 0.44806814, -0.3074588, -0.82200956, -0.17030567, -0.22247966, -0.12731443, -0.31682777
1013, 418983932, 0.44851315, -0.30704814, -0.82196826, -0.1700737, 0.3723509, 0.35958228, -0.040643692
1014, 419000599, 0.44816965, -0.3074505, -0.821869, -0.17073055, -0.4077386, 0.35822767, -0.39931202
1015, 419017266, 0.44794506, -0.3076239, -0.8218519, -0.17108987, 0.20217127, 0.63518804, -0.06384182
1016, 419033933, 0.44801572, -0.30802792, -0.82163477, -0.17122081, 0.57527834, 0.14206909, 0.21528053
1017, 419050600, 0.4478534, -0.3086808, -0.82139355, -0.17162642, -0.01980459, -0.51796544, -0.0761385
1018, 419067267, 0.44765547, -0.30869794, -0.8215276, -0.17147075, -0.9125721, -0.5367419, -0.34084606
1019, 419083934, 0.4479203, -0.30827197, -0.82167715, -0.17082688, -0.046115194, 0.22440511, 0.114258766
1020, 419100601, 0.44776314, -0.30842933, -0.8216512, -0.17107974, 0.54238904, 0.2700032, -0.03546524
1021, 419117268, 0.44743195, -0.30897242, -0.82150537, -0.17166615, 0.3563809, -0.07066642, 0.0909214
1022, 419133935, 0.44712842, -0.30953258, -0.82134527, -0.17221269, -0.2671818, -0.63633895, 0.12541485
1023, 419150602, 0.44735676, -0.30908173, -0.8214563, -0.1718999, 0.06528702, -0.2988517, 0.09935188
1024, 419167269, 0.4478212, -0.30862743, -0.8213951, -0.17179938, 0.5173476, 0.07780442, 0.20032215
1025, 419183936, 0.44787222, -0.30891943, -0.82108665, -0.17261395, 0.33956513, -0.13595298, -0.061701775
1026, 419200603, 0.44773686, -0.30903056, -0.82097626, -0.17329045, -0.6509446, -0.7142179, -0.095235825
1027, 419217270, 0.4481889, -0.30836686, -0.8210982, -0.17272465, -0.22278498, -0.051327292, 0.104245186
1028, 419233937, 0.4490132, -0.30773848, -0.82095873, -0.17236748, 1.2989936, 0.5185141, 0.49057865
1029, 419250604, 0.44941548, -0.30796444, -0.82053, -0.17295535, 0.971008, 0.33269322, 0.109770775
1030, 419267271, 0.4496289, -0.30863142, -0.81998134, -0.17381206, 0.014472464, -0.28078523, 0.055185318
1031, 419283938, 0.45032483, -0.30846947, -0.8196547, -0.17383868, -0.62020534, -0.87681764, 0.04228592
1032, 419300605, 0.4515392, -0.30756575, -0.8194847, -0.1730893, 0.25016597, -0.5205353, 0.09909916
1033, 419317272, 0.45273253, -0.30703923, -0.81906205, -0.17290793, 0.92231506, -0.16287065, 0.37448978
1034, 419333939, 0.45365047, -0.3071701, -0.8183591, -0.17359686, 0.27651212, -0.6187286, 0.36432076
1035, 419350606, 0.45476833, -0.30688226, -0.81770897, -0.17424329, 0.091129586, -0.66150683, 0.2698269
1036, 419367273, 0.45631137, -0.30616695, -0.8170541, -0.1745394, 0.78161114, -0.4173484, 0.3051176
1037, 419383940, 0.45794287, -0.3058034, -0.8162189, -0.17481147, 0.8712475, 0.23036508, 0.07277012
1038, 419400607, 0.4594781, -0.30608344, -0.8151165, -0.17543513, 1.2548741, 0.93712074, 0.0719347
1039, 419417274, 0.46073997, -0.30681753, -0.81389415, -0.17651527, 0.12955883, 0.24172144, 0.14454746
1040, 419433941, 0.46256456, -0.3071474, -0.81268454, -0.17674217, 0.2341249, -0.04181782, 0.32737637
1041, 419450608, 0.46457008, -0.307275, -0.8115026, -0.17669147, 0.25492457, -0.5385056, 0.052500725
1042, 419467275, 0.46670124, -0.306983, -0.81042004, -0.17655097, -0.3366083, -0.5259615, -0.070658684
1043, 419483942, 0.46914876, -0.3062695, -0.80933815, -0.17626655, 0.05761158, -0.32117528, 0.18612003
1044, 419500609, 0.47139695, -0.30561844, -0.80836153, -0.17587909, 0.09838034, 0.012355014, -0.08886814
1045, 419517276, 0.47376567, -0.30512482, -0.80724585, -0.17549536, 0.44653732, 0.26467788, 0.07559776
1046, 419533943, 0.4760127, -0.30518886, -0.8058293, -0.17581388, 0.50156105, -0.03615378, 0.13977242
1047, 419550610, 0.4778436, -0.30546823, -0.80446106, -0.17662598, -0.24719818, -0.70216984, -0.19655228
1048, 419567277, 0.4799554, -0.3049729, -0.80337894, -0.17668045, -0.75326145, -0.89222693, 0.08379936
1049, 419583944, 0.48256567, -0.30349237, -0.802557, -0.1758539, -0.2149504, -0.62316483, 0.06437969
1050, 419600611, 0.48512208, -0.30201784, -0.80177736, -0.17491281, 0.48857072, 0.2202225, -0.103637695
1051, 419617278, 0.4872454, -0.3014719, -0.800756, -0.1746313, 0.4356538, 0.5386664, -0.26329994
1052, 419633945, 0.4890613, -0.30148596, -0.79956216, -0.17500101, -0.17667894, 0.19536139, 0.07810688
1053, 419650612, 0.49089712, -0.30104885, -0.79855824, -0.17519659, -0.38291344, -0.16883375, -0.09845543
1054, 419667279, 0.49322042, -0.3000613, -0.79756653, -0.17488238, -0.086609036, -0.17088829, -0.002240181
1055, 419683946, 0.4956121, -0.29884923, -0.79666847, -0.17428857, 0.104113676, -0.09457247, -0.19762135
1056, 419700613, 0.4977065, -0.29778245, -0.7958798, -0.17374879, 0.10970776, 0.2099199, -0.3841095
1057, 419717280, 0.49958244, -0.296902, -0.7951517, -0.17320506, -0.119982205, 0.35908642, -0.11642265
1058, 419733947, 0.50134706, -0.29590347, -0.79455835, -0.17253582, -0.49265742, 0.024621405, 0.17093754
1059, 419750614, 0.50345856, -0.2944651, -0.79390985, -0.17183246, -0.043604694, -0.24318556, 0.20688915
1060, 419767281, 0.5056575, -0.2934424, -0.7928837, -0.17186329, 0.23485154, -0.29644468, -0.061297417
1061, 419783948, 0.5075866, -0.29256135, -0.79196346, -0.1719223, 0.2667466, -0.26433715, -0.5872059
1062, 419800615, 0.50981677, -0.2916913, -0.7909375, -0.17152421, 0.069723524, 0.10000484, 0.0704422
1063, 419817282, 0.5118933, -0.2908468, -0.7900226, -0.17098935, 0.35139948, 0.43264443, 0.15293026
1064, 419833949, 0.51359403, -0.29011405, -0.7892733, -0.17059341, 0.3896233, 0.5037381, -0.023096085
1065, 419850616, 0.5154719, -0.28956693, -0.78835195, -0.17011924, 0.3780069, 0.20092966, 0.43333817
1066, 419867283, 0.5176612, -0.28913927, -0.78710735, -0.16996148, 0.845957, -0.15708211, 0.24515247
1067, 419883950, 0.51976943, -0.28892362, -0.78571004, -0.17035912, 0.8505797, -0.112634994, -0.44824314
1068, 419900617, 0.52212584, -0.28899145, -0.7841279, -0.17032735, 0.49692452, 0.027669003, -0.11117172
1069, 419917284, 0.5245973, -0.2890481, -0.7825353, -0.1699616, 0.32011572, 0.12650576, 0.18407345
1070, 419933951, 0.52701247, -0.28892165, -0.7809976, -0.1697776, 0.4992922, 0.17830634, 0.10321903
1071, 419950618, 0.5292887, -0.28931376, -0.77922493, -0.1701738, 0.555372, -0.055797886, 0.18756676
1072, 419967285, 0.5315291, -0.29000932, -0.77725464, -0.17101516, 0.5225764, -0.27640808, 0.10892677
1073, 419983952, 0.53408706, -0.29092056, -0.7749284, -0.17205127, 0.5838328, -0.5228757, 0.13054943
1074, 420000619, 0.5368638, -0.29186407, -0.7723797, -0.17326765, 0.6594048, -0.58323246, -0.08169651
1075, 420017286, 0.5396501, -0.2929527, -0.769736, -0.17453596, 0.30650377, -0.4332383, -0.06104946
1076, 420033953, 0.54232514, -0.29405352, -0.7671032, -0.1759776, 0.07970069, -0.13694292, 0.061997414
1077, 420050620, 0.5448532, -0.29526675, -0.76447177, -0.17758127, 0.13160935, 0.022751607, -0.10128021
1078, 420067287, 0.54741853, -0.29659703, -0.76172686, -0.17926303, 0.46901423, 0.041138455, -0.06459808
1079, 420083954, 0.55021626, -0.2981643, -0.7586044, -0.18132593, 0.083572835, -0.19500992, -0.045773506
1080, 420100621, 0.55295473, -0.2994383, -0.7556542, -0.18320483, -0.25898, 0.1022726, -0.29204845
1081, 420117288, 0.55577266, -0.3005341, -0.75279313, -0.1846569, -0.15950957, 0.4672906, -0.43779755
1082, 420133955, 0.5586275, -0.30183348, -0.74980396, -0.18607971, 0.1684863, 0.23615307, -0.18136883
1083, 420150622, 0.5614471, -0.30299753, -0.7468867, -0.1874286, -0.07783749, 0.060698297, -0.15814018
1084, 420167289, 0.56425273, -0.3039876, -0.74409044, -0.18851931, -0.042512164, 0.41460893, -0.30267906
1085, 420183956, 0.56701714, -0.3053759, -0.7410879, -0.18980353, 0.19426852, 0.56692797, -0.23724842
1086, 420200623, 0.569813, -0.3073833, -0.7376502, -0.19157296, 0.19758992, 0.12557527, -0.110733986
1087, 420217290, 0.57226247, -0.30989835, -0.7340648, -0.19397698, 0.025274845, -0.07356035, -0.15593052
1088, 420233957, 0.5743251, -0.31255695, -0.73066896, -0.19642137, -0.4784697, 0.24467248, -0.49693012
1089, 420250624, 0.5764984, -0.31510708, -0.7273544, -0.19827266, -0.33378485, 0.15254961, -0.10195446
1090, 420267291, 0.5787834, -0.31714728, -0.7241527, -0.20007439, -0.5539156, -0.29419234, -0.09135437
1091, 420283958, 0.58087176, -0.31888995, -0.7211351, -0.20214024, -0.8376003, -0.34592497, -0.33012486
1092, 420300625, 0.58304465, -0.32005462, -0.7184332, -0.20365961, -1.3553925, -0.7099263, -0.107037544
1093, 420317292, 0.5857915, -0.3196161, -0.71634173, -0.2038326, -0.96814615, -0.57626045, -0.068294525
1094, 420333959, 0.5886258, -0.3186173, -0.7145067, -0.20367165, 0.079060555, 0.43426076, -0.25254536
1095, 420350626, 0.5907495, -0.31912515, -0.7122437, -0.2046527, 0.1774058, 0.8604252, -0.28281116
1096, 420367293, 0.59223443, -0.32062715, -0.7098434, -0.20634536, -0.6392779, 0.6132542, -0.10387039
1097, 420383960, 0.59373456, -0.3215429, -0.7077839, -0.20767923, -1.7630577, -0.051770743, -0.054579735
1098, 420400627, 0.59568876, -0.3202348, -0.7068268, -0.20736337, -1.9428072, -0.13661134, -0.051013947
1099, 420417294, 0.59808654, -0.3173843, -0.70654976, -0.205782, -0.95286745, 0.13233666, 0.037555695
1100, 420433961, 0.600268, -0.31455055, -0.7064183, -0.20422722, -0.24617359, 0.5144124, -0.21234035
1101, 420450628, 0.6018903, -0.31308046, -0.7059046, -0.20348582, 0.103689, 0.502262, -0.205163
1102, 420467295, 0.60302484, -0.3125801, -0.7051527, -0.20350316, -0.26904926, 0.2647835, -0.21246433
1103, 420483962, 0.60398674, -0.3121314, -0.70449144, -0.20362948, -0.42017934, 0.16564512, -0.1521883
1104, 420500629, 0.6049057, -0.31153858, -0.7039161, -0.20379955, -0.25207344, -0.08322617, 0.05069065
1105, 420517296, 0.60587007, -0.31053886, -0.7035385, -0.20376445, -0.05550095, -0.01544251, -0.010889053
1106, 420533963, 0.6068874, -0.30960014, -0.70312494, -0.20359235, 0.1954813, 0.0066949953, 0.027789116
1107, 420550630, 0.60778993, -0.30927286, -0.70243466, -0.20378049, 0.17937273, 0.15494834, -0.022957802
1108, 420567297, 0.608592, -0.30910605, -0.70169157, -0.20419896, -0.013585118, 0.09874053, -0.06111908
1109, 420583964, 0.60933155, -0.30900836, -0.7009266, -0.20476763, 0.044867992, -0.054877907, 0.064920425
1110, 420600631, 0.610013, -0.30919996, -0.6999859, -0.20566565, 0.15605988, -0.23672123, -0.0088682175
1111, 420617298, 0.6106541, -0.30943963, -0.69902873, -0.20665523, 0.15926908, -0.31497076, -0.09863186
1112, 420633965, 0.6114695, -0.30949867, -0.69804966, -0.20746401, 0.11611766, -0.3825858, -0.061955452
1113, 420650632, 0.6124566, -0.30907616, -0.6972013, -0.2080337, 0.24934703, -0.14876497, -0.1994896
1114, 420667299, 0.61328083, -0.3091369, -0.6961297, -0.20910147, 0.4462673, -0.4457483, 0.4215908
1115, 420683966, 0.6141806, -0.30893978, -0.69499224, -0.21053067, 0.26788387, -0.8890915, 0.4297533
1116, 420700633, 0.615566, -0.30822334, -0.69377506, -0.21154675, 0.5776174, -0.7803801, -0.15210629
1117, 420717300, 0.616985, -0.30812594, -0.69212294, -0.2129615, 0.6384268, -0.6886131, -0.39893055
1118, 420733967, 0.6181467, -0.30871785, -0.69014716, -0.21513708, -0.24519683, -0.41327098, -0.35055733
1119, 420750634, 0.61931795, -0.3085156, -0.68869835, -0.21669555, -1.1193241, 0.28825897, -0.3585415
1120, 420767301, 0.6202632, -0.30820155, -0.68761075, -0.2178891, -0.87604785, 1.5538764, -0.02063942
1121, 420783968, 0.6203785, -0.3094527, -0.6862359, -0.22011067, -1.1450211, 2.440682, 0.43274212
1122, 420800635, 0.61963433, -0.31182984, -0.6849629, -0.222801, -1.2945602, 2.6093416, 0.048937798
1123, 420817302, 0.61831653, -0.31478918, -0.6839116, -0.22551377, -1.0392642, 1.905252, -0.4413147
1124, 420833969, 0.61694473, -0.3172889, -0.6833857, -0.22735417, -0.9486703, 0.7815098, -0.23519993
1125, 420850636, 0.61610836, -0.31810185, -0.6836566, -0.22767182, -0.89074606, 0.09251715, -0.13243198
1126, 420867303, 0.61574316, -0.31768733, -0.68444836, -0.22685815, -0.35638872, -0.15697092, 0.032865524
1127, 420883970, 0.6155323, -0.31700942, -0.6852409, -0.2259843, 0.15644878, -0.17538793, 0.28987694
1128, 420900637, 0.6151696, -0.3167709, -0.6858614, -0.22542377, 0.23038821, -0.23918132, 0.05430031
1129, 420917304, 0.614777, -0.31674957, -0.68635887, -0.22500984, 0.4171485, -0.4479128, -0.30332184
1130, 420933971, 0.61455286, -0.31674805, -0.68668175, -0.2246392, 0.49535522, -0.6007807, -0.23716068
1131, 420950638, 0.6146775, -0.31627512, -0.68701625, -0.22394088, 0.5077557, -0.57141334, -0.07783413
1132, 420967305, 0.6150818, -0.3154509, -0.68727547, -0.22319601, 0.6346686, -0.39507145, 0.24478436
1133, 420983972, 0.6154851, -0.31474474, -0.6873281, -0.22291888, 0.24678914, -0.1447072, 0.28905773
1134, 421000639, 0.6158477, -0.31397083, -0.6874199, -0.2227256, -0.1894773, 0.0981746, 0.035128593
1135, 421017306, 0.6160422, -0.3135535, -0.68739665, -0.22284767, -0.023038821, 0.3007673, -0.1014328
1136, 421033973, 0.6158715, -0.31396186, -0.68714815, -0.22351004, 0.03849385, 0.3006874, -0.19808674
1137, 421050640, 0.61551, -0.31478447, -0.6868035, -0.22440591, 8.095639E-4, 0.11360583, -0.0832386
1138, 421067307, 0.61525023, -0.31530598, -0.68658227, -0.22506201, -0.07744366, 0.026412638, -0.047070503
1139, 421083974, 0.61515856, -0.31549123, -0.6864693, -0.2253978, 0.01051405, 0.14498737, 0.011726379
1140, 421100641, 0.61512876, -0.31560796, -0.6863596, -0.22564939, -0.099976, 0.192312, 0.06295204
1141, 421117308, 0.61517733, -0.31563517, -0.6862592, -0.22578393, -0.0178037, 0.19827957, 0.005815506
1142, 421133975, 0.61520267, -0.31586412, -0.6860638, -0.22598888, 0.12914087, 0.1267352, -0.16229725
1143, 421150642, 0.61519486, -0.31614968, -0.685878, -0.2261746, 0.11727591, 0.009137433, -0.08200836
1144, 421167309, 0.61538786, -0.31610227, -0.68575454, -0.22609043, 0.10282087, -0.037987366, 0.016257286
1145, 421183976, 0.61573076, -0.3158112, -0.68566525, -0.22583443, 0.107043035, 0.07069849, 0.01004982
1146, 421200643, 0.6161315, -0.31556135, -0.68549913, -0.2255945, 0.15674159, -0.04768861, 0.15359879
1147, 421217310, 0.6165414, -0.3153393, -0.6852611, -0.2255086, 0.19506781, -0.061906382, -0.0021400452
1148, 421233977, 0.61686945, -0.31540674, -0.68487877, -0.22567828, 0.22302927, -0.044971924, -0.13240719
1149, 421250644, 0.6170581, -0.31583154, -0.68435013, -0.22617176, 0.09592684, 0.044194322, -0.12696362
1150, 421267311, 0.6171029, -0.31661117, -0.68368495, -0.22696935, -0.050454028, 0.19798666, -0.030127525
1151, 421283978, 0.6170025, -0.31764683, -0.6829632, -0.22796616, -0.16879028, 0.24153067, -0.11180973
1152, 421300645, 0.61679924, -0.31880936, -0.68224853, -0.22903031, -0.22691885, 0.20253101, -0.008636475
1153, 421317312, 0.61677027, -0.3194722, -0.6817706, -0.22960761, -0.30315644, 0.25876588, 0.05747032
1154, 421333979, 0.6170495, -0.31944743, -0.6815484, -0.22955182, -0.18746792, 0.39159995, -0.061151505
1155, 421350646, 0.61735106, -0.31935894, -0.6814244, -0.22923212, -0.13906038, 0.49325833, -0.123719215
1156, 421367313, 0.6175896, -0.31925505, -0.68140584, -0.22878912, -0.39997643, 0.5292491, -0.119072914
1157, 421383980, 0.61773914, -0.3191369, -0.68152833, -0.22818415, -0.53663135, 0.6666885, -0.048140526
1158, 421400647, 0.61773765, -0.31931922, -0.6816289, -0.22763239, -0.5787591, 0.7493932, 0.0717268
1159, 421417314, 0.61768156, -0.31942087, -0.6818536, -0.2269682, -0.62714607, 0.6270959, 0.21642685
1160, 421433981, 0.61779374, -0.3188018, -0.68243355, -0.22578648, -0.3473257, 0.66307646, 0.116223335
1161, 421450648, 0.61771667, -0.3185287, -0.68298405, -0.22471637, 0.015516716, 0.60384995, -0.17270947
1162, 421467315, 0.61709875, -0.31930992, -0.6833244, -0.22427055, -0.36826664, 0.32626185, -0.29353333
1163, 421483982, 0.6163104, -0.32017902, -0.6837567, -0.22388095, -0.6873591, 0.2845178, 0.039691925
1164, 421500649, 0.61550075, -0.3205092, -0.684555, -0.22319523, -0.8906638, 0.32120308, 0.03166008
1165, 421517316, 0.614584, -0.32087773, -0.6854806, -0.2223495, -0.19899939, -0.1825808, 0.14245892
1166, 421533983, 0.61369365, -0.32129455, -0.6862926, -0.22170088, 0.5660063, -0.17821325, -0.071754456
1167, 421550650, 0.6126302, -0.32252347, -0.68673676, -0.22148232, 0.89179343, -0.056580294, -0.2336731
1168, 421567317, 0.61145395, -0.3243255, -0.68684983, -0.22175051, 0.5726411, -0.041667175, 0.03341961
1169, 421583984, 0.61020666, -0.32614696, -0.68691075, -0.2223258, -0.2075358, 0.04425132, -0.2418871
1170, 421600651, 0.60890424, -0.32765314, -0.68725044, -0.22263162, -0.8521295, -0.45020986, -0.13579178
1171, 421617318, 0.6078808, -0.32820782, -0.68798923, -0.22232941, -0.96812266, -0.75682604, 0.059339523
1172, 421633985, 0.607044, -0.32807806, -0.6890281, -0.22158885, -0.39471674, -0.90122986, -0.02071762
1173, 421650652, 0.60657084, -0.32737648, -0.6901316, -0.22048558, 0.27297726, -0.6401893, 0.07047081
1174, 421667319, 0.6061102, -0.32691437, -0.6909582, -0.2198482, 0.5653416, -0.089512914, -0.08081436
