sep=,
DeviceTag:,47,,,,,,,,,,,,,,,,,
FirmwareVersion:,1.6.0,,,,,,,,,,,,,,,,,
AppVersion:,2020.4,,,,,,,,,,,,,,,,,
SyncStatus:,Synced,,,,,,,,,,,,,,,,,
OutputRate:,60Hz,,,,,,,,,,,,,,,,,
FilterProfile:,General,,,,,,,,,,,,,,,,,
Measurement Mode:,Sensor fusion Mode - Complete (Quaternion),,,,,,,,,,,,,,,,,
StartTime:,2021-03-24 15:22:59.036 +0800,,,,,,,,,,,,,,,,,
© Xsens Technologies B. V. 2005-2021,,,,,,,,,,,,,,,,,,,

PacketCounter,SampleTimeFine,Quat_W,Quat_X,Quat_Y,Quat_Z,FreeAcc_X,FreeAcc_Y,FreeAcc_Z
1, 694172537, -0.22617987, -0.101246744, 0.07428831, -0.9659572, -0.018518928, -0.015180707, 0.052062035
2, 694189204, -0.2261471, -0.10127202, 0.074322715, -0.96595955, -0.012382632, -0.020710139, 0.059515953
3, 694205871, -0.22611794, -0.10129533, 0.07433946, -0.96596265, -0.02697184, -0.012652147, 0.06997013
4, 694222538, -0.22609508, -0.10131379, 0.074354656, -0.9659649, -0.019363932, -0.030215362, 0.0587883
5, 694239205, -0.22607124, -0.10131882, 0.07436554, -0.96596915, -0.032507543, -0.031771317, 0.062698364
6, 694255872, -0.22604875, -0.10133521, 0.07438446, -0.9659711, -0.03815397, -0.026400177, 0.062469482
7, 694272539, -0.2260187, -0.10135049, 0.07441654, -0.96597403, -0.03564603, 0.0030260861, 0.07736683
8, 694289206, -0.2259743, -0.101362966, 0.07444707, -0.9659809, -0.043522444, 0.004023443, 0.07065296
9, 694305873, -0.22593187, -0.101387344, 0.07447925, -0.9659858, -0.021969438, 0.035368327, 0.070757866
10, 694322540, -0.22587027, -0.10140174, 0.07446002, -0.96600014, -0.03191979, 0.037554912, 0.06795502
11, 694339207, -0.22580458, -0.10142683, 0.07441687, -0.96601623, -0.05478082, 0.03130342, 0.08146858
12, 694355874, -0.225746, -0.101453036, 0.07437203, -0.9660306, -0.04171773, 0.014666585, 0.05945301
13, 694372541, -0.22568499, -0.1014767, 0.074336454, -0.96604514, -0.06533981, 0.021961546, 0.06844807
14, 694389208, -0.22562551, -0.10149534, 0.07428727, -0.9660609, -0.06913601, 0.00797138, 0.07565594
15, 694405875, -0.22556828, -0.10150894, 0.074227825, -0.9660773, -0.06449705, 0.021196306, 0.071157455
16, 694422542, -0.22550334, -0.101520926, 0.07416771, -0.96609586, -0.060944956, -0.024301069, 0.07567406
17, 694439209, -0.22545634, -0.10153087, 0.07412107, -0.96610945, -0.05533422, -0.024647668, 0.06858444
18, 694455876, -0.22542118, -0.10153731, 0.074097976, -0.9661186, -0.044850737, -0.04862685, 0.0578804
19, 694472543, -0.22539514, -0.10153933, 0.07407906, -0.966126, -0.037184242, -0.033323575, 0.06794739
20, 694489210, -0.22536263, -0.10153645, 0.074088305, -0.9661332, -0.038530882, -0.034774635, 0.06368446
21, 694505877, -0.22533478, -0.10153631, 0.074089475, -0.9661396, -0.02534377, -0.017832268, 0.046839714
22, 694522544, -0.22530492, -0.10154867, 0.07407261, -0.9661465, -0.017671507, -0.023432847, 0.06349659
23, 694539211, -0.22528611, -0.101548515, 0.07408514, -0.96615, -0.026763218, -0.023934409, 0.06261444
24, 694555878, -0.22527047, -0.10155639, 0.0741101, -0.9661509, -0.050497487, 0.0037615832, 0.058893204
25, 694572545, -0.22523047, -0.101560935, 0.074118964, -0.96615905, -0.021134323, 0.026526518, 0.057933807
26, 694589212, -0.22520007, -0.10156455, 0.07411273, -0.96616626, -0.03451811, 0.011732893, 0.06347847
27, 694605879, -0.22517295, -0.101571366, 0.07408155, -0.9661742, -0.035914008, 0.01509802, 0.06162262
28, 694622546, -0.22513439, -0.10157541, 0.07405029, -0.9661852, -0.041123267, 0.013879442, 0.06925869
29, 694639213, -0.22507298, -0.10158917, 0.074021555, -0.96620035, -0.03983248, -0.0077355597, 0.065273285
30, 694655880, -0.22501397, -0.10159829, 0.0740161, -0.9662134, -0.030625088, -0.006729877, 0.047037125
31, 694672547, -0.22496217, -0.10159463, 0.07399389, -0.96622753, -0.06317007, 0.0061685666, 0.07773304
32, 694689214, -0.22491738, -0.101591714, 0.073967785, -0.9662403, -0.053518403, -0.006488693, 0.06650543
33, 694705881, -0.2248677, -0.10158087, 0.07394443, -0.9662548, -0.06804517, -0.009576874, 0.07064724
34, 694722548, -0.22483069, -0.10156886, 0.07391852, -0.96626663, -0.05949173, -0.01120958, 0.06152439
35, 694739215, -0.22480696, -0.10156484, 0.07389343, -0.9662746, -0.04018654, -0.04225046, 0.06292534
36, 694755882, -0.22479613, -0.10154746, 0.07388817, -0.9662793, -0.027239272, -0.03182798, 0.061306953
37, 694772549, -0.2247816, -0.10153435, 0.07388445, -0.96628433, -0.036852803, -0.03148437, 0.064499855
38, 694789216, -0.22478633, -0.10153182, 0.07388649, -0.96628344, -0.018716123, -0.040500227, 0.05499935
39, 694805883, -0.22477873, -0.10153462, 0.07387061, -0.96628594, -0.030737475, -0.020524915, 0.06666756
40, 694822550, -0.2247566, -0.101531774, 0.07387771, -0.9662909, -0.028215773, 0.009271261, 0.05794525
41, 694839217, -0.2247347, -0.1015126, 0.0738684, -0.96629864, -0.044803757, 0.013168098, 0.070334435
42, 694855884, -0.22468807, -0.101519175, 0.07385587, -0.9663098, -0.041049384, -8.896095E-4, 0.06514168
43, 694872551, -0.22464235, -0.10151999, 0.073843986, -0.9663212, -0.033510376, 0.008943424, 0.07518196
44, 694889218, -0.22458768, -0.101515345, 0.07383986, -0.9663347, -0.06594994, 0.0057675983, 0.07496357
45, 694905885, -0.22453521, -0.101527125, 0.07381824, -0.96634734, -0.07019102, -0.010209555, 0.059835434
46, 694922552, -0.2244835, -0.10152343, 0.073803335, -0.9663609, -0.039152402, -0.035750058, 0.07231617
47, 694939219, -0.22443163, -0.10153478, 0.0738208, -0.96637046, -0.034804206, -0.028747188, 0.08326912
48, 694955886, -0.2243869, -0.10155565, 0.07385875, -0.96637577, -0.04876448, -0.025711771, 0.07195377
49, 694972553, -0.22434445, -0.10156967, 0.0738815, -0.9663824, -0.03220485, -0.019502357, 0.059786797
50, 694989220, -0.22431488, -0.101591855, 0.07390096, -0.9663854, -0.047019094, -0.010050931, 0.049782753
51, 695005887, -0.2243004, -0.10160035, 0.07390984, -0.9663873, -0.049595486, -0.00659366, 0.061823845
52, 695022554, -0.22429591, -0.101611875, 0.07390764, -0.96638733, -0.061790742, -0.020355925, 0.060526848
53, 695039221, -0.22429411, -0.10160575, 0.073925406, -0.96638703, -0.03888709, -0.033760082, 0.06420326
54, 695055888, -0.22429699, -0.10159673, 0.07393437, -0.96638656, -0.041180685, -0.002808552, 0.05837345
55, 695072555, -0.2242955, -0.10159393, 0.07392911, -0.9663876, -0.028357187, 0.0036491423, 0.06873989
56, 695089222, -0.22427723, -0.10161204, 0.07392065, -0.9663906, -0.032708146, -0.0010309814, 0.065683365
57, 695105889, -0.22424059, -0.10162789, 0.07391649, -0.96639764, -0.02523816, 5.466987E-4, 0.06387615
58, 695122556, -0.22420001, -0.101650365, 0.07389115, -0.96640676, -0.029531552, 0.0025128305, 0.06795502
59, 695139223, -0.22417243, -0.10167168, 0.07386298, -0.966413, -0.044156883, 0.02227952, 0.06392765
60, 695155890, -0.22413926, -0.10168164, 0.07385081, -0.96642053, -0.073257476, 0.0023324555, 0.050715446
61, 695172557, -0.2240847, -0.10167964, 0.07382229, -0.9664356, -0.07414256, 0.0077920808, 0.06020546
62, 695189224, -0.22403906, -0.10167396, 0.07378965, -0.96644926, -0.064630404, 0.018104577, 0.0702095
63, 695205891, -0.22398679, -0.10167131, 0.07373007, -0.96646625, -0.07415936, -0.011985645, 0.06305599
64, 695222558, -0.22395588, -0.1016756, 0.07367767, -0.966477, -0.043018978, -0.022253508, 0.05463314
65, 695239225, -0.22391313, -0.10166268, 0.073618606, -0.9664927, -0.04994415, -0.009289492, 0.06904125
66, 695255892, -0.22387014, -0.10164756, 0.07355049, -0.96650946, -0.06321958, 0.0033195305, 0.048425674
67, 695272559, -0.2238151, -0.10164085, 0.0734947, -0.96652716, -0.046293877, -0.00772634, 0.07499027
68, 695289226, -0.22374398, -0.101669416, 0.07341781, -0.96654654, 0.0073820464, -0.040418796, 0.080527306
69, 695305893, -0.22367638, -0.10172337, 0.0733327, -0.9665628, 0.061156876, -0.03746742, 0.06999874
70, 695322560, -0.22361824, -0.10178669, 0.07324236, -0.9665765, 0.053692967, -0.039685704, 0.048748016
71, 695339227, -0.22356826, -0.101848975, 0.07317888, -0.96658635, 0.052981485, -0.07132187, 0.04929161
72, 695355894, -0.22351338, -0.1019056, 0.07319206, -0.9665921, 0.06255188, -0.028307749, 0.07069683
73, 695372561, -0.2234184, -0.102005176, 0.07319018, -0.96660376, 0.046896383, -0.0043944186, 0.07163906
74, 695389228, -0.22329368, -0.10211796, 0.073154435, -0.96662325, 0.0353917, 0.04393094, 0.05352211
75, 695405895, -0.22316751, -0.10222296, 0.073073424, -0.9666474, 0.004772281, 0.044968586, 0.052509308
76, 695422562, -0.22306539, -0.10231464, 0.07296454, -0.9666695, -0.042293694, 0.046935093, 0.060076714
77, 695439229, -0.22295158, -0.10238908, 0.07288248, -0.9666941, -0.1048632, 0.020356847, 0.06876373
78, 695455896, -0.22282347, -0.102438875, 0.07282737, -0.96672255, -0.13156305, 0.030217946, 0.08753681
79, 695472563, -0.22269669, -0.10247672, 0.07276141, -0.96675265, -0.14583191, 0.08999363, 0.07596588
80, 695489230, -0.222576, -0.102514796, 0.07262256, -0.9667869, -0.12414014, 0.05676102, 0.09011459
81, 695505897, -0.22245403, -0.10258555, 0.072443925, -0.9668209, -0.13024424, 0.077127516, 0.09684658
82, 695522564, -0.22230491, -0.10266676, 0.072237454, -0.9668621, -0.13406348, 0.03845289, 0.077632904
83, 695539231, -0.22214927, -0.102712445, 0.072023794, -0.9669089, -0.11053993, 0.029329691, 0.10295391
84, 695555898, -0.22200438, -0.10275157, 0.07179693, -0.9669548, -0.12791292, 0.076464966, 0.07949448
85, 695572565, -0.2218463, -0.10277489, 0.07149239, -0.9670112, -0.098093525, 0.019407826, 0.06180954
86, 695589232, -0.22163755, -0.10282485, 0.07122558, -0.96707344, -0.05263075, -0.039211743, 0.053913116
87, 695605899, -0.22142404, -0.10288353, 0.071017675, -0.96713144, -0.013357037, -0.0901459, 0.06893349
88, 695622566, -0.22124477, -0.10297439, 0.070830435, -0.96717656, 0.06119497, -0.12380338, 0.069135666
89, 695639233, -0.22111948, -0.103061974, 0.07069962, -0.9672054, 0.04166495, -0.109781556, 0.018603325
90, 695655900, -0.2210267, -0.10311059, 0.070599645, -0.9672287, -0.020178359, -0.121921875, 0.030031204
91, 695672567, -0.220967, -0.10312354, 0.070546955, -0.96724486, 0.005175247, -0.118900806, 0.072589874
92, 695689234, -0.22093028, -0.10317357, 0.07053093, -0.96724904, 0.024460265, -0.11738844, 0.056651115
93, 695705901, -0.22091791, -0.10323365, 0.07053685, -0.96724504, -0.0071491594, -0.06821955, 0.047999382
94, 695722568, -0.22092736, -0.10328841, 0.070517175, -0.9672384, -0.028317038, -0.05793263, 0.049453735
95, 695739235, -0.22097097, -0.103339605, 0.07053963, -0.9672214, -0.016514618, -0.10860352, 0.059671402
96, 695755902, -0.22104341, -0.10339568, 0.07065689, -0.96719027, -0.021909187, -0.052603424, 0.07513142
97, 695772569, -0.2211174, -0.1034689, 0.07081204, -0.9671542, -0.073259234, -0.004106324, 0.06491089
98, 695789236, -0.22121714, -0.10351196, 0.07094493, -0.967117, -0.08296667, 0.03457677, 0.06718826
99, 695805903, -0.22131406, -0.10354192, 0.071060106, -0.9670832, -0.0710636, 0.051346753, 0.07761288
100, 695822570, -0.22138023, -0.10358896, 0.07112355, -0.96705836, -0.08404059, 0.090335906, 0.09340286
101, 695839237, -0.22140543, -0.10365519, 0.07116162, -0.9670427, -0.09144052, 0.08277628, 0.07579708
102, 695855904, -0.22139698, -0.103710115, 0.07115983, -0.96703887, -0.056259595, 0.06894062, 0.07046318
103, 695872571, -0.22139846, -0.103769325, 0.07113852, -0.9670337, -0.103593335, 0.06302459, 0.071502686
104, 695889238, -0.22137237, -0.103803776, 0.07110757, -0.9670383, -0.10958541, 0.050147075, 0.07921028
105, 695905905, -0.221329, -0.10383937, 0.071063735, -0.9670477, -0.08519719, 0.025749112, 0.08095074
106, 695922572, -0.22129926, -0.10385911, 0.07101546, -0.9670558, -0.11775674, 0.040862765, 0.06411266
107, 695939239, -0.22129612, -0.10386536, 0.07097069, -0.96705914, -0.10242657, 5.889287E-4, 0.05046749
108, 695955906, -0.2212965, -0.103857554, 0.07090285, -0.9670649, -0.063770704, -0.032130044, 0.07371521
109, 695972573, -0.22132137, -0.10385072, 0.07083266, -0.967065, -0.05290894, -0.030651826, 0.07270813
110, 695989240, -0.221356, -0.103839554, 0.07079279, -0.9670613, -0.034068905, -0.066085964, 0.05230713
111, 696005907, -0.22139308, -0.103824906, 0.07077204, -0.9670558, -0.037470423, -0.05415054, 0.041923523
112, 696022574, -0.22144057, -0.10380823, 0.07078159, -0.96704614, -0.022307528, -0.052037183, 0.0755682
113, 696039241, -0.22148871, -0.10380129, 0.07079804, -0.96703464, -0.023973232, -0.037359882, 0.07832527
114, 696055908, -0.22153379, -0.10379673, 0.07083224, -0.9670222, -0.012619834, -0.02381909, 0.07558441
115, 696072575, -0.22157949, -0.103771776, 0.07084498, -0.9670136, -0.03577659, 0.0034860477, 0.07410526
116, 696089242, -0.22163251, -0.10376052, 0.07088417, -0.96699965, -0.025656117, -0.0318914, 0.033963203
117, 696105909, -0.22167437, -0.10373832, 0.070942976, -0.96698827, -0.033424072, -0.029755665, 0.047184944
118, 696122576, -0.2217137, -0.10371817, 0.07101704, -0.9669759, -0.011207708, -0.026353072, 0.059283257
119, 696139243, -0.22173634, -0.1037028, 0.07106553, -0.9669688, 0.0020708474, -0.026229454, 0.06892586
120, 696155910, -0.2217524, -0.10368527, 0.071101286, -0.96696436, 0.01764403, -0.025243022, 0.05657482
121, 696172577, -0.22176123, -0.10369011, 0.07113499, -0.96695936, 0.020902218, -0.020286636, 0.05708599
122, 696189244, -0.2217738, -0.10369934, 0.07117831, -0.96695226, 0.0112098735, -0.040661227, 0.04408264
123, 696205911, -0.22178584, -0.10371819, 0.071240366, -0.9669429, 0.013682947, -0.029049685, 0.053004265
124, 696222578, -0.22180644, -0.103722356, 0.07129414, -0.9669338, -0.014523299, -0.03565251, 0.06604576
125, 696239245, -0.22183067, -0.1037336, 0.07134871, -0.966923, -0.03591233, -0.005703394, 0.069129944
126, 696255912, -0.2218327, -0.10374374, 0.07141892, -0.96691626, -0.046151135, -0.001397864, 0.054473877
127, 696272579, -0.22180003, -0.10374754, 0.071472764, -0.9669194, -0.035513148, 0.025738075, 0.053800583
128, 696289246, -0.2217845, -0.10373928, 0.07152496, -0.96691996, -0.039553385, 0.02035531, 0.06888008
129, 696305913, -0.22176132, -0.10374397, 0.07158774, -0.96692014, -0.058365826, 0.024768434, 0.07734871
130, 696322580, -0.22173305, -0.10373886, 0.07164426, -0.96692294, -0.062237617, 0.0207768, 0.06614208
131, 696339247, -0.22169232, -0.10372649, 0.071685955, -0.9669306, -0.053351287, 0.008089884, 0.062192917
132, 696355914, -0.2216534, -0.103712395, 0.07170802, -0.96693933, -0.049232304, 0.013380198, 0.06652355
133, 696372581, -0.22162145, -0.10369549, 0.071713276, -0.96694815, -0.05194265, 0.014906079, 0.06756306
134, 696389248, -0.22157079, -0.103681214, 0.07171285, -0.9669613, -0.040961307, -0.0041656666, 0.068481445
135, 696405915, -0.22152619, -0.103664905, 0.07173058, -0.966972, -0.047025938, 0.015248864, 0.06317806
136, 696422582, -0.22148189, -0.103649855, 0.07174793, -0.9669825, -0.035242084, 0.024076397, 0.055642128
137, 696439249, -0.2214547, -0.103633344, 0.0717438, -0.96699077, -0.021618927, 0.008765256, 0.074459076
138, 696455916, -0.22141604, -0.10362612, 0.07172132, -0.967002, -0.023551784, -0.0010894301, 0.056016922
139, 696472583, -0.22134998, -0.10362348, 0.07168439, -0.96702015, -0.0066087893, -0.010059605, 0.06035614
140, 696489250, -0.22127567, -0.103631675, 0.07166318, -0.9670378, -0.002392301, -0.014972965, 0.08018875
141, 696505917, -0.22118886, -0.10364979, 0.07165812, -0.96705616, -0.025118595, -0.00527017, 0.05798912
142, 696522584, -0.2211001, -0.103682436, 0.07165003, -0.9670735, -0.02957184, -0.010943306, 0.067601204
143, 696539251, -0.22103556, -0.10370606, 0.071640775, -0.9670865, -0.044211198, -0.007898948, 0.07739639
144, 696555918, -0.2209569, -0.103754096, 0.07165265, -0.96709853, -0.06429646, -0.018931491, 0.06053257
145, 696572585, -0.2209091, -0.103792, 0.07165497, -0.9671051, -0.06214247, -0.022184303, 0.059373856
146, 696589252, -0.22089227, -0.103818126, 0.071661055, -0.9671057, -0.06260604, -0.06296377, 0.056947708
147, 696605919, -0.22089626, -0.10382562, 0.07169354, -0.9671015, -0.047707416, -0.07143457, 0.047968864
148, 696622586, -0.2209247, -0.10382786, 0.07171486, -0.9670933, -0.049388416, -0.058193736, 0.078876495
149, 696639253, -0.22096863, -0.10384414, 0.07176516, -0.9670776, -0.0547323, -0.052114796, 0.08609295
150, 696655920, -0.22102125, -0.103853576, 0.07183248, -0.9670597, -0.018185182, -0.05537606, 0.06576061
151, 696672587, -0.22106884, -0.10386261, 0.07188364, -0.967044, 0.029896716, -0.028179353, 0.061990738
152, 696689254, -0.22107282, -0.10388747, 0.07194041, -0.9670363, 0.03898207, 0.034400836, 0.07527447
153, 696705921, -0.221077, -0.10394156, 0.071982965, -0.9670263, 0.022340428, 0.0739522, 0.079582214
154, 696722588, -0.2210402, -0.104026034, 0.07195578, -0.96702754, 0.0076811067, 0.11364506, 0.07484722
155, 696739255, -0.22093359, -0.10413198, 0.07187283, -0.9670468, 0.02435812, 0.16121787, 0.05818653
156, 696755922, -0.22077137, -0.10426064, 0.0717038, -0.96708256, 0.0053498107, 0.17978345, 0.05038452
157, 696772589, -0.22055303, -0.10440338, 0.071469896, -0.9671342, -0.054108813, 0.12176033, 0.058546066
158, 696789256, -0.22032604, -0.10451288, 0.07121266, -0.9671932, -0.15074365, 0.052686755, 0.058846474
159, 696805923, -0.2201095, -0.10460228, 0.07096086, -0.96725124, -0.21355376, -0.031199727, 0.053401947
160, 696822590, -0.21992153, -0.10465781, 0.07074667, -0.9673037, -0.201482, -0.07168108, 0.060818672
161, 696839257, -0.21979927, -0.10465442, 0.07057949, -0.9673441, -0.19601668, -0.12822048, 0.0806036
162, 696855924, -0.21980913, -0.104612865, 0.07047721, -0.9673538, -0.19405201, -0.2246958, 0.07144642
163, 696872591, -0.2199096, -0.10452627, 0.070498206, -0.96733886, -0.20590225, -0.26411077, 0.056113243
164, 696889258, -0.22011274, -0.10438943, 0.070635766, -0.9672974, -0.1653334, -0.2509549, 0.08160496
165, 696905925, -0.2203883, -0.10422035, 0.0708742, -0.9672354, -0.1511453, -0.24085554, 0.064582825
166, 696922592, -0.22071199, -0.104026414, 0.071209826, -0.9671577, -0.12265339, -0.2099311, 0.07658291
167, 696939259, -0.2210397, -0.10380968, 0.07161634, -0.9670762, -0.08430904, -0.1355604, 0.07480526
168, 696955926, -0.22136961, -0.10358482, 0.07207576, -0.9669907, -0.033775236, -0.063020766, 0.068302155
169, 696972593, -0.2217002, -0.10337102, 0.07253133, -0.96690387, 0.051896077, 0.008267744, 0.06119919
170, 696989260, -0.22200765, -0.10318563, 0.072929695, -0.96682304, 0.07099026, 0.049852245, 0.058156967
171, 697005927, -0.22226307, -0.103008576, 0.073300324, -0.96675533, 0.11333283, 0.113482, 0.0707283
172, 697022594, -0.22242795, -0.10286524, 0.07364288, -0.96670663, 0.139184, 0.16148384, 0.072182655
173, 697039261, -0.22251791, -0.10276571, 0.073935375, -0.96667403, 0.18170883, 0.23351482, 0.063887596
174, 697055928, -0.2225002, -0.10271762, 0.0741053, -0.9666703, 0.19397119, 0.26184922, 0.07802963
175, 697072595, -0.22237118, -0.10271882, 0.07414579, -0.96669674, 0.16942199, 0.27864668, 0.07665825
176, 697089262, -0.22213456, -0.10277391, 0.07405471, -0.9667523, 0.14313634, 0.24142313, 0.06863403
177, 697105929, -0.22180626, -0.102865495, 0.07389824, -0.96682984, 0.099867, 0.17842251, 0.06652355
178, 697122596, -0.22145715, -0.10298103, 0.073719904, -0.9669112, 0.07236285, 0.13299638, 0.07380962
179, 697139263, -0.221078, -0.10311792, 0.07351537, -0.96699905, 0.05253496, 0.09289104, 0.06874657
180, 697155930, -0.22068416, -0.10327799, 0.073253036, -0.96709174, 0.03772196, 0.06759395, 0.081175804
181, 697172597, -0.22032289, -0.10345663, 0.072945654, -0.9671782, 0.004054106, 0.02785315, 0.08073521
182, 697189264, -0.22000988, -0.10364702, 0.07265345, -0.9672513, -0.046981584, 0.02684881, 0.059150696
183, 697205931, -0.21973348, -0.10383998, 0.072340325, -0.96731675, -0.060629774, 0.033598285, 0.062044144
184, 697222598, -0.21946996, -0.10402778, 0.07199237, -0.9673824, -0.048541315, -0.025595168, 0.063061714
185, 697239265, -0.21926014, -0.104199804, 0.07167813, -0.96743476, -0.060492426, -0.05899306, 0.04870987
186, 697255932, -0.21909863, -0.10437543, 0.07144746, -0.9674695, -0.04010222, -0.062353704, 0.06844711
187, 697272599, -0.21897331, -0.10455535, 0.07122011, -0.96749526, 0.015420857, 0.0029588924, 0.072683334
188, 697289266, -0.21886759, -0.10475866, 0.07095136, -0.9675167, 0.01436297, 0.06641009, 0.067956924
189, 697305933, -0.21873781, -0.105013445, 0.07058398, -0.96754545, -0.027916614, 0.06032792, 0.07542515
190, 697322600, -0.2184407, -0.10526937, 0.07004895, -0.96762365, -0.239188, 0.009168208, 0.06979942
191, 697339267, -0.21797088, -0.10545975, 0.06962423, -0.9677395, -0.23692918, -0.18570878, 0.063093185
192, 697355934, -0.21748242, -0.10565211, 0.06952244, -0.9678357, -0.114683464, -0.22188103, 0.11780453
193, 697372601, -0.2171852, -0.10588428, 0.06946974, -0.9678808, -0.1505065, -0.19215561, 0.063046455
194, 697389268, -0.21700996, -0.10598032, 0.06939646, -0.9679149, -0.21540216, -0.22989623, 0.013531685
195, 697405935, -0.21692641, -0.105991565, 0.0693766, -0.9679339, -0.23499095, -0.30295095, 0.05089569
196, 697422602, -0.21696903, -0.10591016, 0.069442615, -0.9679284, -0.34885725, -0.37423366, 0.0712738
197, 697439269, -0.21712038, -0.10573075, 0.06983274, -0.96788615, -0.3579531, -0.43326604, 0.08347607
198, 697455936, -0.2173719, -0.10552787, 0.07048546, -0.96780443, -0.33542332, -0.33967963, 0.07072449
199, 697472603, -0.21769382, -0.1052692, 0.07113941, -0.9677124, -0.25599173, -0.17145094, 0.07265282
200, 697489270, -0.21808374, -0.10497474, 0.0716661, -0.96761775, -0.18931487, -0.08245622, 0.07319832
201, 697505937, -0.2185534, -0.104646705, 0.072140716, -0.96751195, -0.2079978, -0.11057869, 0.055882454
202, 697522604, -0.2190918, -0.10425157, 0.07273573, -0.9673884, -0.22332379, -0.112565905, 0.05422592
203, 697539271, -0.21968421, -0.10380736, 0.07359498, -0.9672367, -0.17119224, -0.08935792, 0.08295441
204, 697555938, -0.22031234, -0.10337184, 0.07451702, -0.9670699, -0.066880815, 0.051645447, 0.081254005
205, 697572605, -0.22095513, -0.102967925, 0.075287774, -0.9669065, 0.064645045, 0.1826186, 0.079333305
206, 697589272, -0.22156124, -0.10262272, 0.07583211, -0.96676207, 0.16577375, 0.27855286, 0.06908512
207, 697605939, -0.22209817, -0.10232028, 0.07624981, -0.9666382, 0.17808923, 0.31289926, 0.073111534
208, 697622606, -0.22253737, -0.102067515, 0.07661016, -0.9665353, 0.22764005, 0.3407729, 0.0828495
209, 697639273, -0.22281703, -0.101892, 0.076902345, -0.9664663, 0.25376832, 0.38837147, 0.07060051
210, 697655940, -0.22290058, -0.10181607, 0.076989956, -0.96644795, 0.28236526, 0.37307563, 0.05945778
211, 697672607, -0.22278158, -0.10181183, 0.0768634, -0.9664859, 0.30260956, 0.33114284, 0.05396557
212, 697689274, -0.22249979, -0.10185291, 0.07657943, -0.9665691, 0.27255952, 0.25299257, 0.052449226
213, 697705941, -0.2220957, -0.10191291, 0.076258555, -0.966681, 0.20659177, 0.17520356, 0.060753822
214, 697722608, -0.22165683, -0.10199816, 0.07601609, -0.9667918, 0.17143351, 0.11501335, 0.074131966
215, 697739275, -0.2212177, -0.10208764, 0.07577897, -0.96690154, 0.1592449, 0.14310157, 0.06528568
216, 697755942, -0.22077988, -0.102257006, 0.07538789, -0.96701425, 0.17455481, 0.10940755, 0.0544796
217, 697772609, -0.22032748, -0.102491185, 0.07480407, -0.9671381, 0.09846229, 0.03896683, 0.047828674
218, 697789276, -0.21985702, -0.10271709, 0.074180946, -0.96726924, -0.047199327, -0.07745371, 0.045710564
219, 697805943, -0.21936804, -0.10291553, 0.07368368, -0.96739703, -0.11230659, -0.1875472, 0.058372498
220, 697822610, -0.21891458, -0.10306491, 0.07335375, -0.96750885, -0.1312404, -0.23319381, 0.062257767
221, 697839277, -0.21854784, -0.10319294, 0.073188186, -0.9675907, -0.098175734, -0.21625634, 0.07529831
222, 697855944, -0.21830718, -0.10330106, 0.073057786, -0.9676433, -0.095676035, -0.1752143, 0.06242466
223, 697872611, -0.21817544, -0.10336118, 0.0729353, -0.96767586, -0.13744336, -0.16183273, 0.07374573
224, 697889278, -0.2181401, -0.10341521, 0.07285461, -0.96768415, -0.19234684, -0.1169568, 0.07546234
225, 697905945, -0.21814221, -0.103435054, 0.07278556, -0.96768683, -0.19632487, -0.10080958, 0.09810543
226, 697922612, -0.21817237, -0.103453636, 0.07271879, -0.9676831, -0.22296545, -0.10451582, 0.08095932
227, 697939279, -0.21819565, -0.103451066, 0.07271038, -0.9676786, -0.20157453, -0.08942544, 0.06840229
228, 697955946, -0.21824482, -0.10341779, 0.07276621, -0.967667, -0.18627495, -0.07329374, 0.08035946
229, 697972613, -0.2183203, -0.10334111, 0.07284723, -0.967652, -0.13861027, -0.05934752, 0.05929184
230, 697989280, -0.21841891, -0.103240706, 0.0729759, -0.9676308, -0.1019071, -0.054812167, 0.06933117
231, 698005947, -0.21851781, -0.10313409, 0.073151216, -0.9676066, -0.056346457, -0.020085713, 0.053153038
232, 698022614, -0.21861392, -0.103022456, 0.07330473, -0.96758515, -0.057544764, 0.04286537, 0.077664375
233, 698039281, -0.21867944, -0.102936685, 0.073418, -0.9675709, -0.056916304, 0.063097596, 0.06963062
234, 698055948, -0.21868072, -0.102872655, 0.07345341, -0.9675748, -0.07094279, 0.03623226, 0.06384182
235, 698072615, -0.2186451, -0.10280038, 0.07347474, -0.96758884, -0.06547811, 0.0055476474, 0.07858372
236, 698089282, -0.21863581, -0.10271236, 0.073523946, -0.96759653, -0.06430781, 0.022917524, 0.073373795
237, 698105949, -0.21864377, -0.1026154, 0.07361291, -0.96759826, -0.08083138, 0.024385557, 0.0616827
238, 698122616, -0.21865803, -0.102512464, 0.073718786, -0.96759796, -0.08649445, -0.051270965, 0.051537514
239, 698139283, -0.21869552, -0.10238435, 0.07384162, -0.9675937, -0.03378239, -0.10201368, 0.049934387
240, 698155950, -0.21876127, -0.1022596, 0.0739704, -0.96758217, -0.031273793, -0.10777609, 0.054138184
241, 698172617, -0.21887442, -0.102106616, 0.074132875, -0.9675603, -0.042514414, -0.11369901, 0.051127434
242, 698189284, -0.21901296, -0.10192226, 0.074355416, -0.9675312, -0.027810013, -0.08955795, 0.041563034
243, 698205951, -0.21916209, -0.10173475, 0.0746016, -0.96749836, -0.03252355, -0.045066148, 0.05820465
244, 698222618, -0.21928813, -0.10154901, 0.07481842, -0.9674726, -0.010276274, -0.027917104, 0.076319695
245, 698239285, -0.2194025, -0.101389475, 0.07501262, -0.9674483, -0.026585791, -0.021686135, 0.06779575
246, 698255952, -0.2195166, -0.10122645, 0.07520948, -0.9674242, 0.0011997616, -0.04245957, 0.065823555
247, 698272619, -0.2196186, -0.101055056, 0.075445764, -0.96740055, 0.025273113, -0.0029607643, 0.05227089
248, 698289286, -0.2196843, -0.100906625, 0.0757053, -0.9673808, 0.03750232, 0.043709844, 0.064538956
249, 698305953, -0.21967678, -0.10077937, 0.075914375, -0.9673794, 0.06166446, 0.086973935, 0.064528465
250, 698322620, -0.21962613, -0.10069675, 0.07606853, -0.9673874, 0.07759705, 0.10931583, 0.07671833
251, 698339287, -0.2195424, -0.10065944, 0.076123156, -0.967406, 0.054886427, 0.13509782, 0.067993164
252, 698355954, -0.21942474, -0.100641824, 0.076102585, -0.9674361, 0.035150807, 0.12006332, 0.077747345
253, 698372621, -0.21927434, -0.10064571, 0.07606393, -0.96747285, 0.018259332, 0.09614555, 0.0701561
254, 698389288, -0.21911195, -0.100647755, 0.0760146, -0.9675133, -0.0028690123, 0.08422378, 0.07002354
255, 698405955, -0.21895035, -0.10063343, 0.07597273, -0.9675547, -0.0016063597, 0.075406775, 0.06082344
256, 698422622, -0.21879582, -0.10063596, 0.07589794, -0.9675953, -0.0011619042, 0.07054143, 0.077877045
257, 698439289, -0.21863958, -0.1006602, 0.07577602, -0.96763766, 0.0025274844, 0.058691233, 0.07528114
258, 698455956, -0.21847928, -0.10068982, 0.075624585, -0.96768254, -0.0014985566, 0.025806792, 0.061421394
259, 698472623, -0.21833071, -0.100727424, 0.07544181, -0.96772647, 0.0038956073, 0.01555984, 0.057621956
260, 698489290, -0.21817002, -0.10077191, 0.075271465, -0.9677713, -0.02009232, -0.0032107637, 0.06395054
261, 698505957, -0.2180219, -0.10081578, 0.07511365, -0.96781236, -0.030309334, -0.024461774, 0.06396103
262, 698522624, -0.21788314, -0.10085706, 0.07495447, -0.9678517, -0.05970062, -0.04521772, 0.07241249
263, 698539291, -0.21776035, -0.10089322, 0.07480055, -0.96788746, -0.052790716, -0.047340713, 0.07841015
264, 698555958, -0.21763772, -0.10094954, 0.07462981, -0.9679224, -0.056859113, -0.033493754, 0.07519245
265, 698572625, -0.21752565, -0.10100598, 0.07447635, -0.9679535, -0.068940796, -0.053553063, 0.069475174
266, 698589292, -0.21742122, -0.101059094, 0.07435282, -0.9679809, -0.06530927, -0.056601316, 0.05071354
267, 698605959, -0.21733096, -0.10110426, 0.074248716, -0.9680045, -0.06295066, -0.04862189, 0.064805984
268, 698622626, -0.2172477, -0.10113075, 0.07414866, -0.9680281, -0.050174553, -0.07182286, 0.061552048
269, 698639293, -0.21716434, -0.101159975, 0.07407853, -0.96804905, -0.06326766, -0.075529024, 0.06928158
270, 698655960, -0.21709846, -0.10118261, 0.07402977, -0.96806526, -0.056484267, -0.04838339, 0.0713377
271, 698672627, -0.21704222, -0.10120703, 0.0739694, -0.9680799, -0.07755043, -0.03743975, 0.0777359
272, 698689294, -0.21700174, -0.101203814, 0.07391686, -0.96809334, -0.07475471, -0.028588159, 0.07040119
273, 698705961, -0.2169807, -0.10119903, 0.07388394, -0.968101, -0.06971612, -0.032843567, 0.050824165
274, 698722628, -0.2169786, -0.10118358, 0.0738523, -0.96810544, -0.05376642, -0.03673652, 0.059483528
275, 698739295, -0.21696499, -0.10117524, 0.07382578, -0.9681114, -0.059173506, -0.0404092, 0.07355404
276, 698755962, -0.21694747, -0.10116529, 0.07381878, -0.968117, -0.076325774, -0.027278904, 0.07764816
277, 698772629, -0.21691711, -0.101155125, 0.0738094, -0.9681256, -0.059969783, -0.03704814, 0.06311512
278, 698789296, -0.2168849, -0.101142585, 0.07379748, -0.968135, -0.046743363, -0.025038661, 0.060588837
279, 698805963, -0.21687739, -0.10111516, 0.07378695, -0.96814024, -0.08254321, -0.04662433, 0.05164814
280, 698822630, -0.21688564, -0.101064205, 0.07380446, -0.96814245, -0.08493727, -0.04739296, 0.06590271
281, 698839297, -0.21691236, -0.10101242, 0.073853955, -0.9681381, -0.053501066, -0.04531313, 0.07331085
282, 698855964, -0.21692076, -0.100959234, 0.073920235, -0.9681366, -0.03877328, -0.028528104, 0.0738163
283, 698872631, -0.21692045, -0.100918226, 0.07396426, -0.9681377, -0.035718545, 0.019835392, 0.068927765
284, 698889298, -0.21691623, -0.10088637, 0.0739709, -0.96814144, -0.028314356, 0.014804311, 0.06256676
285, 698905965, -0.21689504, -0.1008599, 0.07394055, -0.9681512, -0.016939502, -0.0029417798, 0.053316116
286, 698922632, -0.21685407, -0.10085083, 0.07392776, -0.96816236, -0.02690871, 2.8289756E-4, 0.07048416
287, 698939299, -0.21681185, -0.100844994, 0.073975906, -0.96816874, -0.027200172, -0.041700143, 0.05565548
288, 698955966, -0.21676302, -0.1008397, 0.074051306, -0.96817446, 7.0001464E-4, -0.02422235, 0.05322075
289, 698972633, -0.21674599, -0.10081294, 0.074132316, -0.9681749, 0.019807775, -0.006411078, 0.065006256
290, 698989300, -0.21672802, -0.100801505, 0.074194804, -0.96817535, 0.035321794, 0.0019970743, 0.080937386
291, 699005967, -0.21673143, -0.10078791, 0.074208684, -0.96817493, 0.05025278, 0.009651122, 0.079823494
292, 699022634, -0.21671925, -0.10079542, 0.07421418, -0.9681765, 0.056044433, 0.020949297, 0.058276176
293, 699039301, -0.21669976, -0.10080584, 0.07419366, -0.96818125, 0.0495897, 0.04133023, 0.055550575
294, 699055968, -0.21664067, -0.100819156, 0.07416035, -0.9681956, 0.0030542207, 0.05551292, 0.06642628
295, 699072635, -0.21654709, -0.10084972, 0.074101605, -0.96821785, -0.00895263, 0.054323442, 0.070301056
296, 699089302, -0.21643034, -0.10089234, 0.07397913, -0.9682489, -0.044551134, 0.04541018, 0.06466961
297, 699105969, -0.21633033, -0.100921735, 0.07385086, -0.96827805, -0.05383428, 0.012991048, 0.056625366
298, 699122636, -0.21625145, -0.100939594, 0.073736675, -0.96830255, -0.070339456, -0.025911508, 0.06669617
299, 699139303, -0.21617948, -0.10095201, 0.07365441, -0.9683235, -0.08483409, -0.043698907, 0.06293583
300, 699155970, -0.21612395, -0.10096639, 0.07359293, -0.9683391, -0.07018842, -0.0356769, 0.089206696
301, 699172637, -0.21605353, -0.10099557, 0.07352137, -0.9683572, -0.05722186, -0.02449403, 0.07660198
302, 699189304, -0.21598741, -0.101028, 0.07344114, -0.96837467, -0.06746031, -0.0510934, 0.08159733
303, 699205971, -0.21589439, -0.10106494, 0.073358856, -0.9683978, -0.047336217, -0.063925065, 0.053964615
304, 699222638, -0.21582542, -0.10109027, 0.07331385, -0.96841395, -0.035348043, -0.063560195, 0.05783558
305, 699239305, -0.21577334, -0.101109356, 0.07328713, -0.9684256, -0.013873044, -0.035502687, 0.064863205
306, 699255972, -0.21574281, -0.101150066, 0.0732727, -0.96842927, 0.0014698491, -0.01887641, 0.06436157
307, 699272639, -0.2157021, -0.10118426, 0.07323435, -0.9684376, 0.0045934008, 0.0031785497, 0.061552048
308, 699289306, -0.21565215, -0.1012223, 0.07319734, -0.96844757, 0.009045737, 0.013083904, 0.067988396
309, 699305973, -0.21561575, -0.10127439, 0.07313991, -0.9684546, 0.0091663925, 0.038657878, 0.0661087
310, 699322640, -0.21557528, -0.10133135, 0.07304437, -0.96846473, -0.012580161, -0.0011127453, 0.0630064
311, 699339307, -0.21552801, -0.10139053, 0.0729671, -0.96847486, -0.028358305, -0.015727405, 0.06322956
312, 699355974, -0.21547244, -0.10143075, 0.07291061, -0.9684873, -0.035695173, -0.029516324, 0.07654095
313, 699372641, -0.21542843, -0.10147515, 0.07286801, -0.96849567, -0.03775934, -0.002588336, 0.059761047
314, 699389308, -0.2153918, -0.10152203, 0.072807185, -0.9685035, -0.054529157, -0.008613267, 0.06877041
315, 699405975, -0.21534617, -0.101557575, 0.072756074, -0.9685138, -0.05411711, -0.01492403, 0.06528282
316, 699422642, -0.21527207, -0.10160191, 0.072695315, -0.9685301, -0.06269837, -0.01730218, 0.05685997
317, 699439309, -0.21519941, -0.1016529, 0.07262784, -0.968546, -0.08252386, -0.01835663, 0.078585625
318, 699455976, -0.2151544, -0.101696454, 0.0725606, -0.96855646, -0.0888784, -0.035355225, 0.07707119
319, 699472643, -0.21513684, -0.1017121, 0.07252113, -0.96856165, -0.085290186, -0.043398365, 0.058320045
320, 699489310, -0.21513821, -0.101703435, 0.07250803, -0.9685632, -0.08482959, -0.062719665, 0.053839684
321, 699505977, -0.21516351, -0.10167476, 0.07253455, -0.9685588, -0.0834824, -0.048809838, 0.04811573
322, 699522644, -0.21520105, -0.10162384, 0.072598495, -0.96855086, -0.09103754, -0.031464074, 0.05809498
323, 699539311, -0.21525007, -0.101566166, 0.072671965, -0.9685405, -0.07046852, -0.060589835, 0.06737709
324, 699555978, -0.21528955, -0.10149829, 0.07276458, -0.9685319, -0.028679213, -0.080028996, 0.074546814
325, 699572645, -0.21532187, -0.1014413, 0.07290769, -0.9685199, 0.020252425, -0.08705517, 0.059602737
326, 699589312, -0.21536951, -0.10137942, 0.07308377, -0.96850264, 0.03485841, -0.06030314, 0.06315136
327, 699605979, -0.2154249, -0.10132258, 0.07328916, -0.9684807, 0.03874323, -0.09330082, 0.04119301
328, 699622646, -0.21547301, -0.10124721, 0.07355382, -0.9684579, 0.045675166, -0.086205065, 0.055685997
329, 699639313, -0.21551888, -0.1011965, 0.073855154, -0.96843, 0.07613884, -0.028384259, 0.046614647
330, 699655980, -0.21551192, -0.10115203, 0.074120626, -0.9684159, 0.04528036, 0.02174489, 0.06652737
331, 699672647, -0.21548827, -0.10114344, 0.074344456, -0.9684049, 0.045675542, 0.031814557, 0.08078098
332, 699689314, -0.21538776, -0.10115651, 0.07452355, -0.96841216, 0.045275412, 0.041033026, 0.06702709
333, 699705981, -0.2152538, -0.10118974, 0.07466091, -0.9684279, 0.021481704, 0.07425287, 0.063269615
334, 699722648, -0.2150906, -0.10124805, 0.074767075, -0.96844983, 0.009215788, 0.082425766, 0.07078266
335, 699739315, -0.21488881, -0.10131838, 0.0748398, -0.9684817, 0.004202295, 0.07849954, 0.06209469
336, 699755982, -0.21465728, -0.10140366, 0.074876964, -0.96852124, -0.006049434, 0.08835422, 0.07537651
337, 699772649, -0.21441126, -0.10152005, 0.07487913, -0.96856344, -0.015439171, 0.10606263, 0.079909325
338, 699789316, -0.2141491, -0.10165396, 0.0747776, -0.9686152, -0.030468825, 0.13139884, 0.07543945
339, 699805983, -0.21389125, -0.101773195, 0.07463334, -0.9686706, -0.045000423, 0.09327122, 0.05985546
340, 699822650, -0.21365713, -0.10189935, 0.07445194, -0.968723, -0.057130024, 0.056237884, 0.070887566
341, 699839317, -0.2134939, -0.10200138, 0.074256875, -0.96876335, -0.096947625, 0.030042976, 0.056505203
342, 699855984, -0.21339321, -0.10207923, 0.07405457, -0.9687928, -0.11394805, -0.043581855, 0.055991173
343, 699872651, -0.2133523, -0.102127835, 0.07387595, -0.9688103, -0.10114592, -0.0591978, 0.056645393
344, 699889318, -0.21338932, -0.10213541, 0.073722325, -0.96881306, -0.112276815, -0.0728047, 0.07145882
345, 699905985, -0.21345656, -0.10213748, 0.073608235, -0.96880674, -0.07834686, -0.067003526, 0.06795406
346, 699922652, -0.2135291, -0.10214515, 0.073521435, -0.9687965, -0.06844714, -0.07593643, 0.05729103
347, 699939319, -0.21361366, -0.10214206, 0.07344752, -0.96878374, -0.035504095, -0.055469405, 0.0501194
348, 699955986, -0.21370569, -0.102131374, 0.07335773, -0.96877134, -0.028196327, -0.018163627, 0.07931423
349, 699972653, -0.21376981, -0.10213615, 0.07325236, -0.9687648, -0.03973848, -0.021223282, 0.06565189
350, 699989320, -0.21376523, -0.10215096, 0.07316076, -0.96877116, -0.052246656, -0.014888408, 0.057466507
351, 700005987, -0.21371298, -0.10218678, 0.07306667, -0.96878594, -0.0341613, -0.0047642067, 0.06141472
352, 700022654, -0.21359538, -0.10221913, 0.07297776, -0.9688151, -0.031084659, -0.047276217, 0.073604584
353, 700039321, -0.21343474, -0.10225764, 0.072924435, -0.96885055, -0.030792974, -0.042909276, 0.06728554
354, 700055988, -0.21326317, -0.10230809, 0.07288963, -0.9688856, -0.03480696, -0.04760984, 0.07153511
355, 700072655, -0.21307267, -0.102360986, 0.07289215, -0.9689218, -0.02672191, -0.02683111, 0.052441597
356, 700089322, -0.21288206, -0.1024139, 0.072887175, -0.9689585, -0.03383542, -0.062181946, 0.06538963
357, 700105989, -0.21272297, -0.10244403, 0.07287461, -0.9689911, -0.043778658, -0.070376225, 0.06409931
358, 700122656, -0.2125909, -0.102484226, 0.07289269, -0.96901447, -0.03841608, -0.110467866, 0.05901432
359, 700139323, -0.21250777, -0.10250209, 0.07292337, -0.9690284, -0.06172816, -0.09892889, 0.049298286
360, 700155990, -0.21247064, -0.10249207, 0.0729906, -0.9690327, -0.060066007, -0.0830424, 0.056406975
361, 700172657, -0.21244837, -0.1024735, 0.07307033, -0.9690335, -0.06287032, -0.035381194, 0.05248165
362, 700189324, -0.21247005, -0.10243702, 0.07315886, -0.9690259, -0.043840084, -0.030937964, 0.05497837
363, 700205991, -0.21252519, -0.10240366, 0.07323233, -0.9690118, -0.027809104, -0.014645337, 0.060492516
364, 700222658, -0.2126119, -0.102359, 0.07330128, -0.9689923, -0.04939311, -0.0123648625, 0.05955124
365, 700239325, -0.21269566, -0.102313355, 0.0733892, -0.9689721, -0.033555817, 0.008304889, 0.06871319
366, 700255992, -0.21278039, -0.10227531, 0.073476546, -0.9689508, -0.025689378, 0.04029197, 0.07176876
367, 700272659, -0.2128488, -0.10223779, 0.07351335, -0.968937, 6.441923E-4, 0.07693651, 0.059469223
368, 700289326, -0.21291627, -0.102199614, 0.073517025, -0.9689259, -0.028231656, 0.06606615, 0.050042152
369, 700305993, -0.21295929, -0.10217027, 0.07350099, -0.9689208, 0.0060717296, 0.06823721, 0.06800461
370, 700322660, -0.2129812, -0.10215452, 0.07348457, -0.96891886, -0.0070225815, 0.04174968, 0.07235241
371, 700339327, -0.21294472, -0.102147, 0.0734603, -0.9689295, -0.008600807, 0.06144758, 0.045326233
372, 700355994, -0.21289393, -0.10215322, 0.07339916, -0.9689448, -0.0020505497, 0.05075362, 0.06331062
373, 700372661, -0.21282497, -0.10217656, 0.07332523, -0.9689629, 0.0050680027, 0.042291753, 0.057717323
374, 700389328, -0.21274595, -0.10219592, 0.073224634, -0.9689859, 0.005244396, 0.00740782, 0.08519077
375, 700405995, -0.21265289, -0.10222136, 0.07313143, -0.96901065, -0.01230612, 0.0073189596, 0.058811188
376, 700422662, -0.21255751, -0.102238774, 0.07303086, -0.96903735, -0.032228306, -0.036716543, 0.054899216
377, 700439329, -0.21245122, -0.10226174, 0.07296829, -0.96906286, -0.026237516, -0.031448774, 0.053868294
378, 700455996, -0.21235506, -0.10228022, 0.0729084, -0.9690865, -0.03148314, -0.034811486, 0.06884384
379, 700472663, -0.21227495, -0.10230151, 0.07282557, -0.96910805, -0.048475, -0.059286296, 0.067726135
380, 700489330, -0.2121928, -0.10232806, 0.07275923, -0.9691283, -0.052101556, -0.04705248, 0.068032265
381, 700505997, -0.21213196, -0.10234055, 0.07270764, -0.9691441, -0.036483753, -0.0646856, 0.049391747
382, 700522664, -0.21207897, -0.10235429, 0.072696425, -0.9691551, -0.04000115, -0.06012398, 0.07647228
383, 700539331, -0.21203238, -0.10238441, 0.07272551, -0.96915996, -0.022725722, -0.074257545, 0.069132805
384, 700555998, -0.21200956, -0.102400795, 0.07276153, -0.9691605, -0.03209487, -0.041355584, 0.059734344
385, 700572665, -0.21198775, -0.10241605, 0.07279908, -0.9691608, -0.035318915, -0.015591859, 0.06461239
386, 700589332, -0.21197638, -0.10245447, 0.07282115, -0.9691576, -0.030846324, -0.009863138, 0.05697918
387, 700605999, -0.21195796, -0.1024743, 0.072844066, -0.96915776, -0.047406524, -0.014494256, 0.046011925
388, 700622666, -0.21194175, -0.10248482, 0.07288205, -0.9691574, -0.064080216, -0.0038644972, 0.067510605
389, 700639333, -0.21191405, -0.102495156, 0.07291314, -0.96916014, -0.061597012, -0.013446288, 0.047561646
390, 700656000, -0.21188842, -0.10248009, 0.07296197, -0.96916354, -0.066318415, -0.011272987, 0.06318283
391, 700672667, -0.21188122, -0.10246473, 0.07299353, -0.96916443, -0.054337494, -0.0014672508, 0.08011913
392, 700689334, -0.21187651, -0.102456294, 0.07302868, -0.96916366, -0.08375944, 0.017076878, 0.056788445
393, 700706001, -0.21183684, -0.10240724, 0.07299747, -0.96917987, 0.04191998, -0.029743163, 0.051320076
394, 700722668, -0.21184304, -0.102442086, 0.07297718, -0.96917635, -0.08310238, -0.014344196, 0.073041916
395, 700739335, -0.21180514, -0.102408394, 0.07297154, -0.96918863, -0.06755218, 0.008938506, 0.079045296
396, 700756002, -0.21178724, -0.10239306, 0.07296794, -0.9691945, -0.006713072, -0.0294354, 0.0630064
397, 700772669, -0.21176364, -0.10238509, 0.072976544, -0.9691998, -0.08298949, 0.04445301, 0.07210827
398, 700789336, -0.21174374, -0.10236941, 0.07297825, -0.9692057, -0.044447605, 8.058341E-4, 0.064751625
399, 700806003, -0.21171287, -0.10235295, 0.07289346, -0.9692205, 0.012049388, -0.04496173, 0.06056881
400, 700822670, -0.21171625, -0.1023313, 0.07286148, -0.9692244, -0.03880727, -0.018125545, 0.06377697
401, 700839337, -0.21171221, -0.10229847, 0.07292257, -0.9692242, -0.046553515, -0.038516324, 0.09030628
402, 700856004, -0.21168292, -0.10228615, 0.07297512, -0.96922797, -0.0061701727, -0.005939242, 0.06704998
403, 700872671, -0.21167801, -0.1022805, 0.07296475, -0.9692303, 0.010838926, 0.014103849, 0.07014561
404, 700889338, -0.21166481, -0.102278925, 0.07293691, -0.96923554, -0.006085769, -0.016225547, 0.07517815
405, 700906005, -0.21162719, -0.102280125, 0.072929405, -0.9692441, -0.045084365, -0.042615693, 0.061418533
406, 700922672, -0.21159652, -0.10226603, 0.07294644, -0.9692511, -0.034947578, -0.031844728, 0.055882454
407, 700939339, -0.21158466, -0.10224607, 0.07299699, -0.96925193, -0.035889868, -0.006638977, 0.066495895
408, 700956006, -0.21155182, -0.10224175, 0.07303586, -0.96925664, -0.03428433, -0.0027934369, 0.07972336
409, 700972673, -0.21151613, -0.10224572, 0.07303005, -0.9692645, -0.059704963, -0.009053797, 0.050216675
410, 700989340, -0.2114838, -0.10225929, 0.07300492, -0.96927196, -0.031046914, -0.01819971, 0.06963062
411, 701006007, -0.21145828, -0.10227073, 0.07299305, -0.9692772, -0.016773935, -0.0051225675, 0.05176735
412, 701022674, -0.21143858, -0.102287985, 0.07298887, -0.96927994, -0.04179772, -0.00413953, 0.0669508
413, 701039341, -0.21141794, -0.102293424, 0.07298055, -0.9692846, -0.037339333, 7.4154616E-4, 0.060634613
414, 701056008, -0.21139336, -0.10230068, 0.07296494, -0.9692903, -0.041688476, -0.0010725129, 0.049242973
415, 701072675, -0.21134944, -0.10228614, 0.072947025, -0.9693028, -0.042434704, 0.007610197, 0.054018974
416, 701089342, -0.21129411, -0.10228832, 0.072928466, -0.969316, -0.02857954, -7.405962E-4, 0.07014465
417, 701106009, -0.21122594, -0.102286674, 0.07291466, -0.96933216, -0.033326425, -0.009070296, 0.060242653
418, 701122676, -0.2111715, -0.10227949, 0.0729, -0.9693458, -0.023085313, -0.009577083, 0.051216125
419, 701139343, -0.21112539, -0.10228582, 0.0728951, -0.9693556, -0.025309741, -0.0117257275, 0.08491516
420, 701156010, -0.21107964, -0.102294035, 0.07286916, -0.96936667, 0.001278103, -0.018688854, 0.058732033
421, 701172677, -0.21103494, -0.102309205, 0.07283802, -0.9693771, -0.017240603, -0.039072312, 0.057771683
422, 701189344, -0.2109853, -0.10231804, 0.07282455, -0.969388, -0.010060374, -0.040132727, 0.05892086
423, 701206011, -0.21092416, -0.10232429, 0.07284137, -0.96939933, -0.024973843, -0.038893323, 0.073786736
424, 701222678, -0.21087278, -0.10232792, 0.0728484, -0.96940964, -0.015272836, -0.01644361, 0.068870544
425, 701239345, -0.21084183, -0.10233653, 0.07286561, -0.96941423, -0.046120014, 0.0016780095, 0.07726383
426, 701256012, -0.21078435, -0.10232255, 0.0728907, -0.9694262, 0.0015688794, 0.0028148384, 0.059391975
427, 701272679, -0.21074247, -0.10232203, 0.07289262, -0.9694353, -0.06412154, 0.048992783, 0.06504154
428, 701289346, -0.21067071, -0.10233104, 0.07287022, -0.9694516, -0.0313386, 0.034395892, 0.09017849
429, 701306013, -0.21058549, -0.10235183, 0.072832614, -0.9694708, -0.038446087, 0.026963038, 0.07806015
430, 701322680, -0.21047945, -0.10237867, 0.072787695, -0.9694943, -0.07197613, 0.05321634, 0.06363964
431, 701339347, -0.2103718, -0.10240284, 0.07272033, -0.96952015, -0.036577728, 0.022479061, 0.06638718
432, 701356014, -0.21025644, -0.102435574, 0.07263738, -0.9695479, -0.030703612, 0.0096053155, 0.06889725
433, 701372681, -0.21014394, -0.102468155, 0.07257293, -0.96957374, -0.03325338, -0.024450151, 0.07250118
434, 701389348, -0.21001595, -0.10250104, 0.07252309, -0.96960175, -0.038124673, -0.06706892, 0.058247566
435, 701406015, -0.20991421, -0.10252493, 0.072499365, -0.96962297, -0.010752077, -0.07011125, 0.0562315
436, 701422682, -0.2098554, -0.10253871, 0.07248563, -0.9696353, 0.007209634, -0.07680004, 0.06945324
437, 701439349, -0.20982648, -0.10254319, 0.072481185, -0.9696414, -0.009249665, -0.06479484, 0.057785034
438, 701456016, -0.20979874, -0.10256757, 0.072478056, -0.96964514, -0.014880822, -0.07164104, 0.06688118
439, 701472683, -0.20976949, -0.10259233, 0.07250106, -0.9696471, -0.010956186, -0.052962568, 0.04352665
440, 701489350, -0.20975034, -0.102606766, 0.0725166, -0.9696486, -0.019296544, -0.022428198, 0.06755257
441, 701506017, -0.20971514, -0.102627605, 0.07252389, -0.9696534, -0.040553562, -0.014671949, 0.08266258
442, 701522684, -0.20966926, -0.102659084, 0.0725463, -0.9696584, -0.046761494, -0.015261996, 0.08390617
443, 701539351, -0.20962428, -0.10267016, 0.07257151, -0.96966493, -0.03939234, -8.761289E-4, 0.0656271
444, 701556018, -0.20957674, -0.1026884, 0.0725953, -0.96967155, -0.04686596, 0.00936008, 0.07099724
445, 701572685, -0.20954083, -0.10269594, 0.07261922, -0.9696767, -0.043901365, 0.018391833, 0.06754112
446, 701589352, -0.20948502, -0.102716215, 0.07263504, -0.96968544, -0.042036474, 0.02505252, 0.08051491
447, 701606019, -0.2094143, -0.10274033, 0.07261284, -0.9696998, -0.0676165, 0.021734484, 0.06994343
448, 701622686, -0.20934187, -0.10276174, 0.07256722, -0.96971667, -0.0469878, -0.0030910585, 0.07631588
449, 701639353, -0.20926476, -0.102774054, 0.072529204, -0.9697348, -0.045475233, -0.013784128, 0.07217789
450, 701656020, -0.20919116, -0.10280284, 0.072486065, -0.9697509, -0.033599444, -0.026649296, 0.059324265
451, 701672687, -0.20913799, -0.10281854, 0.07246614, -0.9697621, -0.0452601, -0.035700187, 0.05962944
452, 701689354, -0.20908199, -0.10282943, 0.07248449, -0.9697716, -0.052957594, -0.023956105, 0.063072205
453, 701706021, -0.20902814, -0.1028414, 0.07247518, -0.9697827, -0.038775012, -0.018219994, 0.061890602
454, 701722688, -0.20897964, -0.10285122, 0.072472945, -0.9697923, -0.058397204, -0.007434921, 0.061662674
455, 701739355, -0.20893931, -0.10286231, 0.07246451, -0.9698005, -0.04689179, -0.0217906, 0.07087135
456, 701756022, -0.20891197, -0.10287157, 0.07245732, -0.96980584, -0.057456758, -0.018704193, 0.069708824
457, 701772689, -0.20888849, -0.102877244, 0.07248294, -0.9698084, -0.028121646, -0.025824757, 0.08678913
458, 701789356, -0.20886417, -0.10287268, 0.07251364, -0.9698118, -0.034119785, -0.013454614, 0.073625565
459, 701806023, -0.2088417, -0.10286267, 0.07251531, -0.9698176, -0.025564462, 0.003704336, 0.06145096
460, 701822690, -0.20882618, -0.10285524, 0.072502054, -0.9698227, -0.0151160555, -0.016839396, 0.06605339
461, 701839357, -0.20881517, -0.102847606, 0.07249834, -0.9698262, -0.04001181, -0.03652097, 0.06924629
462, 701856024, -0.20878886, -0.10284076, 0.07253488, -0.96982986, -0.0350646, -0.028328897, 0.07494736
463, 701872691, -0.20875368, -0.10284884, 0.07255926, -0.96983474, -0.01990232, -0.017668197, 0.075675964
464, 701889358, -0.20872772, -0.1028513, 0.07257576, -0.96983886, -0.01722641, -0.012830733, 0.05838871
465, 701906025, -0.20870969, -0.10283402, 0.072585054, -0.9698438, -0.019930175, -0.010856946, 0.07567406
466, 701922692, -0.20869279, -0.10282102, 0.0726001, -0.9698478, -0.027775396, -0.011415589, 0.07502842
467, 701939359, -0.20865078, -0.1028302, 0.07263007, -0.9698537, -0.04412593, -0.021207314, 0.07906246
468, 701956026, -0.20860574, -0.10285125, 0.07266779, -0.9698583, -0.02449157, -0.0019727114, 0.060640335
469, 701972693, -0.20856243, -0.10286738, 0.07270372, -0.9698632, -0.03715407, 0.028481642, 0.057383537
470, 701989360, -0.20852546, -0.10288308, 0.07267258, -0.96987176, -0.053067632, 0.029403772, 0.06589508
471, 702006027, -0.20849204, -0.102887094, 0.07265874, -0.9698796, -0.052430958, -0.029149903, 0.07454872
472, 702022694, -0.20844053, -0.102880314, 0.07266832, -0.9698906, -0.029459985, -0.012305631, 0.04655361
473, 702039361, -0.20840216, -0.10287993, 0.07269678, -0.9698968, -0.04239993, -0.00946006, 0.07120609
474, 702056028, -0.20836699, -0.1028751, 0.07272086, -0.9699031, -0.016128723, -0.00916723, 0.08728886
475, 702072695, -0.20832607, -0.10287382, 0.07271248, -0.96991265, -0.028139135, -0.020613817, 0.066106796
476, 702089362, -0.20829374, -0.10287475, 0.07270226, -0.9699203, -0.030563874, -0.021974215, 0.06664181
477, 702106029, -0.20824812, -0.10286969, 0.07272371, -0.96992886, -0.012980417, -0.034489557, 0.06917286
478, 702122696, -0.20821482, -0.10288251, 0.07278669, -0.96992993, -0.01958123, -0.0032664603, 0.07756615
479, 702139363, -0.2081727, -0.10289161, 0.07283066, -0.96993476, -0.02873639, 0.007887898, 0.07023907
480, 702156030, -0.2081349, -0.10292696, 0.07281897, -0.96994, -0.016680256, 0.0098278085, 0.061418533
481, 702172697, -0.20809485, -0.102959454, 0.072793014, -0.96994716, -0.03923309, 0.00861817, 0.069078445
482, 702189364, -0.20804568, -0.1030062, 0.0727972, -0.96995246, -0.045945507, -0.020586045, 0.07565975
483, 702206031, -0.20801435, -0.10304626, 0.07281296, -0.9699536, -0.05838178, -0.019443126, 0.05477333
484, 702222698, -0.20796734, -0.10305657, 0.07284285, -0.9699604, -0.055192653, -0.0030712218, 0.06476784
485, 702239365, -0.20793639, -0.10306896, 0.072865, -0.969964, -0.029587863, -0.01978031, 0.06486988
486, 702256032, -0.20792186, -0.10306712, 0.07285252, -0.9699684, -0.023520296, -0.0337764, 0.06286907
487, 702272699, -0.20790257, -0.103075586, 0.07286244, -0.9699709, -0.04922279, -0.045969028, 0.04787445
488, 702289366, -0.20789891, -0.10306718, 0.07288279, -0.96997094, -0.037570864, -0.0200679, 0.064320564
489, 702306033, -0.20789105, -0.103056215, 0.07289211, -0.969973, -0.04576728, -0.004959529, 0.0711174
490, 702322700, -0.20788293, -0.10304826, 0.07288721, -0.969976, -0.054413445, 0.006593171, 0.075427055
491, 702339367, -0.20784727, -0.10304814, 0.07286457, -0.9699854, -0.046525743, -0.005963465, 0.074323654
492, 702356034, -0.207814, -0.103045516, 0.07285163, -0.9699937, -0.05745666, 0.005713019, 0.0619936
493, 702372701, -0.2077778, -0.10304385, 0.07282764, -0.9700035, -0.042349588, -0.014625332, 0.059949875
494, 702389368, -0.20774134, -0.10303893, 0.07280557, -0.9700134, -0.03159776, -0.019967698, 0.056705475
495, 702406035, -0.20769347, -0.10302676, 0.07278024, -0.9700269, -0.038098104, -0.014126927, 0.06423092
496, 702422702, -0.2076492, -0.10302384, 0.072764225, -0.9700379, -0.04656698, -0.025071252, 0.06682396
497, 702439369, -0.20760345, -0.10302133, 0.07273919, -0.97004986, -0.020425383, -0.033709247, 0.06651211
498, 702456036, -0.20757397, -0.10302635, 0.07271079, -0.9700578, -0.011803873, -0.021790473, 0.06207657
499, 702472703, -0.207548, -0.1030061, 0.07268187, -0.9700676, -0.0013317042, -0.036381245, 0.0677433
500, 702489370, -0.20752707, -0.10299872, 0.07267244, -0.9700736, 8.552863E-4, -0.039136548, 0.06361866
501, 702506037, -0.20750636, -0.102989174, 0.07268068, -0.9700784, -0.0056931125, -0.030370675, 0.06589985
502, 702522704, -0.20746553, -0.10299538, 0.07270352, -0.9700847, -0.024169602, -0.023837266, 0.063503265
503, 702539371, -0.20743218, -0.10301895, 0.07270579, -0.97008914, -0.009851404, -0.019831648, 0.06764984
504, 702556038, -0.20739733, -0.10303138, 0.072689734, -0.97009647, -0.015597209, -0.009850775, 0.07874966
505, 702572705, -0.20737052, -0.10304507, 0.07267947, -0.9701016, -0.025760986, -0.016407933, 0.06573105
506, 702589372, -0.20733991, -0.103059694, 0.07268493, -0.9701061, -0.01786831, -0.021275025, 0.06758785
507, 702606039, -0.20732383, -0.1030636, 0.07270937, -0.9701073, -0.03634987, -0.005005768, 0.05533409
508, 702622706, -0.20730928, -0.10307384, 0.07271065, -0.97010934, -0.022396067, 0.016757898, 0.07952309
509, 702639373, -0.20728536, -0.1030967, 0.07269744, -0.970113, -0.041623253, 0.023527756, 0.057652473
510, 702656040, -0.20723622, -0.10312122, 0.07265508, -0.97012407, -0.036832646, 0.019050833, 0.07857418
511, 702672707, -0.20718005, -0.10314769, 0.07261547, -0.9701362, -0.044834632, 0.009147924, 0.058631897
512, 702689374, -0.20713213, -0.103163205, 0.07258641, -0.97014695, -0.03592338, -0.0017881176, 0.06894398
513, 702706041, -0.20709187, -0.10317097, 0.07255086, -0.97015744, -0.04928867, 0.008802513, 0.055814743
514, 702722708, -0.20704308, -0.10318833, 0.07249886, -0.9701698, -0.04440314, 0.0053906715, 0.060456276
515, 702739375, -0.20699473, -0.103206515, 0.072459355, -0.9701811, -0.05462095, -0.022270663, 0.06504536
516, 702756042, -0.2069323, -0.1032097, 0.07242201, -0.9701969, -0.038803443, -0.015483036, 0.06354904
517, 702772709, -0.20688023, -0.103209846, 0.072377, -0.97021127, -0.03525034, -0.00554646, 0.07993889
518, 702789376, -0.20685692, -0.10321633, 0.072326824, -0.97021943, -0.03939012, -0.01175097, 0.07695103
519, 702806043, -0.2068171, -0.10321318, 0.07225897, -0.9702333, -0.033658188, -0.021223785, 0.06905556
520, 702822710, -0.20678826, -0.103203766, 0.07223141, -0.9702425, -0.03165889, -0.019619241, 0.0668993
521, 702839377, -0.2067778, -0.10320126, 0.07222316, -0.9702456, -0.040453456, -0.022845315, 0.060380936
522, 702856044, -0.20674841, -0.10320527, 0.07221541, -0.97025204, -0.04192948, -0.015911287, 0.06463814
523, 702872711, -0.20671299, -0.10320877, 0.07219812, -0.97026044, -0.02964036, -0.014896049, 0.06452274
524, 702889378, -0.20667641, -0.10321595, 0.072162, -0.97027016, -0.012670237, -0.019830963, 0.05790043
525, 702906045, -0.20664406, -0.10320818, 0.072121665, -0.9702808, -0.036521904, -0.009894933, 0.05300522
526, 702922712, -0.2065922, -0.10320145, 0.072091065, -0.9702949, -0.02947112, -0.02772389, 0.059046745
527, 702939379, -0.20653722, -0.1031863, 0.07207375, -0.97030944, -0.031021573, -0.033362813, 0.06235695
528, 702956046, -0.20645715, -0.10317736, 0.07207587, -0.97032744, -0.028724208, -0.021708053, 0.06901646
529, 702972713, -0.20639135, -0.103175305, 0.07207561, -0.97034156, -0.04558322, -0.004216921, 0.06974125
530, 702989380, -0.20635147, -0.10317158, 0.07204385, -0.9703528, -0.032246828, -0.025923578, 0.061056137
531, 703006047, -0.20631412, -0.103173465, 0.07200543, -0.97036344, -0.019604266, -0.05173871, 0.0830822
532, 703022714, -0.20628406, -0.103181206, 0.07202223, -0.9703678, -0.0434921, -0.047305163, 0.0686779
533, 703039381, -0.20626557, -0.103201516, 0.072060056, -0.97036666, -0.025809586, -0.045354314, 0.056541443
534, 703056048, -0.20624775, -0.103223935, 0.07210882, -0.9703646, -0.0015125541, -0.043832485, 0.05276203
535, 703072715, -0.20623262, -0.103234805, 0.07216147, -0.9703627, -0.03422235, -0.04268927, 0.06782532
536, 703089382, -0.20622599, -0.103249595, 0.07221818, -0.97035825, -0.037069175, -0.041428264, 0.060847282
537, 703106049, -0.2062389, -0.103241354, 0.072270274, -0.9703526, -0.04871413, -0.042611614, 0.045895576
538, 703122716, -0.20625426, -0.10320947, 0.07234631, -0.97034705, -0.06078397, -0.034643907, 0.04746723
539, 703139383, -0.20629968, -0.10317232, 0.07244284, -0.9703341, -0.054647997, -0.03491113, 0.054548264
540, 703156050, -0.20633125, -0.103122175, 0.072524935, -0.97032666, -0.058194015, -0.0064952727, 0.072208405
541, 703172717, -0.20637682, -0.10309023, 0.07258404, -0.97031593, -0.036507756, 0.0240857, 0.06078434
542, 703189384, -0.20640068, -0.103061974, 0.07261247, -0.97031164, -0.048666455, 0.03800585, 0.07644081
543, 703206051, -0.20639938, -0.10303072, 0.07263084, -0.9703139, -0.053520374, 0.028595032, 0.06993961
544, 703222718, -0.20639609, -0.10301423, 0.07266173, -0.970314, -0.036935043, 0.044178452, 0.07644749
545, 703239385, -0.20637183, -0.10299825, 0.07266634, -0.97032046, -0.031893384, 0.025995186, 0.06777191
546, 703256052, -0.20633587, -0.1029904, 0.072631255, -0.9703316, -0.027107427, 0.01686503, 0.07539749
547, 703272719, -0.20628858, -0.102987565, 0.072580405, -0.97034585, -0.023761773, 0.013954752, 0.07952309
548, 703289386, -0.20623724, -0.102982484, 0.07254438, -0.9703599, -0.01776717, 0.0033416583, 0.06875706
549, 703306053, -0.20617017, -0.10297799, 0.07248967, -0.9703787, -0.020396773, -0.030626066, 0.06402111
550, 703322720, -0.20610142, -0.102980815, 0.072453186, -0.97039574, -0.025679935, -0.03733914, 0.06958103
551, 703339387, -0.20604396, -0.102982424, 0.07244779, -0.97040826, -0.009303881, -0.047168817, 0.08103371
552, 703356054, -0.20599695, -0.10299384, 0.072444975, -0.97041726, -0.005547284, -0.039112072, 0.05688095
553, 703372721, -0.2059777, -0.10299963, 0.072430745, -0.97042173, -0.00619096, -0.038521465, 0.04433632
554, 703389388, -0.20595142, -0.102990404, 0.07241843, -0.97042906, -0.022281658, -0.018818073, 0.07218647
555, 703406055, -0.20592989, -0.10300215, 0.07241989, -0.97043234, -0.012212524, -0.040283557, 0.080905914
556, 703422722, -0.20590404, -0.10301458, 0.072443314, -0.9704347, -0.03052536, -0.021978308, 0.05615139
557, 703439389, -0.20589872, -0.1030268, 0.07246656, -0.97043294, -0.021046888, -0.016963447, 0.07234192
558, 703456056, -0.20589082, -0.10304555, 0.07247159, -0.9704322, -0.008803281, 0.02047876, 0.060614586
559, 703472723, -0.20587355, -0.10305554, 0.0724722, -0.9704347, -0.025873749, 0.0154182445, 0.06817341
560, 703489390, -0.2058552, -0.10307684, 0.07245543, -0.9704376, -0.043331046, 0.016283141, 0.08608818
561, 703506057, -0.20581658, -0.103100605, 0.07243743, -0.97044474, -0.022360167, 0.0101100635, 0.05716896
562, 703522724, -0.20576307, -0.10312793, 0.07241994, -0.97045445, -0.034000024, 0.0060762833, 0.067539215
563, 703539391, -0.20571147, -0.103156365, 0.072401926, -0.97046375, -0.029552966, -0.005706034, 0.06804466
564, 703556058, -0.20566629, -0.10318213, 0.07237094, -0.9704729, -0.023234311, -0.0020075375, 0.07922268
565, 703572725, -0.20561485, -0.10319672, 0.07234151, -0.97048444, -0.025274817, -0.02224686, 0.0489254
566, 703589392, -0.20556545, -0.103212394, 0.07233682, -0.97049356, -0.036508035, -0.020676456, 0.08082485
567, 703606059, -0.20554273, -0.10322003, 0.07232213, -0.97049856, -0.041000098, -0.01408967, 0.06389904
568, 703622726, -0.20549485, -0.1032269, 0.07231599, -0.9705085, -0.029452456, -0.030431373, 0.0591774
569, 703639393, -0.20544992, -0.10323792, 0.07230284, -0.9705178, -0.017193343, -0.053761642, 0.04205799
570, 703656060, -0.20541772, -0.1032378, 0.072314955, -0.9705238, -0.01870242, -0.039145835, 0.047808647
571, 703672727, -0.20539676, -0.10322578, 0.072323784, -0.97052884, -0.015717864, -0.013126246, 0.0687418
572, 703689394, -0.20539339, -0.10321232, 0.07235189, -0.9705289, -0.03207633, 0.012943496, 0.067017555
573, 703706061, -0.20536987, -0.103220105, 0.07233851, -0.97053397, -0.021618284, 0.02533722, 0.055623055
574, 703722728, -0.20531593, -0.10323231, 0.07228399, -0.9705483, -0.050463762, 0.05233422, 0.07456303
575, 703739395, -0.20525903, -0.103247195, 0.072213806, -0.9705638, -0.042791877, 0.011735813, 0.076244354
576, 703756062, -0.20519076, -0.10326265, 0.072141655, -0.970582, -0.053021185, 0.005817246, 0.07945156
577, 703772729, -0.20510101, -0.103281766, 0.0720778, -0.97060364, -0.070911005, -0.0112121925, 0.061598778
578, 703789396, -0.20499147, -0.10328257, 0.072047964, -0.9706289, -0.041730065, -0.048602838, 0.072319984
579, 703806063, -0.20489769, -0.10329247, 0.07203945, -0.9706483, -0.03452381, -0.043911494, 0.0710001
580, 703822730, -0.2048304, -0.103296235, 0.072028935, -0.9706629, -0.054326806, -0.034200456, 0.059113503
581, 703839397, -0.20476966, -0.10330801, 0.07198964, -0.9706774, -0.05596017, -0.052814923, 0.065099716
582, 703856064, -0.20473106, -0.10330325, 0.07198586, -0.97068626, -0.050549395, -0.07188109, 0.051836967
583, 703872731, -0.2047126, -0.1033054, 0.07201957, -0.9706875, -0.034583155, -0.048391405, 0.0692749
584, 703889398, -0.2047094, -0.10330784, 0.072082706, -0.97068316, -0.025929179, -0.050515145, 0.06455994
585, 703906065, -0.20469618, -0.10330534, 0.07213529, -0.9706823, -0.008490712, -0.043175664, 0.055636406
586, 703922732, -0.2047197, -0.10331446, 0.07219425, -0.9706721, 0.006818109, -0.04042166, 0.047045708
587, 703939399, -0.20473197, -0.103298135, 0.07225145, -0.970667, -0.007875926, 0.013732064, 0.071873665
588, 703956066, -0.2047616, -0.103289865, 0.07231065, -0.9706572, -0.016767481, 0.023973148, 0.08136845
589, 703972733, -0.20477325, -0.103291996, 0.072334416, -0.9706527, 0.0017832981, 0.017670628, 0.044628143
590, 703989400, -0.20475674, -0.10329362, 0.07232794, -0.9706564, -0.017852608, 0.03559617, 0.06611252
591, 704006067, -0.20470035, -0.10330351, 0.07231458, -0.9706683, -0.024023844, 0.03552627, 0.055190086
592, 704022734, -0.20464481, -0.103323236, 0.07227538, -0.97068083, -0.01780813, 0.03819909, 0.07611275
593, 704039401, -0.20456712, -0.10334277, 0.07223547, -0.9706981, -0.038307536, 0.03385266, 0.06534195
594, 704056068, -0.20447476, -0.103361204, 0.072169974, -0.9707205, -0.046039253, 0.008045265, 0.06719589
595, 704072735, -0.20438737, -0.10338074, 0.07212587, -0.9707402, -0.046730425, -0.0098087685, 0.06879616
596, 704089402, -0.20430703, -0.103388466, 0.07207567, -0.9707599, -0.049468685, -0.007550058, 0.0636549
597, 704106069, -0.20422411, -0.103400216, 0.07202772, -0.97077966, -0.052594136, -0.039308805, 0.069122314
598, 704122736, -0.2041501, -0.10341492, 0.07198928, -0.97079647, -0.05688476, -0.044676706, 0.06203556
599, 704139403, -0.20410952, -0.10341163, 0.071965605, -0.97080714, -0.05723809, -0.04296232, 0.054243088
600, 704156070, -0.20409638, -0.103398845, 0.071935445, -0.9708136, -0.06060319, -0.043886323, 0.06062126
601, 704172737, -0.20410934, -0.10338718, 0.07192718, -0.97081256, -0.029756797, -0.051886324, 0.07293129
602, 704189404, -0.20413594, -0.10336584, 0.0719482, -0.97080785, -0.044451322, -0.024834538, 0.057872772
603, 704206071, -0.20415168, -0.103341945, 0.07197436, -0.97080505, -0.037759595, -0.024718396, 0.06731415
604, 704222738, -0.20417793, -0.10332134, 0.07198276, -0.9708011, -0.025929067, 0.010682886, 0.065449715
605, 704239405, -0.20421366, -0.10331451, 0.07199323, -0.97079355, -0.019839037, -0.0019700292, 0.07522774
606, 704256072, -0.20420507, -0.10330471, 0.072010785, -0.9707951, -0.027287664, -0.020028353, 0.045692444
607, 704272739, -0.20421936, -0.103297904, 0.072050296, -0.9707899, -0.029287085, -0.0055829347, 0.06340504
608, 704289406, -0.20421648, -0.1032882, 0.07208207, -0.97078913, -0.0053218994, 0.01921172, 0.07152748
609, 704306073, -0.2042097, -0.10328442, 0.07208243, -0.970791, -1.0041319E-4, 0.012541549, 0.068608284
610, 704322740, -0.2041976, -0.10327465, 0.07208508, -0.9707943, -0.032145172, -0.0076920725, 0.06603336
611, 704339407, -0.20418431, -0.10325943, 0.072084896, -0.97079873, -0.03309658, 0.012092079, 0.068045616
612, 704356074, -0.20415752, -0.103242725, 0.072081454, -0.97080636, -0.032745305, -0.018525787, 0.07224655
613, 704372741, -0.20413256, -0.10321629, 0.0720936, -0.9708135, -0.0345552, -0.005096668, 0.088088036
614, 704389408, -0.20409666, -0.10318941, 0.072090685, -0.9708243, -0.04892837, 0.0021172124, 0.066762924
615, 704406075, -0.20408064, -0.103173256, 0.07207951, -0.97083014, -0.030348016, -0.004941103, 0.062485695
616, 704422742, -0.20404154, -0.10315849, 0.072065555, -0.970841, -0.0421312, -0.02675179, 0.0453825
617, 704439409, -0.20399348, -0.10314133, 0.07204408, -0.97085446, -0.027894935, -0.013730317, 0.08201599
618, 704456076, -0.2039676, -0.10313053, 0.07203405, -0.97086173, -0.024078673, -0.013869929, 0.061797142
619, 704472743, -0.20394419, -0.103119835, 0.07200187, -0.9708702, -0.035377964, -0.029471958, 0.071186066
620, 704489410, -0.20390241, -0.103122145, 0.07199425, -0.9708794, -0.022852203, -0.021536913, 0.059940338
621, 704506077, -0.20388132, -0.103121646, 0.071994975, -0.9708837, -0.011879099, -0.01956807, 0.0624609
622, 704522744, -0.20384337, -0.10310743, 0.0719998, -0.97089285, -0.02664354, -0.023390938, 0.059016228
623, 704539411, -0.20380604, -0.103099436, 0.07201172, -0.97090065, -0.02982786, -0.012128847, 0.065018654
624, 704556078, -0.20375752, -0.10309125, 0.07202781, -0.97091055, -0.02773223, -0.00869675, 0.0391407
625, 704572745, -0.20372202, -0.10306849, 0.072038434, -0.9709197, 0.0018350693, -0.024767764, 0.061746597
626, 704589412, -0.20368908, -0.10305364, 0.072050616, -0.97092724, 0.007236707, -0.0073003103, 0.06851196
627, 704606079, -0.20362478, -0.10305252, 0.07204026, -0.9709416, -0.023073675, 0.009134597, 0.07639122
628, 704622746, -0.2035808, -0.10304481, 0.07202676, -0.9709526, -0.04230558, -0.005691967, 0.068011284
629, 704639413, -0.20355417, -0.10305223, 0.07202443, -0.97095764, -0.014093596, -0.023129415, 0.065018654
630, 704656080, -0.20351696, -0.10306527, 0.07202462, -0.9709641, -0.04238279, -0.0037253744, 0.064995766
631, 704672747, -0.2034878, -0.10307749, 0.07203994, -0.97096777, -0.036262043, -0.00905261, 0.07553768
632, 704689414, -0.2034438, -0.10310163, 0.07205882, -0.970973, -0.025027724, -0.008704879, 0.066791534
633, 704706081, -0.2033953, -0.1031249, 0.072058745, -0.9709807, -0.02447182, -0.022719085, 0.069262505
634, 704722748, -0.20336677, -0.10314893, 0.07209364, -0.9709815, -0.015464833, -0.011630525, 0.06585884
635, 704739415, -0.20334592, -0.103167124, 0.072106875, -0.9709829, -0.026496246, -0.0018050487, 0.06832123
636, 704756082, -0.20331927, -0.10317945, 0.072098926, -0.97098774, -0.033704106, -0.0028881365, 0.07122803
637, 704772749, -0.20329356, -0.10317655, 0.07209206, -0.97099406, -0.028723538, -0.014898801, 0.05559635
638, 704789416, -0.20325586, -0.103169225, 0.07207453, -0.971004, -0.036739804, -0.01519536, 0.061606407
639, 704806083, -0.2032167, -0.10315856, 0.07208041, -0.97101283, -0.03513924, -0.0069803516, 0.075297356
640, 704822750, -0.20316213, -0.1031538, 0.07207865, -0.97102493, -0.022946455, 0.008238757, 0.06782913
641, 704839417, -0.20310818, -0.10315493, 0.07206923, -0.9710368, -0.020496529, 0.011195121, 0.073246956
642, 704856084, -0.20306516, -0.10316234, 0.07202796, -0.971048, -0.040253006, 4.6566132E-4, 0.07192898
643, 704872751, -0.20301278, -0.10316952, 0.07199124, -0.97106093, -0.047061462, -0.010730689, 0.06226921
644, 704889418, -0.20295525, -0.10317094, 0.071973786, -0.97107416, -0.03710698, -0.0074231867, 0.075097084
645, 704906085, -0.20289409, -0.10317419, 0.07195667, -0.9710879, -0.026586307, -0.0043547866, 0.06672382
646, 704922752, -0.20280942, -0.103187345, 0.07190811, -0.9711077, -0.05066625, 0.009229031, 0.050160408
647, 704939419, -0.20273209, -0.10320008, 0.07186072, -0.9711261, -0.034579564, -0.0307616, 0.06618786
648, 704956086, -0.20267574, -0.10320021, 0.0718393, -0.9711393, -0.029614083, -0.049103912, 0.06659603
649, 704972753, -0.20263493, -0.10320304, 0.07182893, -0.97114825, -0.03749958, -0.022974212, 0.07984829
650, 704989420, -0.20260957, -0.10319849, 0.07183575, -0.9711537, -0.022141362, -0.039040547, 0.046525
651, 705006087, -0.20257114, -0.10319737, 0.07184418, -0.9711612, -0.006253306, -0.024774063, 0.06164074
652, 705022754, -0.20255233, -0.103199355, 0.07185953, -0.9711637, 0.009863026, -0.016799554, 0.07439327
653, 705039421, -0.20252478, -0.10319498, 0.0718544, -0.9711703, 0.011154484, 0.0053488887, 0.051654816
654, 705056088, -0.20249185, -0.103216626, 0.0718433, -0.9711757, -0.014625682, -0.01029171, 0.057691574
655, 705072755, -0.20246564, -0.10323729, 0.07185454, -0.9711781, -0.012595961, -0.012957269, 0.028552055
656, 705089422, -0.20245285, -0.10325133, 0.07184921, -0.9711796, 0.014586385, -0.014670832, 0.061014175
657, 705106089, -0.20243996, -0.10328089, 0.07184586, -0.9711794, -0.018597018, 0.038128585, 0.097159386
658, 705122756, -0.20239638, -0.10334565, 0.07179615, -0.9711853, -0.010239646, -0.008081153, 0.069060326
659, 705139423, -0.20231432, -0.10339388, 0.07174882, -0.9712007, -0.058398824, -0.010653494, 0.07206631
660, 705156090, -0.20221435, -0.10342075, 0.07174257, -0.97121924, -0.0504823, 0.014437233, 0.083221436
661, 705172757, -0.20212233, -0.10348199, 0.071720146, -0.9712334, -0.0388117, 0.022270035, 0.061836243
662, 705189424, -0.2020258, -0.103540935, 0.07166299, -0.9712516, -0.086983055, -0.013934049, 0.05602932
663, 705206091, -0.20193088, -0.10358059, 0.07161674, -0.9712704, -0.083930135, -0.016556108, 0.062280655
664, 705222758, -0.201855, -0.10361544, 0.07157232, -0.9712858, -0.08896145, -0.008643679, 0.08124447
665, 705239425, -0.20178992, -0.10365468, 0.07151895, -0.97129905, -0.058032162, -0.0085050315, 0.06653786
666, 705256092, -0.20174126, -0.10368204, 0.0714738, -0.97130954, -0.013703677, -0.01885058, 0.057466507
667, 705272759, -0.20169362, -0.103723034, 0.071437724, -0.97131777, -0.012464633, -0.0045205075, 0.0657711
668, 705289426, -0.20165505, -0.10377436, 0.07140133, -0.97132295, 0.014190991, 0.017447617, 0.08964825
669, 705306093, -0.20164773, -0.10384881, 0.07134887, -0.9713204, 0.02669084, -0.04226306, 0.039782524
670, 705322760, -0.20159054, -0.1039208, 0.07129772, -0.9713284, 0.035444714, -0.052054226, 0.027708054
671, 705339427, -0.20154741, -0.10398812, 0.071271464, -0.9713319, 0.041490767, 0.009498895, 0.080589294
672, 705356094, -0.20150802, -0.1040691, 0.0712032, -0.9713365, 0.042432662, -0.022124039, 0.09440231
673, 705372761, -0.20146577, -0.104173005, 0.07117923, -0.9713359, 0.00757843, -0.056601178, 0.053782463
674, 705389428, -0.20138603, -0.10423183, 0.07116772, -0.97134686, 0.0046357703, -0.05861299, 0.032188416
675, 705406095, -0.20133036, -0.104288794, 0.07120122, -0.97134984, 0.015257497, -0.010787252, 0.09202576
676, 705422762, -0.20128837, -0.104358695, 0.07126714, -0.97134626, -0.02735128, -7.103521E-5, 0.10301876
677, 705439429, -0.20122609, -0.104437485, 0.07130718, -0.9713478, -0.065951005, 0.054866087, 0.09335041
678, 705456096, -0.20116773, -0.10454684, 0.071309105, -0.9713479, -0.06650453, 0.11185493, 0.06419563
679, 705472763, -0.20110631, -0.10468357, 0.07122959, -0.97135174, -0.05167065, 0.07219055, 0.058657646
680, 705489430, -0.2010077, -0.104848735, 0.07109909, -0.9713639, -0.07552342, 0.023057051, 0.08576298
681, 705506097, -0.2008652, -0.10500607, 0.071029894, -0.97138155, -0.077875376, -0.07426472, 0.06865692
682, 705522764, -0.20071939, -0.10510359, 0.071096554, -0.97139627, -0.08451774, -0.085497014, 0.05466652
683, 705539431, -0.2005928, -0.10515031, 0.07125674, -0.97140557, -0.09787262, -0.044196572, 0.06346893
684, 705556098, -0.20046704, -0.105180755, 0.07146708, -0.97141284, -0.040750742, -0.017241705, 0.08730793
685, 705572765, -0.20032294, -0.105271615, 0.071591474, -0.97142345, 0.017175643, 0.022125771, 0.0944128
686, 705589432, -0.20018525, -0.10540474, 0.07164289, -0.9714336, 0.03197575, 0.029819297, 0.067237854
687, 705606099, -0.20007387, -0.105545364, 0.071620755, -0.9714429, 0.01417128, 0.028724866, 0.052393913
688, 705622766, -0.19996592, -0.1056661, 0.07156867, -0.9714559, -0.020542461, -0.0097999815, 0.049396515
689, 705639433, -0.199853, -0.1057512, 0.07156893, -0.9714698, -0.11405419, -0.022785302, 0.06620312
690, 705656100, -0.19967927, -0.10579749, 0.07164431, -0.971495, -0.06660964, -0.09328037, 0.051384926
691, 705672767, -0.19947399, -0.10583979, 0.07175833, -0.97152424, -0.06400775, -0.027625028, 0.08116531
692, 705689434, -0.19933333, -0.10589266, 0.07189149, -0.9715375, 0.071496084, 0.044139616, 0.095225334
693, 705706101, -0.19932424, -0.10598791, 0.07181074, -0.9715348, 0.0528614, 0.19319282, 0.088498116
694, 705722768, -0.19937707, -0.1061206, 0.071401656, -0.9715396, 0.114227, 0.1465119, 0.062687874
695, 705739435, -0.19940336, -0.106317736, 0.07087825, -0.97155106, 0.09456856, 0.112219274, 0.05951214
696, 705756102, -0.19933042, -0.10653836, 0.07036358, -0.97157925, -0.029867966, 0.087287635, 0.07459736
697, 705772769, -0.1991379, -0.1067114, 0.069932826, -0.9716308, -0.108075105, 0.10071636, 0.067523
698, 705789436, -0.19884633, -0.106785, 0.06963876, -0.97170347, -0.11557455, -0.025790391, 0.026172638
699, 705806103, -0.19848046, -0.106848784, 0.069574594, -0.97177595, -0.0779882, -0.088419996, 0.06594467
700, 705822770, -0.19809787, -0.1069484, 0.06961504, -0.9718402, -0.008896053, -0.053442143, 0.069257736
701, 705839437, -0.19775543, -0.10704588, 0.069613695, -0.9718993, -7.8310556E-4, 0.006388112, 0.105381966
702, 705856104, -0.19746163, -0.107131906, 0.0694682, -0.97195995, 0.014338985, 0.009435921, 0.092559814
703, 705872771, -0.1972432, -0.107261635, 0.06921017, -0.9720084, 0.030849915, -0.09623297, 0.03491211
704, 705889438, -0.19709253, -0.10742696, 0.068977945, -0.97203714, -0.0050454, -0.16240278, 0.023145676
705, 705906105, -0.19697392, -0.1075795, 0.06881884, -0.9720556, -0.03977846, -0.1607209, 0.040361404
706, 705922772, -0.19684817, -0.107693516, 0.06869109, -0.9720776, -0.08845543, -0.108502336, 0.06413746
707, 705939439, -0.19673286, -0.107774705, 0.06860624, -0.9720979, -0.13942419, -0.07553232, 0.08076
708, 705956106, -0.19662173, -0.10780987, 0.06859559, -0.9721172, -0.14235672, -0.067915305, 0.07510185
709, 705972773, -0.19651955, -0.107817985, 0.06865818, -0.9721326, -0.12846185, -0.04822605, 0.07566166
710, 705989440, -0.19638851, -0.10781613, 0.06876302, -0.9721518, -0.16842845, -0.022318173, 0.06980991
711, 706006107, -0.19625656, -0.107793845, 0.0689204, -0.9721698, -0.09032997, -0.02166919, 0.080794334
712, 706022774, -0.19614293, -0.10778378, 0.06903395, -0.9721858, -0.064165264, 0.0075444984, 0.07034588
713, 706039441, -0.19601391, -0.10779035, 0.06908401, -0.9722075, -0.080877565, 0.06196972, 0.08872223
714, 706056108, -0.19588593, -0.107802816, 0.06903568, -0.97223544, -0.08130986, 0.08543368, 0.10543156
715, 706072775, -0.1957384, -0.107859604, 0.068919726, -0.97226703, -0.06839921, 0.066468924, 0.088329315
716, 706089442, -0.19559593, -0.10792649, 0.06877655, -0.9722984, -0.02646068, 0.018422721, 0.07518768
717, 706106109, -0.19544959, -0.1080002, 0.06864803, -0.97232866, 0.0057611163, -1.5095506E-4, 0.050219536
718, 706122776, -0.19530873, -0.108041234, 0.0685532, -0.97235924, -0.00784571, -0.0025601452, 0.050198555
719, 706139443, -0.19515108, -0.108053185, 0.06857385, -0.9723881, -8.487206E-4, -0.031115197, 0.04424858
720, 706156110, -0.19497131, -0.10805442, 0.06865682, -0.9724182, 0.0027307975, 0.018322112, 0.055872917
721, 706172777, -0.19532427, -0.10793716, 0.069148175, -0.9723255, -0.99452484, 0.073663205, -0.03794098
722, 706189444, -0.19509552, -0.10851219, 0.0699594, -0.97224945, 0.3838544, -0.3440718, 0.5076904
723, 706206111, -0.1948192, -0.10938648, 0.07094746, -0.9721351, 0.8890334, 1.0176581, -0.14225674
724, 706222778, -0.19474807, -0.10959788, 0.070694916, -0.9721441, 0.011715963, 0.75239867, -0.12136364
725, 706239445, -0.19423746, -0.1095356, 0.0691374, -0.9723653, 0.36670497, 0.019731514, 0.12097931
726, 706256112, -0.1937132, -0.10968655, 0.068021916, -0.97253144, -0.14763193, -0.12028189, -0.035185814
727, 706272779, -0.19306822, -0.10973879, 0.06794399, -0.97265935, 0.008270077, -0.1083646, 0.09515762
728, 706289446, -0.19216779, -0.1098622, 0.0678306, -0.9728315, 0.15660559, 0.041869313, 0.07843876
729, 706306113, -0.19138554, -0.10997448, 0.06698091, -0.97303194, 0.18202938, -0.01943666, 0.08437538
730, 706322780, -0.19081914, -0.11007812, 0.06564656, -0.9732223, -0.067624055, -0.3761448, 0.086488724
731, 706339447, -0.1903811, -0.1102747, 0.06450127, -0.97336245, -0.119046845, -0.4948298, 0.09070778
732, 706356114, -0.19015023, -0.110444784, 0.063985445, -0.9734224, -0.23833726, -0.48780468, 0.06441307
733, 706372781, -0.19009078, -0.11056152, 0.063773826, -0.97343457, -0.2034046, -0.27722773, 0.14138699
734, 706389448, -0.19014218, -0.110736184, 0.06340173, -0.97342896, -0.14180692, -0.08197045, 0.105911255
735, 706406115, -0.19018225, -0.11094897, 0.06286341, -0.9734319, -0.13021019, -0.06470175, 0.028396606
736, 706422782, -0.19019167, -0.11110011, 0.062415805, -0.9734415, -0.12476738, -0.1125908, -0.020866394
737, 706439449, -0.19028269, -0.11110505, 0.06237554, -0.97342575, -0.19239452, -0.12132248, 0.019536018
738, 706456116, -0.19043699, -0.110941015, 0.06272856, -0.97339165, -0.2277859, -0.14840312, 0.034251213
739, 706472783, -0.19058937, -0.11071268, 0.06317911, -0.97335863, -0.101852536, -0.08365235, 0.060461998
740, 706489450, -0.19074962, -0.110515796, 0.06352746, -0.97332704, -0.05238888, -0.013917356, 0.11060715
741, 706506117, -0.19090997, -0.1103956, 0.06376997, -0.9732934, -0.051163428, 0.04769695, 0.14807224
742, 706522784, -0.19103046, -0.110354654, 0.06390827, -0.97326535, -0.055738125, 0.07303697, 0.12099743
743, 706539451, -0.1910353, -0.110386185, 0.06394039, -0.9732587, -0.0440761, 0.09690376, 0.07417297
744, 706556118, -0.19097479, -0.1104086, 0.06392337, -0.97326916, -0.05080417, 0.14584263, 0.05146122
745, 706572785, -0.19086353, -0.11043239, 0.06391605, -0.9732887, -0.041696537, 0.13340843, 0.07165527
746, 706589452, -0.19072689, -0.11044636, 0.064037755, -0.9733059, -0.076073945, 0.11393063, 0.08201504
747, 706606119, -0.1905709, -0.11042925, 0.064233676, -0.97332543, -0.007614067, 0.15218219, 0.069122314
748, 706622786, -0.19044268, -0.11037988, 0.06442671, -0.9733433, -0.0057707136, 0.15410517, 0.046819687
749, 706639453, -0.19032611, -0.110340826, 0.06461376, -0.9733583, 0.0012290418, 0.08581291, 0.06181717
750, 706656120, -0.19017264, -0.110349536, 0.06473824, -0.97337896, 0.051819064, 0.07917861, 0.06957054
751, 706672787, -0.1900154, -0.11035337, 0.06475031, -0.97340846, 0.049332496, 0.08750025, 0.025482178
752, 706689454, -0.18991351, -0.11037083, 0.06469619, -0.97343, 0.017659703, 0.006501349, 0.03566456
753, 706706121, -0.18985166, -0.110430844, 0.06461438, -0.9734406, 0.018986546, -0.011777471, 0.08736324
754, 706722788, -0.18980095, -0.11049601, 0.064493544, -0.97345114, 0.0035597652, -0.012666018, 0.07579613
755, 706739455, -0.18975516, -0.11054491, 0.064308174, -0.9734668, -0.011276606, -0.033527546, 0.07152939
756, 706756122, -0.18973291, -0.11056186, 0.064125665, -0.9734813, -0.021092918, -0.06905136, 0.07357025
757, 706772789, -0.18970738, -0.11058269, 0.06396772, -0.9734943, -0.034952328, -0.08044895, 0.07473469
758, 706789456, -0.18967827, -0.110614896, 0.06386886, -0.97350276, -0.06583799, -0.061839174, 0.084552765
759, 706806123, -0.1895838, -0.11069065, 0.063687906, -0.9735244, -0.05395765, -0.015728286, 0.09977245
760, 706822790, -0.18939415, -0.110852875, 0.0635204, -0.9735538, -0.07957806, -0.06675966, 0.086322784
761, 706839457, -0.18912616, -0.11106267, 0.06339105, -0.97359043, -0.05468018, -0.09659031, 0.07191467
762, 706856124, -0.18883052, -0.11124375, 0.06314851, -0.9736428, -0.06933196, -0.043746278, 0.075146675
763, 706872791, -0.18854226, -0.11140591, 0.062872246, -0.9736981, -0.07547407, -0.084078446, 0.096839905
764, 706889458, -0.18817216, -0.11160248, 0.062815696, -0.9737508, -0.11781372, -0.1549338, 0.12401962
765, 706906125, -0.18776977, -0.11181357, 0.062968075, -0.97379434, -0.14594065, -0.18949287, 0.054696083
766, 706922792, -0.18739931, -0.11200422, 0.063242696, -0.97382593, -0.10247093, -0.12551731, 0.070248604
767, 706939459, -0.18703601, -0.1121304, 0.06341621, -0.97387004, -0.16361052, -0.03385326, 0.07063866
768, 706956126, -0.18671183, -0.11216937, 0.06360925, -0.9739152, -0.17024483, -0.05464914, 0.06256294
769, 706972793, -0.1864536, -0.11215944, 0.063888915, -0.9739475, -0.09801356, -0.12379067, 0.071370125
770, 706989460, -0.1861798, -0.112074755, 0.06412986, -0.97399384, -0.06025416, 0.009813211, 0.10821056
771, 707006127, -0.18594989, -0.11196749, 0.064391635, -0.97403276, -0.1059828, 0.11103392, 0.14469814
772, 707022794, -0.18562315, -0.111958414, 0.06473756, -0.9740732, -0.20907931, 0.084440835, 0.14811516
773, 707039461, -0.1851491, -0.111931115, 0.065020844, -0.9741478, -0.31055498, 0.09117281, -0.017786026
774, 707056128, -0.18468535, -0.11173732, 0.065520816, -0.9742245, -0.17866857, 0.14325106, -0.005569458
775, 707072795, -0.18421775, -0.11156451, 0.065777406, -0.97431564, 0.092466384, 0.12439235, 0.027749062
776, 707089462, -0.1838306, -0.11137658, 0.06584034, -0.97440594, 0.15144156, 0.1087195, 0.05350876
777, 707106129, -0.18350841, -0.11124616, 0.06605362, -0.97446716, 0.17404355, 0.050097916, 0.09254742
778, 707122796, -0.18313482, -0.111261465, 0.06634381, -0.974516, 0.23211206, 0.061655212, 0.09030914
779, 707139463, -0.18270028, -0.11137978, 0.0665493, -0.9745699, 0.13831, 0.15287924, 0.018998146
780, 707156130, -0.1822649, -0.11151675, 0.06647218, -0.9746412, 0.17004389, 0.10113275, -0.0073251724
781, 707172797, -0.18187907, -0.1116249, 0.066216886, -0.9747183, 0.21008341, -0.02834143, -0.01053524
782, 707189464, -0.18163076, -0.11166939, 0.06594034, -0.9747781, 0.15590109, -0.13875414, -0.033330917
783, 707206131, -0.18151397, -0.11157964, 0.06592468, -0.97481126, 0.1634681, -0.09583843, 0.02350998
784, 707222798, -0.18137592, -0.11150965, 0.06604673, -0.9748367, 0.22017293, 0.020827888, 0.06802368
785, 707239465, -0.18115583, -0.11161036, 0.065979965, -0.9748706, 0.22081357, 0.08659804, 0.06466484
786, 707256132, -0.18086028, -0.11186322, 0.0656737, -0.9749171, 0.1196622, 0.07484104, 0.044841766
787, 707272799, -0.18054152, -0.11209312, 0.065368466, -0.97497034, -0.02830814, -0.02892678, 0.07641125
788, 707289466, -0.18016191, -0.11232307, 0.06520279, -0.9750251, -0.0516741, 0.021003652, 0.07151222
789, 707306133, -0.17971252, -0.11267082, 0.065169536, -0.97507024, 0.02997039, 0.0031694137, 0.0936594
790, 707322800, -0.17922436, -0.113135226, 0.064882375, -0.9751255, 0.085177116, -0.0867647, 0.019180298
791, 707339467, -0.1786678, -0.11355701, 0.06474801, -0.97518754, 0.10495595, -0.11103665, 0.10813236
792, 707356134, -0.17798135, -0.11400247, 0.06492696, -0.9752491, 0.026741188, 0.06986449, 0.19023895
793, 707372801, -0.17716727, -0.11466442, 0.06528539, -0.9752958, -0.11439325, 0.092954054, 0.13668346
794, 707389468, -0.176341, -0.11546501, 0.06529917, -0.97535014, -0.22831361, 0.016341465, -0.026307106
795, 707406135, -0.17558025, -0.116032906, 0.065200694, -0.9754267, -0.14597116, 0.021485783, -0.031324387
796, 707422802, -0.17495982, -0.11641238, 0.065297335, -0.9754866, -0.36293533, 0.094862625, 0.073477745
797, 707439469, -0.17438729, -0.116883434, 0.065349385, -0.9755292, -0.18395738, 0.0027686271, 0.1581173
798, 707456136, -0.17343934, -0.11758441, 0.065426536, -0.9756087, 0.04887164, 7.083964E-5, 0.113809586
799, 707472803, -0.1721631, -0.11863523, 0.0655204, -0.9757013, 0.17749791, 0.26492494, 0.2785616
800, 707489470, -0.17078796, -0.120181136, 0.065199986, -0.97577536, 0.54439235, -0.17414525, 0.14644146
801, 707506137, -0.1694791, -0.12199456, 0.0643444, -0.9758352, 0.8619166, -0.52197635, -0.012868881
802, 707522804, -0.16865915, -0.12381805, 0.063604265, -0.97579616, 0.4821071, -0.7868111, -0.06649208
803, 707539471, -0.16806647, -0.12566875, 0.06337518, -0.9756766, 0.40778106, -0.7772108, 0.006644249
804, 707556138, -0.16727993, -0.1282609, 0.063498996, -0.97546643, 0.92451674, -0.73725516, -0.082470894
805, 707572805, -0.16725236, -0.13119613, 0.06475308, -0.97499824, 1.3944852, -1.2346859, -0.8356333
806, 707589472, -0.16910775, -0.13361256, 0.06667048, -0.9742206, 1.8742315, -2.4817157, -1.247796
807, 707606139, -0.17198154, -0.13669206, 0.06858109, -0.973157, 2.6046014, -3.6749322, -0.35560894
808, 707622806, -0.17583498, -0.14059773, 0.07335445, -0.9715625, 2.3868349, -2.170178, -0.17397785
809, 707639473, -0.18081106, -0.14416568, 0.080263495, -0.9695781, 1.165915, -1.3555363, -0.016462326
810, 707656140, -0.18530944, -0.1498194, 0.09299506, -0.96673, 0.87012357, -1.5209745, 0.5177698
811, 707672807, -0.18788746, -0.15733731, 0.10480816, -0.9638251, 1.6895653, 0.9919383, 0.33079147
812, 707689474, -0.18950759, -0.16638076, 0.114702076, -0.96085805, 2.4952428, 2.4938636, 0.72268486
813, 707706141, -0.18943802, -0.17711043, 0.11867771, -0.95846814, 3.7027225, 4.123074, 1.2385654
814, 707722808, -0.18736105, -0.18854804, 0.1157484, -0.95705193, 3.6107693, 3.7896044, 0.4733591
815, 707739475, -0.18402499, -0.19862765, 0.1082514, -0.95653754, 3.0265946, 1.760566, -0.5544281
816, 707756142, -0.18132538, -0.20768942, 0.101026945, -0.95591843, -1.1922903, -0.76273835, -0.014838219
817, 707772809, -0.17896956, -0.2167703, 0.09788418, -0.9546725, -3.516611, -2.248958, 0.2826004
818, 707789476, -0.17701468, -0.22616571, 0.09974641, -0.95266265, -2.6631286, -2.2782629, 0.30933475
819, 707806143, -0.17574362, -0.23597014, 0.10354864, -0.9501106, -1.0147609, -0.6240672, 0.5715246
820, 707822810, -0.17518939, -0.24612378, 0.10679835, -0.94727314, -0.8637714, 0.13762087, 0.65328217
821, 707839477, -0.17535144, -0.2566477, 0.109941304, -0.9440853, -1.229521, 0.061123528, 0.5253372
822, 707856144, -0.17600262, -0.26757967, 0.11341322, -0.94051164, -1.2850527, 7.7139906E-4, 0.59829617
823, 707872811, -0.17671543, -0.27875262, 0.116989486, -0.93668693, -1.2258973, 0.34604797, 0.5322914
824, 707889478, -0.17728709, -0.29028803, 0.12014738, -0.9326667, -1.0004171, 0.677064, 0.6734829
825, 707906145, -0.17774425, -0.30226144, 0.12271238, -0.92843264, -0.95858973, 0.9105982, 0.84560776
826, 707922812, -0.17805417, -0.31452215, 0.12509625, -0.92397183, -1.1865647, 0.67660224, 0.7414627
827, 707939479, -0.17824492, -0.32694963, 0.12788448, -0.91922724, -1.188965, 0.6161265, 0.5512972
828, 707956146, -0.1782271, -0.3396307, 0.13084602, -0.91420233, -1.1213869, 0.7808708, 0.43730927
829, 707972813, -0.17789243, -0.35271624, 0.13350293, -0.9089131, -1.1216211, 0.89308333, 0.44116116
830, 707989480, -0.17725413, -0.36590415, 0.13555716, -0.903504, -1.0646458, 1.0761837, 0.48311138
831, 708006147, -0.17628855, -0.3794867, 0.13655123, -0.89792323, -0.8069373, 1.046472, 0.44808388
832, 708022814, -0.17502612, -0.39345002, 0.13637179, -0.89216924, -0.80424017, 1.0589039, 0.3017683
833, 708039481, -0.1735915, -0.40762508, 0.1352535, -0.88623613, -1.0050516, 0.76010066, 0.099261284
834, 708056148, -0.17198862, -0.42202783, 0.13384102, -0.8799996, -0.8083746, 0.31861487, 0.02791214
835, 708072815, -0.17047094, -0.4361872, 0.13251927, -0.8735672, -0.9081827, 0.28415123, -0.058156967
836, 708089482, -0.1688661, -0.45020744, 0.13103724, -0.86696434, -0.6253262, 0.38373727, -0.10723972
837, 708106149, -0.1671291, -0.46407452, 0.12921843, -0.86023587, -0.4214853, 0.41337296, -0.19783497
838, 708122816, -0.16527566, -0.47786525, 0.1269494, -0.853354, -0.6388747, 0.5574646, -0.3197384
839, 708139483, -0.16348107, -0.49140137, 0.12474489, -0.8463084, -0.5506977, 0.37513632, -0.25013447
840, 708156150, -0.16155304, -0.5045588, 0.12284421, -0.83918446, -0.87454784, 0.62689465, -0.4513893
841, 708172817, -0.15974502, -0.51736015, 0.12144564, -0.83190817, -0.69202477, 0.5916686, -0.34849072
842, 708189484, -0.15775986, -0.5300869, 0.119775005, -0.82448417, -1.1418368, 0.24674529, -0.29349613
843, 708206151, -0.15599304, -0.5425812, 0.11814884, -0.8168924, -1.0739149, -0.6254389, -0.28753948
844, 708222818, -0.15462957, -0.55510366, 0.11702824, -0.80886, -1.2432268, -0.6223772, -0.37364864
845, 708239485, -0.15417911, -0.56721807, 0.11732356, -0.800455, -1.1221048, -0.28930923, -0.15391064
846, 708256152, -0.15402609, -0.5787685, 0.11787472, -0.7920914, -1.1350863, 0.009085522, -0.061073303
847, 708272819, -0.15384242, -0.5902313, 0.118407704, -0.7835429, -1.3783617, -0.083874576, -0.37272644
848, 708289486, -0.15391275, -0.60183316, 0.11928448, -0.7745188, -1.2660724, 0.15401842, -0.739378
849, 708306153, -0.15380034, -0.61371046, 0.120735005, -0.7649369, -0.9774255, 0.6220259, -0.90642834
850, 708322820, -0.15338323, -0.625294, 0.12175718, -0.755418, -0.11097677, 0.6086728, -0.5545311
851, 708339487, -0.15261477, -0.63630223, 0.122041404, -0.74628043, 0.35389215, 0.76849675, -0.31924725
852, 708356154, -0.15091707, -0.6470259, 0.12120297, -0.73749006, 0.22211668, 0.46078733, -0.3818121
853, 708372821, -0.15022136, -0.6567821, 0.12175157, -0.7288674, -0.4700973, 0.1864911, -0.64816666
854, 708389488, -0.14921562, -0.66601366, 0.121927, -0.72062105, 0.07075115, -0.8092961, -0.8221998
855, 708406155, -0.14816788, -0.6747435, 0.12215409, -0.71263325, 0.36480334, -0.5187036, -0.2982931
856, 708422822, -0.14637846, -0.68245846, 0.12154508, -0.7057275, 1.2452912, -1.563959, 0.27520847
857, 708439489, -0.14493403, -0.68869734, 0.12120916, -0.69999915, 0.7996039, -2.2072763, 0.29894638
858, 708456156, -0.14584355, -0.69354516, 0.122734286, -0.69473845, 0.46912056, -2.3491192, 0.26675987
859, 708472823, -0.14884348, -0.69798434, 0.1258508, -0.6890758, 0.4560709, -1.4298099, -0.055991173
860, 708489490, -0.15179044, -0.70215726, 0.1289297, -0.6836025, 0.6784029, 0.10118856, 0.21751022
861, 708506157, -0.15325333, -0.70587707, 0.13071932, -0.6790905, 1.1059762, 0.9802298, 0.64111805
862, 708522824, -0.15362002, -0.7087824, 0.13199098, -0.6757271, 0.82889587, 0.74814445, 0.4380598
863, 708539491, -0.15359826, -0.7107854, 0.13281283, -0.67346317, 0.0990541, 0.072374724, 0.120147705
864, 708556158, -0.15294129, -0.71241355, 0.1325087, -0.67195064, 0.3070306, -0.34432897, 0.099778175
865, 708572825, -0.15193917, -0.71341705, 0.13119517, -0.6713707, 0.8352039, -0.04096981, 0.6479082
866, 708589492, -0.15129928, -0.71343046, 0.13048014, -0.67164034, 0.15093087, 0.24908797, 0.6454153
867, 708606159, -0.15109836, -0.71358496, 0.13092157, -0.6714356, -1.2516513, -0.2570265, 0.012649536
868, 708622826, -0.15119013, -0.71414715, 0.13199395, -0.6706066, -1.8067013, -0.4668153, -0.27360916
869, 708639493, -0.15115236, -0.71538866, 0.13252978, -0.6691847, -1.291368, -0.15996833, -0.0925827
870, 708656160, -0.15045412, -0.71688795, 0.1318949, -0.66786176, -0.05196615, 0.4934704, 0.32760143
871, 708672827, -0.15008877, -0.7175665, 0.13111354, -0.66736895, 0.5263428, 0.8944138, 0.4866104
872, 708689494, -0.15017211, -0.71727866, 0.13080718, -0.6677196, -0.48977283, 0.45502517, 0.35290146
873, 708706161, -0.14974992, -0.7174159, 0.130672, -0.66769344, -1.0142198, -0.7137626, -0.1242075
874, 708722828, -0.14974399, -0.7178415, 0.13123502, -0.66712683, -0.9386242, -0.023980593, -0.100343704
875, 708739495, -0.14927253, -0.7185005, 0.13131623, -0.66650665, -0.48566097, 0.32891506, 0.14468479
876, 708756162, -0.14832945, -0.7191326, 0.13066663, -0.66616315, -0.24391556, -0.10589876, 0.2604761
877, 708772829, -0.14753129, -0.71943235, 0.1298027, -0.6661857, 0.27172035, 0.0058638626, 0.24755192
878, 708789496, -0.14749928, -0.71912324, 0.12952462, -0.6665803, -0.09046178, 0.25051415, 0.089855194
879, 708806163, -0.14822209, -0.7187716, 0.12980865, -0.66674405, -0.73022854, -0.21955644, 0.028046608
880, 708822830, -0.14902887, -0.7183879, 0.13058995, -0.6668251, -0.9635932, -0.16807415, 0.075751305
881, 708839497, -0.14955907, -0.7182833, 0.13120584, -0.6666983, -0.68559754, 0.3964495, 0.07397461
882, 708856164, -0.14938374, -0.71824753, 0.13105676, -0.6668054, -0.37139404, 0.6257747, 0.23082256
883, 708872831, -0.14867102, -0.7180316, 0.13014726, -0.66737515, -0.28617376, 0.71649116, 0.38584232
884, 708889498, -0.1476084, -0.71773386, 0.12889309, -0.6681744, -0.4419355, 0.3420394, 0.2282114
885, 708906165, -0.1468588, -0.71744186, 0.12780246, -0.66886204, -0.760385, 0.10498661, 0.12116718
886, 708922832, -0.14638993, -0.717173, 0.12708269, -0.6693902, -0.7353325, -0.034074437, 0.022500038
887, 708939499, -0.14600486, -0.71688116, 0.12640744, -0.6699145, -0.7045224, -0.06312252, 0.11244011
888, 708956166, -0.1452603, -0.7165972, 0.12546037, -0.6705579, -0.43731153, -0.05907928, 0.09436798
889, 708972833, -0.14411063, -0.7161414, 0.124022804, -0.6715596, -0.09743726, -0.035832033, 0.22062588
890, 708989500, -0.14308098, -0.71532017, 0.122699894, -0.6728966, 0.09686016, -0.09881832, 0.22187614
891, 709006167, -0.14260536, -0.7143358, 0.12185635, -0.6741954, -0.04466817, -0.13682938, 0.10015869
892, 709022834, -0.14273833, -0.7130566, 0.12162772, -0.6755613, -0.24092473, 0.10940065, 0.0989151
893, 709039501, -0.14260031, -0.7115155, 0.12112346, -0.6773039, -0.14344282, -0.018528888, 0.20868683
894, 709056168, -0.14286996, -0.70970917, 0.12079683, -0.6791976, -0.44447547, 0.22949573, 0.2840376
895, 709072835, -0.14335965, -0.70766973, 0.1207244, -0.68123245, -0.9935576, -0.081518866, 0.2453022
896, 709089502, -0.1433949, -0.70581347, 0.12043398, -0.68319935, -0.96592194, -0.041205395, 0.03325939
897, 709106169, -0.14284582, -0.70379275, 0.119228214, -0.68560624, -0.48550022, 0.20913671, 0.197608
898, 709122836, -0.14185467, -0.70150876, 0.11710815, -0.6885121, -9.803558E-4, -0.05741042, 0.2785263
899, 709139503, -0.14103736, -0.69902563, 0.115338765, -0.69149756, -0.09279855, 0.119556636, 0.2118082
900, 709156170, -0.14034422, -0.6962719, 0.11387273, -0.6946527, -0.12370055, 0.1944955, 0.19937325
901, 709172837, -0.13913514, -0.6929713, 0.11180725, -0.6985212, 0.16949354, 0.13539347, 0.23559952
902, 709189504, -0.13858539, -0.68883973, 0.10987236, -0.7030096, 0.19088396, 0.34434846, 0.38088894
903, 709206171, -0.13941427, -0.6837079, 0.109255165, -0.70793414, -0.40905166, -0.4985434, 0.39434052
904, 709222838, -0.1406913, -0.67841226, 0.10972702, -0.7126871, -0.7663666, -1.3825777, -0.06718731
905, 709239505, -0.1423385, -0.67334545, 0.11092698, -0.71696657, -0.61955535, -1.2627637, -0.26254463
906, 709256172, -0.14424162, -0.6678889, 0.1130281, -0.7213486, 0.11129846, -0.1824562, 0.08018589
907, 709272839, -0.14560352, -0.66166824, 0.11436488, -0.72657824, 1.1727409, -0.18907648, 0.27193737
908, 709289506, -0.14724576, -0.654668, 0.11573713, -0.73234826, 1.278206, -1.0672078, 0.21629333
909, 709306173, -0.15016724, -0.64636844, 0.118486404, -0.73866034, 0.23895666, -1.7457924, 0.10520077
910, 709322840, -0.15430158, -0.63672805, 0.12275581, -0.7454528, -0.47894803, -1.6308612, -0.18324566
911, 709339507, -0.15832923, -0.62689066, 0.1280651, -0.75202364, -0.383651, -0.8223587, -0.34840393
912, 709356174, -0.16166487, -0.6165574, 0.13331228, -0.75891346, 0.7066728, -0.13197367, -0.585063
913, 709372841, -0.16392425, -0.6063179, 0.13671683, -0.76603943, 1.6620222, -0.41206944, -0.28657627
914, 709389508, -0.16573147, -0.59580606, 0.13892467, -0.7734654, 1.3191706, -1.1733248, 0.05031967
915, 709406175, -0.16743582, -0.5849594, 0.14036411, -0.78107995, 0.69539493, -1.1950479, -0.35308647
916, 709422842, -0.17027545, -0.57314926, 0.14305325, -0.78869677, -0.46844327, -0.07951764, -0.6630688
917, 709439509, -0.17349407, -0.56055933, 0.1469656, -0.79628783, -0.08595875, -0.24333777, -1.0346298
918, 709456176, -0.17623036, -0.5481567, 0.15188117, -0.80336744, 1.1585891, -0.535604, -1.0507717
919, 709472843, -0.17824112, -0.5362367, 0.1548731, -0.81036735, 0.9963557, 0.12650459, -0.7422199
920, 709489510, -0.17955288, -0.52408797, 0.1557796, -0.8178176, 0.32110462, 0.60424805, -0.63218117
921, 709506177, -0.18092102, -0.51157814, 0.1561193, -0.82533795, 0.5241164, 0.76271915, -0.7158451
922, 709522844, -0.18285759, -0.49896878, 0.15773673, -0.8322936, 0.20626713, 0.26721695, -1.0516958
923, 709539511, -0.18406714, -0.48708606, 0.16008736, -0.8385935, 0.13434696, 0.14099477, -0.5624857
924, 709556178, -0.18357755, -0.47599763, 0.16080444, -0.844907, 0.40333557, 1.013279, -0.116374016
925, 709572845, -0.18234098, -0.46517757, 0.15942632, -0.8514372, -0.5112007, 1.2189176, -0.44287777
926, 709589512, -0.1811082, -0.45388848, 0.15780121, -0.85807014, -0.46248597, 0.6823514, -0.76953125
927, 709606179, -0.18015762, -0.44285753, 0.15758689, -0.86405283, -0.61200494, 0.6601056, -0.4118452
928, 709622846, -0.1789699, -0.43204206, 0.15766175, -0.8697429, -1.4367517, 1.2127093, 0.47346115
929, 709639513, -0.17703664, -0.4216102, 0.15684499, -0.8753873, -1.3839722, 0.97069037, 0.8819008
930, 709656180, -0.17423312, -0.41188315, 0.15400133, -0.88106704, -1.099223, 0.58225405, 0.3150463
931, 709672847, -0.17193559, -0.40223414, 0.15026581, -0.8866037, -0.81869465, -0.089586675, 0.084923744
932, 709689514, -0.17073643, -0.39220864, 0.14680491, -0.8918913, -0.9323278, 0.12263809, -0.029851913
933, 709706181, -0.16991587, -0.3820168, 0.14355312, -0.89698637, -0.7427958, 1.173937, 0.505414
934, 709722848, -0.16878012, -0.37232816, 0.13944387, -0.9019095, -0.630844, 1.4281168, 1.0479593
935, 709739515, -0.16729873, -0.3634247, 0.13444935, -0.9065636, -1.2954717, -0.36476934, 0.79284
936, 709756182, -0.16566846, -0.35534766, 0.12960327, -0.9107608, -1.0768293, -1.3304148, -0.0495615
937, 709772849, -0.16480947, -0.34785366, 0.1257619, -0.91434133, -0.18104056, -0.84268236, -0.07952118
938, 709789516, -0.1651959, -0.33980262, 0.12298888, -0.9176702, 0.22735524, 0.14387813, 0.32405376
939, 709806183, -0.16591693, -0.33157024, 0.12039625, -0.9208897, -0.26288602, 1.0884596, 1.0686378
940, 709822850, -0.16605349, -0.3238646, 0.11770354, -0.9239504, -1.224791, 0.74949557, 1.4452591
941, 709839517, -0.16560006, -0.31698507, 0.11549602, -0.92669195, -1.7034824, -0.7470449, 0.7808933
942, 709856184, -0.16502261, -0.31136253, 0.113611706, -0.92893153, -0.8359853, -0.52228045, 0.47711086
943, 709872851, -0.16509363, -0.30642036, 0.11130498, -0.93083966, 0.1107503, -0.011363398, 0.8394995
944, 709889518, -0.16583131, -0.30135256, 0.10909517, -0.93262285, 0.101600215, 0.45118785, 0.6192236
945, 709906185, -0.16665596, -0.29644498, 0.10727423, -0.9342584, -0.29963532, 0.2638182, 0.5643282
946, 709922852, -0.16702402, -0.29205775, 0.10596781, -0.9357224, -0.69936734, -0.31927976, 0.19930649
947, 709939519, -0.16703641, -0.28809416, 0.104702115, -0.9370905, -0.5282407, 0.026408447, 0.51529217
948, 709956186, -0.16709375, -0.2847067, 0.10290033, -0.9383144, -0.28442633, 0.5950626, 0.445117
949, 709972853, -0.16716582, -0.2818238, 0.10081154, -0.93939793, 0.14814171, 0.31384015, 0.19406891
950, 709989520, -0.16736785, -0.27916983, 0.09912967, -0.94033283, 0.013320268, -0.608994, 0.10621166
951, 710006187, -0.16783853, -0.27626866, 0.098149784, -0.9412082, -0.35802522, -0.8221782, -0.11236191
952, 710022854, -0.16868132, -0.27301496, 0.09776986, -0.94204617, -0.30751383, -0.79461366, -0.25780964
953, 710039521, -0.16980068, -0.26954818, 0.09749451, -0.9428715, -0.21151374, -0.31443155, -0.18567371
954, 710056188, -0.17091613, -0.26596102, 0.09694144, -0.94374526, -0.055773873, 0.45772702, -0.12331581
955, 710072855, -0.17164585, -0.2624598, 0.09578297, -0.9447109, 0.3695215, 0.779107, 0.13616848
956, 710089522, -0.17189282, -0.25926697, 0.09423451, -0.9457028, 0.57785153, 0.3469117, -0.09554958
957, 710106189, -0.17214464, -0.25619453, 0.09347146, -0.9465697, 0.7311106, -0.5148846, -0.23190498
958, 710122856, -0.17273712, -0.25301355, 0.09327529, -0.9473365, 0.3688058, -0.27587673, -0.15396023
959, 710139523, -0.17338349, -0.24993138, 0.092831716, -0.94807976, 0.2755758, 0.07066457, 0.3239746
960, 710156190, -0.17376012, -0.24712238, 0.09173811, -0.9488532, -0.28551114, 0.09886735, 0.6915779
961, 710172857, -0.17399497, -0.24455512, 0.09025156, -0.9496176, -0.53908134, -0.48340386, 0.7237005
962, 710189524, -0.17442973, -0.242127, 0.08893545, -0.950284, -0.59363, -1.544711, 0.3296032
963, 710206191, -0.1751021, -0.23975892, 0.088154346, -0.9508334, 0.1867611, -1.7198815, 0.078855515
964, 710222858, -0.1758579, -0.23665683, 0.08784141, -0.95149976, 0.4339266, -0.96423846, -0.7129593
965, 710239525, -0.17671072, -0.23222539, 0.087510504, -0.9524637, 0.38937795, -0.770402, -1.2199259
966, 710256192, -0.1775354, -0.22791155, 0.088007554, -0.9533061, 1.3819388, -0.8113185, -1.2264128
967, 710272859, -0.17877375, -0.22362588, 0.08894623, -0.95400226, 1.3729125, 0.46893567, -0.6157322
968, 710289526, -0.17980942, -0.21947281, 0.08940978, -0.9547285, 0.7879119, 1.1386645, 0.1473608
969, 710306193, -0.1798729, -0.21581955, 0.08904034, -0.95558345, 1.0259936, 0.9973479, 0.023448944
970, 710322860, -0.17903095, -0.21244721, 0.088106975, -0.9565833, 0.88644457, 0.9602696, -0.015485764
971, 710339527, -0.17781135, -0.20935363, 0.08661347, -0.95762855, 0.5062794, 0.8799783, 0.16923046
972, 710356194, -0.17654206, -0.20667937, 0.08482311, -0.9586041, 0.046091963, 0.45537752, 0.3577814
973, 710372861, -0.17515813, -0.20443273, 0.08304862, -0.9594947, -0.21641183, 0.06150364, 0.4098835
974, 710389528, -0.17373133, -0.2025791, 0.08117482, -0.9603073, -0.2485101, 0.0051216874, 0.6185961
975, 710406195, -0.172456, -0.20112798, 0.079054005, -0.9610189, -0.36346292, -0.20372407, 0.504323
976, 710422862, -0.17145392, -0.1999811, 0.0769827, -0.9616055, -0.44823384, -0.46525905, 0.25496674
977, 710439529, -0.17096399, -0.19912249, 0.075230256, -0.96200955, -0.55549324, -0.76785886, 0.31948948
978, 710456196, -0.17087375, -0.19850583, 0.07391349, -0.96225506, -0.5529164, -0.7664912, 0.42361164
979, 710472863, -0.1709756, -0.1980761, 0.0728829, -0.9624041, -0.42233098, -0.3642278, 0.38968754
980, 710489530, -0.17123409, -0.19776519, 0.07200755, -0.96248794, -0.3892118, -0.3669781, 0.23857021
981, 710506197, -0.17173564, -0.19728795, 0.07147097, -0.96253645, -0.5352949, -0.4201377, 0.055171967
982, 710522864, -0.17246145, -0.19671042, 0.07136813, -0.9625325, -0.38778546, -0.5403628, 0.03728676
983, 710539531, -0.17340812, -0.19598834, 0.071711905, -0.9624843, -0.34954265, -0.31196448, 0.06273174
984, 710556198, -0.17457488, -0.19511572, 0.07243952, -0.9623962, -0.18844876, -0.07202727, 0.11256027
985, 710572865, -0.17573172, -0.19426122, 0.07307558, -0.96231025, -0.24846242, 0.13603605, 0.090112686
986, 710589532, -0.1767998, -0.19331591, 0.07344205, -0.96227723, -0.3233277, 0.21899213, 0.1530819
987, 710606199, -0.17775463, -0.19224936, 0.07371403, -0.9622941, -0.3683323, 0.2271387, 0.07239914
988, 710622866, -0.17855747, -0.19102877, 0.073999874, -0.9623667, -0.35337767, 0.22657813, 0.09703541
989, 710639533, -0.17915472, -0.18983053, 0.074150175, -0.96248126, -0.26563084, 0.28381842, 0.05902958
990, 710656200, -0.17958371, -0.18858303, 0.074035816, -0.96265525, -0.22589995, 0.40212783, 0.098436356
991, 710672867, -0.17980638, -0.18734446, 0.07361676, -0.9628877, -0.09529782, 0.36165923, 0.14935589
992, 710689534, -0.17986196, -0.1860914, 0.07288529, -0.9631759, -0.110035874, 0.35723224, 0.06642246
993, 710706201, -0.17979124, -0.18481511, 0.072039396, -0.9634985, -0.11642316, 0.27250573, 0.07360268
994, 710722868, -0.17965014, -0.18348138, 0.071093135, -0.96384984, -0.15980358, 0.18213739, 0.049804688
995, 710739535, -0.17950945, -0.18210645, 0.07008513, -0.9642107, -0.19646114, 0.05160154, 0.010684967
996, 710756202, -0.17940801, -0.18072894, 0.06899571, -0.9645672, -0.15153901, -0.13659807, -0.05648327
997, 710772869, -0.17938203, -0.1793269, 0.06784957, -0.9649148, -0.13023059, -0.24513364, 0.0065021515
998, 710789536, -0.17946804, -0.17779404, 0.066799074, -0.96525574, -0.18322329, -0.3662776, 0.13942814
999, 710806203, -0.179606, -0.17617743, 0.06593309, -0.965586, -0.16606438, -0.3388432, 0.15768051
1000, 710822870, -0.179921, -0.17451328, 0.065182544, -0.9658804, -0.18524899, -0.37762687, 0.054808617
1001, 710839537, -0.18041314, -0.1728115, 0.064487614, -0.9661412, -0.14864807, -0.6019264, 0.0487442
1002, 710856204, -0.18116456, -0.17107254, 0.064115845, -0.9663349, -0.24810016, -0.71250063, 0.081890106
1003, 710872871, -0.18210135, -0.16924909, 0.06405819, -0.9664837, -0.25417727, -0.7276978, 0.09004974
1004, 710889538, -0.18320829, -0.16744575, 0.064304896, -0.96657217, -0.13835126, -0.6749935, 0.011590958
1005, 710906205, -0.18449937, -0.16563702, 0.06471966, -0.9666106, -0.077803746, -0.56564146, 0.015222549
1006, 710922872, -0.18591002, -0.16384585, 0.06527324, -0.9666084, -0.048479624, -0.44828287, 0.03853035
1007, 710939539, -0.18734458, -0.16211185, 0.06583639, -0.9665856, -0.05676169, -0.27548084, 0.04633236
1008, 710956206, -0.18873376, -0.16037412, 0.06640837, -0.96656615, -0.06032507, -0.1981561, 0.011254311
1009, 710972873, -0.1900224, -0.1586475, 0.06709927, -0.96655095, 0.006961842, -0.082163446, 0.07555294
1010, 710989540, -0.19119671, -0.15701489, 0.06783055, -0.96653485, 0.122044735, 0.10131465, 0.13788891
1011, 711006207, -0.19226865, -0.15541819, 0.06846687, -0.9665354, 0.110220775, 0.28495184, 0.17458057
1012, 711022874, -0.19326694, -0.15387237, 0.069087066, -0.9665394, 0.1915679, 0.29989386, 0.09214401
1013, 711039541, -0.19414726, -0.1524341, 0.06961659, -0.966553, 0.23548836, 0.370525, 0.017900467
1014, 711056208, -0.19495258, -0.15113321, 0.069923036, -0.96657294, 0.30280894, 0.41448578, 0.061371803
1015, 711072875, -0.19564107, -0.14994344, 0.06998665, -0.9666146, 0.29983625, 0.37992814, 0.043701172
1016, 711089542, -0.196209, -0.1489101, 0.069919296, -0.966664, 0.30097783, 0.37168744, 0.06308365
1017, 711106209, -0.19662215, -0.14802797, 0.06980277, -0.9667239, 0.33467153, 0.38201043, 0.06924629
1018, 711122876, -0.19680512, -0.14723732, 0.069585435, -0.96682316, 0.34630296, 0.41750124, 0.09236431
1019, 711139543, -0.1967683, -0.14660044, 0.069182694, -0.9669564, 0.38841468, 0.38122165, 0.143404
1020, 711156210, -0.19652575, -0.14617045, 0.068617284, -0.967111, 0.4050992, 0.238159, 0.10655117
1021, 711172877, -0.19612549, -0.14592253, 0.06794061, -0.96727747, 0.39012772, 0.056190375, -0.010300636
1022, 711189544, -0.19564067, -0.14579943, 0.067340404, -0.96743625, 0.32172108, 0.0068638036, 0.034362793
1023, 711206211, -0.19506218, -0.14570025, 0.06675126, -0.9676088, 0.2161593, -1.6299682E-4, 0.07713318
1024, 711222878, -0.19441494, -0.14562446, 0.06613174, -0.96779305, 0.13055877, -0.01534341, 0.09903908
1025, 711239545, -0.19376595, -0.14557473, 0.06550642, -0.9679731, 0.063680604, -0.05853131, 0.049310684
1026, 711256212, -0.19317606, -0.14551248, 0.06490448, -0.96814084, 0.04205223, -0.13079497, -0.0059318542
1027, 711272879, -0.19262938, -0.14546798, 0.06432108, -0.96829545, 0.024098845, -0.15430401, 0.020746231
1028, 711289546, -0.19211482, -0.14547588, 0.063745156, -0.9684345, -0.016120732, -0.160281, 0.06481266
1029, 711306213, -0.19164151, -0.1455023, 0.06314331, -0.96856374, -0.04776666, -0.15446098, 0.0756979
1030, 711322880, -0.19125514, -0.14559121, 0.06251732, -0.96866745, -0.097276315, -0.18085752, 0.040245056
1031, 711339547, -0.19093542, -0.1456573, 0.061919518, -0.96875894, -0.19406545, -0.14383908, 0.06561375
1032, 711356214, -0.19070914, -0.14565554, 0.061302233, -0.9688431, -0.25956458, -0.12615032, 0.11513424
1033, 711372881, -0.19052796, -0.14562385, 0.060722683, -0.9689199, -0.2894485, -0.17608252, 0.13566017
1034, 711389548, -0.19037242, -0.14557345, 0.060246427, -0.96898776, -0.27977732, -0.20424184, 0.122470856
1035, 711406215, -0.19022737, -0.14551392, 0.059871048, -0.96904856, -0.22006549, -0.2083334, 0.1157074
1036, 711422882, -0.19013219, -0.14545295, 0.05954876, -0.9690961, -0.18147717, -0.17417842, 0.09484291
1037, 711439549, -0.19008096, -0.14541562, 0.059241045, -0.9691307, -0.14442961, -0.20289338, 0.10467434
1038, 711456216, -0.19008498, -0.14538148, 0.059014436, -0.9691489, -0.16468185, -0.17213252, 0.08663082
1039, 711472883, -0.19014621, -0.14528894, 0.058911756, -0.96915704, -0.17921004, -0.15999174, 0.068862915
1040, 711489550, -0.19019571, -0.14519948, 0.05887536, -0.96916294, -0.1880693, -0.20070167, 0.11732006
1041, 711506217, -0.19019897, -0.14507228, 0.058926772, -0.9691782, -0.19507143, -0.15664582, 0.11546421
1042, 711522884, -0.19021943, -0.14491837, 0.058973882, -0.96919423, -0.114553824, -0.11968012, 0.10080242
1043, 711539551, -0.19030148, -0.14477305, 0.059024177, -0.9691968, -0.082882784, -0.13135155, 0.06604195
1044, 711556218, -0.19039342, -0.14458533, 0.059095047, -0.96920246, -0.09776162, -0.12907174, 0.068086624
1045, 711572885, -0.19045703, -0.14442968, 0.059164144, -0.9692091, -0.050506447, -0.12373035, 0.08960152
1046, 711589552, -0.19053112, -0.14428802, 0.05929552, -0.9692075, -0.040886477, -0.11780502, 0.057577133
1047, 711606219, -0.19064981, -0.14416295, 0.059505336, -0.96919, -0.03588006, -0.14357713, 0.032992363
1048, 711622886, -0.1907947, -0.1440458, 0.05976089, -0.9691632, 5.444985E-4, -0.12791178, 0.022368431
1049, 711639553, -0.19096598, -0.1439042, 0.06004406, -0.96913284, 0.009853953, -0.106978945, 0.051883698
1050, 711656220, -0.19114073, -0.14375322, 0.060303103, -0.9691047, 2.367561E-4, -0.07489883, 0.09153175
1051, 711672887, -0.1912997, -0.14362603, 0.060517326, -0.96907896, 0.046624914, -0.08022123, 0.07928181
1052, 711689554, -0.19145937, -0.14352207, 0.06072431, -0.96904993, 0.072197296, -0.0497028, 0.055996895
1053, 711706221, -0.19162314, -0.14342791, 0.06090198, -0.96902025, 0.085102476, -0.04343907, 0.03525448
1054, 711722888, -0.19176415, -0.14336939, 0.061066836, -0.9689906, 0.0655707, -0.012403712, 0.047068596
1055, 711739555, -0.19187668, -0.14333105, 0.061176896, -0.9689671, 0.028437177, 0.04558326, 0.08364582
1056, 711756222, -0.1919647, -0.14329259, 0.0612558, -0.96895033, -0.0129479235, 0.043196198, 0.097447395
1057, 711772889, -0.19200864, -0.14324434, 0.061340977, -0.9689434, -0.03966328, 0.020200681, 0.10007477
1058, 711789556, -0.1920113, -0.14323224, 0.06141532, -0.96893996, -0.025152933, 0.013193523, 0.059734344
1059, 711806223, -0.19201338, -0.14324258, 0.061469566, -0.9689346, 0.0172473, 0.005623977, 0.03758526
1060, 711822890, -0.19203496, -0.14325404, 0.06148407, -0.96892774, -0.011480156, 0.08099707, 0.087283134
1061, 711839557, -0.19206207, -0.14326504, 0.061403405, -0.96892583, -0.04251553, 0.047406398, 0.10975838
1062, 711856224, -0.19203019, -0.1432969, 0.061287854, -0.9689347, -0.076651074, 0.04209942, 0.11234188
1063, 711872891, -0.1919613, -0.14331919, 0.061221994, -0.9689493, -0.100966014, 0.0027731252, 0.090213776
1064, 711889558, -0.19186816, -0.14330766, 0.061197564, -0.9689711, -0.0887909, 0.011110801, 0.09966469
1065, 711906225, -0.19174606, -0.14329648, 0.061117437, -0.96900177, -0.059211418, 0.0027482035, 0.072751045
1066, 711922892, -0.1916422, -0.14330877, 0.061007254, -0.96902746, -0.029940698, -0.029901313, 0.057609558
1067, 711939559, -0.1915474, -0.1433189, 0.060895275, -0.9690517, -0.04626045, -0.040366188, 0.07280254
1068, 711956226, -0.19145106, -0.14333232, 0.060741, -0.9690785, -0.048040617, -0.042873725, 0.101652145
1069, 711972893, -0.19133936, -0.1433528, 0.060574763, -0.96910787, -0.051658902, -0.0669383, 0.10967541
1070, 711989560, -0.19124891, -0.14334945, 0.06044932, -0.9691341, -0.059727147, -0.08177509, 0.10401726
1071, 712006227, -0.19116545, -0.14332744, 0.060345292, -0.9691603, -0.059144184, -0.09543364, 0.092422485
1072, 712022894, -0.19108269, -0.14330298, 0.060264505, -0.96918523, -0.038971916, -0.09741153, 0.05504322
1073, 712039561, -0.19102766, -0.14328378, 0.0601929, -0.9692034, -0.037457705, -0.071413286, 0.062191963
1074, 712056228, -0.19098711, -0.14329687, 0.060126442, -0.9692136, -0.022373829, -0.10587446, 0.02628994
1075, 712072895, -0.19094472, -0.14329225, 0.06009772, -0.9692244, -0.036213428, -0.08361513, 0.047624588
1076, 712089562, -0.19088607, -0.14330056, 0.06005196, -0.9692375, -0.033113208, -0.06421642, 0.08574772
1077, 712106229, -0.19083162, -0.14329079, 0.059982475, -0.969254, -0.050362505, -0.047894273, 0.122205734
1078, 712122896, -0.190772, -0.14329892, 0.059902124, -0.9692695, -0.065348975, -0.056773465, 0.117910385
1079, 712139563, -0.19070847, -0.14328645, 0.05983169, -0.96928823, -0.058523674, -0.048679333, 0.10460949
1080, 712156230, -0.1906793, -0.14326626, 0.05979218, -0.9692994, -0.031395428, -0.060223415, 0.035794258
1081, 712172897, -0.19064742, -0.14325628, 0.059784684, -0.9693076, -0.006543146, -0.07643763, 0.011496544
1082, 712189564, -0.19060539, -0.1432507, 0.059789117, -0.9693165, -0.00131112, -0.06341923, 0.040507317
1083, 712206231, -0.19054726, -0.14325488, 0.05978356, -0.96932757, -0.02336756, -0.05266873, 0.09278393
1084, 712222898, -0.19048049, -0.14326231, 0.059757322, -0.9693413, -0.050725244, -0.056926038, 0.11922741
1085, 712239565, -0.19039461, -0.14327611, 0.059698217, -0.96935964, -0.04367765, -0.034387413, 0.09905052
1086, 712256232, -0.19030929, -0.14327723, 0.05964899, -0.9693793, -0.030276919, -0.03283573, 0.088378906
1087, 712272899, -0.1902565, -0.14328977, 0.05956206, -0.9693932, -0.016846612, -0.04311305, 0.07446098
1088, 712289566, -0.19019558, -0.1432924, 0.059495322, -0.96940887, -0.05299141, -0.024135571, 0.094306946
1089, 712306233, -0.19012162, -0.14329225, 0.059424393, -0.96942776, -0.06511708, -0.03735748, 0.071697235
1090, 712322900, -0.19004068, -0.14330706, 0.05935102, -0.96944594, -0.04362041, -0.07497882, 0.058013916
1091, 712339567, -0.18996374, -0.14336342, 0.059305478, -0.9694554, -0.031678345, -0.075452246, 0.08485794
1092, 712356234, -0.1898747, -0.14342685, 0.059247863, -0.96946704, -0.040486403, -0.05246486, 0.11052036
1093, 712372901, -0.1898249, -0.14345263, 0.05921711, -0.9694749, -0.04799169, -0.06458343, 0.09013939
1094, 712389568, -0.18978988, -0.14347214, 0.059182614, -0.969481, -0.035862178, -0.07381063, 0.08778858
1095, 712406235, -0.18974866, -0.14349999, 0.059157416, -0.96948636, -0.045122035, -0.091198735, 0.05448246
1096, 712422902, -0.18971106, -0.1435367, 0.059153095, -0.96948856, -0.04024598, -0.09968027, 0.029413223
1097, 712439569, -0.18965381, -0.14356048, 0.059165712, -0.96949553, -0.038556725, -0.10893862, 0.05169487
1098, 712456236, -0.18959758, -0.14358598, 0.05917408, -0.9695023, -0.047640696, -0.105717994, 0.096001625
1099, 712472903, -0.18956204, -0.14361748, 0.05915498, -0.9695056, -0.06205004, -0.10824266, 0.11379528
1100, 712489570, -0.18956153, -0.14364357, 0.05912702, -0.9695035, -0.06502792, -0.09669813, 0.10336399
1101, 712506237, -0.18959114, -0.1436667, 0.059122868, -0.9694947, -0.08059249, -0.09501044, 0.09753227
1102, 712522904, -0.18965854, -0.14366877, 0.059121136, -0.9694813, -0.06349529, -0.11424242, 0.06520271
1103, 712539571, -0.1897778, -0.14365387, 0.059159793, -0.96945775, -0.07441774, -0.11991847, 0.046312332
1104, 712556238, -0.18992667, -0.14363018, 0.059259146, -0.96942604, -0.070254326, -0.11120004, 0.027406693
1105, 712572905, -0.1900681, -0.14361596, 0.05941284, -0.9693911, -0.0719117, -0.069782615, 0.058634758
1106, 712589572, -0.19020678, -0.14362068, 0.059509583, -0.9693572, -0.06511462, -0.049059615, 0.12487507
1107, 712606239, -0.19035132, -0.14363022, 0.0595462, -0.9693252, -0.06502016, -0.06250135, 0.12256336
1108, 712622906, -0.1904938, -0.14363709, 0.05957933, -0.96929413, -0.060549438, -0.08438595, 0.10835934
1109, 712639573, -0.19064836, -0.1436116, 0.05967291, -0.96926177, -0.075545594, -0.0732626, 0.075406075
1110, 712656240, -0.19081299, -0.14357504, 0.059837993, -0.9692246, -0.050156623, -0.07685574, 0.060180664
1111, 712672907, -0.19096284, -0.14352164, 0.06006396, -0.96918905, -0.058041606, -0.06598228, 0.049815178
1112, 712689574, -0.19110131, -0.14348345, 0.060287584, -0.9691535, -0.019355614, -0.03484313, 0.06174755
1113, 712706241, -0.19126351, -0.14344563, 0.06045066, -0.969117, -0.006623024, -0.03278519, 0.059966087
1114, 712722908, -0.19142307, -0.14339839, 0.06055803, -0.96908575, -0.027510498, 6.1454886E-4, 0.07463455
1115, 712739575, -0.19157153, -0.14335218, 0.060642213, -0.96905804, -0.03092869, 0.019529026, 0.09941673
1116, 712756242, -0.1917073, -0.1433106, 0.060725234, -0.969032, -0.014529117, 0.038332976, 0.09998417
1117, 712772909, -0.19180806, -0.14326803, 0.060806364, -0.9690133, -0.009061676, 0.05154586, 0.08933258
1118, 712789576, -0.19185178, -0.1432271, 0.06085046, -0.969008, 0.02244244, 0.049421508, 0.0807209
1119, 712806243, -0.19184975, -0.14321512, 0.06087683, -0.96900856, 0.016837029, 0.038140085, 0.06369305
1120, 712822910, -0.19181065, -0.14321597, 0.0609035, -0.96901447, 0.038874693, 0.04691389, 0.043808937
1121, 712839577, -0.19172306, -0.14321433, 0.06090625, -0.96903175, 0.028973816, 0.044948902, 0.059426308
1122, 712856244, -0.19161291, -0.1432288, 0.060858067, -0.9690545, 0.022088611, 0.03673441, 0.09251022
1123, 712872911, -0.19146273, -0.14324935, 0.06076308, -0.9690871, 1.047717E-5, 0.05605152, 0.13621902
1124, 712889578, -0.19129093, -0.14327116, 0.060618345, -0.9691268, -0.004461577, 0.05308458, 0.10309982
1125, 712906245, -0.19110003, -0.14331274, 0.06045153, -0.9691688, 0.0162049, -0.0062600393, 0.051086426
1126, 712922912, -0.1908874, -0.14336789, 0.060263142, -0.9692143, -0.00635814, -0.023686785, 0.052225113
1127, 712939579, -0.1906664, -0.14343429, 0.060056597, -0.9692607, -0.007680408, -0.05423201, 0.06513405
1128, 712956246, -0.19044651, -0.14350949, 0.059844304, -0.9693059, -0.027117597, -0.078953885, 0.084272385
1129, 712972913, -0.19021295, -0.14358835, 0.05964467, -0.96935236, -0.045368724, -0.09687099, 0.082577705
1130, 712989580, -0.18998687, -0.14369394, 0.059455886, -0.9693927, -0.045293413, -0.11760698, 0.07686901
1131, 713006247, -0.18978088, -0.14378308, 0.05931023, -0.96942884, -0.021834932, -0.12835404, 0.03789711
1132, 713022914, -0.18959074, -0.14383483, 0.059167232, -0.9694672, -0.06816557, -0.090838015, 0.08697033
1133, 713039581, -0.1894332, -0.14389157, 0.059024625, -0.9694981, -0.07409711, -0.118246704, 0.09892082
1134, 713056248, -0.1892822, -0.14395618, 0.058924124, -0.96952415, -0.06024391, -0.13516371, 0.069304466
1135, 713072915, -0.18914913, -0.14399593, 0.058852643, -0.9695486, -0.051972546, -0.101772405, 0.024148941
1136, 713089582, -0.18905976, -0.14400594, 0.058788486, -0.96956843, -0.07231445, -0.08013501, 0.08463383
1137, 713106249, -0.18896736, -0.14401749, 0.058726452, -0.96958846, -0.09656171, -0.056869883, 0.12194061
1138, 713122916, -0.18887609, -0.14403465, 0.0587036, -0.9696051, -0.0831151, -0.059436705, 0.12781811
1139, 713139583, -0.18879946, -0.1440815, 0.058736265, -0.9696111, -0.067713164, -0.033621963, 0.0827713
1140, 713156250, -0.1887112, -0.14412655, 0.058755882, -0.9696203, -0.027940713, -0.038537573, 0.0048923492
1141, 713172917, -0.1886118, -0.14417253, 0.058739763, -0.96963376, 0.0014525129, -0.030588893, 0.026970863
1142, 713189584, -0.1885177, -0.14422582, 0.05865496, -0.9696494, -0.039256647, 0.0015221791, 0.14075184
1143, 713206251, -0.18839619, -0.14430946, 0.05855074, -0.9696669, -0.027525976, -4.9541646E-4, 0.101346016
1144, 713222918, -0.18827844, -0.14443108, 0.058460914, -0.969677, 0.014436521, -0.09438759, -0.07370472
1145, 713239585, -0.18812379, -0.14456251, 0.058419496, -0.96968997, 0.017239274, -0.0932011, -0.06407642
1146, 713256252, -0.18794985, -0.14464353, 0.058394816, -0.9697131, 0.0014002388, -0.02135493, 0.11140728
1147, 713272919, -0.18776771, -0.14471428, 0.058308747, -0.969743, 0.0023286208, -0.008576946, 0.21648502
1148, 713289586, -0.18759504, -0.14485472, 0.058180217, -0.9697632, 0.016837168, -0.0885745, 0.09746933
1149, 713306253, -0.18747108, -0.14507994, 0.05814258, -0.96975577, 0.08455943, -0.19532448, -0.09671688
