sep=,
DeviceTag:,46,,,,,,,,,,,,,,,,,
FirmwareVersion:,1.6.0,,,,,,,,,,,,,,,,,
AppVersion:,2020.4,,,,,,,,,,,,,,,,,
SyncStatus:,Synced,,,,,,,,,,,,,,,,,
OutputRate:,60Hz,,,,,,,,,,,,,,,,,
FilterProfile:,General,,,,,,,,,,,,,,,,,
Measurement Mode:,Sensor fusion Mode - Complete (Quaternion),,,,,,,,,,,,,,,,,
StartTime:,2021-03-24 15:22:59.037 +0800,,,,,,,,,,,,,,,,,
© Xsens Technologies B. V. 2005-2021,,,,,,,,,,,,,,,,,,,

PacketCounter,SampleTimeFine,Quat_W,Quat_X,Quat_Y,Quat_Z,FreeAcc_X,FreeAcc_Y,FreeAcc_Z
1, 694139203, 0.5562621, 0.1390825, -0.8188436, -0.026903143, -0.01030797, -0.027637322, 0.08581638
2, 694155870, 0.5562717, 0.13906612, -0.81884015, -0.026896311, -0.031015553, -0.034489892, 0.100001335
3, 694172537, 0.5562714, 0.13905413, -0.8188432, -0.026873501, -0.030299863, -0.031566735, 0.10181332
4, 694189204, 0.5562698, 0.13897052, -0.81885695, -0.026914485, -0.032517113, -0.008647325, 0.09367561
5, 694205871, 0.5562624, 0.13902856, -0.8188541, -0.02685445, -0.019326089, -0.004499194, 0.10103035
6, 694222538, 0.5562495, 0.13901457, -0.8188656, -0.026847629, -0.017887741, -0.02013779, 0.10202503
7, 694239205, 0.5562424, 0.13900751, -0.81887233, -0.026824834, -0.037484463, -0.005715338, 0.103022575
8, 694255872, 0.55622905, 0.13898598, -0.8188855, -0.02681097, -0.016025431, -0.014708773, 0.12750912
9, 694272539, 0.55620646, 0.13895865, -0.81890565, -0.026804592, -0.021912763, -0.018787326, 0.11594772
10, 694289206, 0.5561909, 0.13911141, -0.8188942, -0.026686614, -0.017548002, -0.04590498, 0.089904785
11, 694305873, 0.5561676, 0.13916321, -0.8189021, -0.026655158, -0.013328971, -0.050213248, 0.10994339
12, 694322540, 0.55614585, 0.13922215, -0.81890804, -0.026622405, -0.010412128, -0.05144659, 0.121990204
13, 694339207, 0.5561339, 0.13926595, -0.81890905, -0.0266091, -0.013326736, -0.02554306, 0.11976528
14, 694355874, 0.55612254, 0.13928078, -0.81891376, -0.026623614, -0.004470259, -0.031448215, 0.106544495
15, 694372541, 0.5561149, 0.13931584, -0.81891274, -0.026631644, -0.004399182, -0.030416034, 0.1134882
16, 694389208, 0.55611575, 0.13935363, -0.8189053, -0.026645338, 0.004900745, -0.013144238, 0.13291359
17, 694405875, 0.5561293, 0.13939273, -0.8188892, -0.026651949, 0.00833301, 0.0067999344, 0.118133545
18, 694422542, 0.5561393, 0.13941681, -0.8188776, -0.026678404, -0.0046477285, 0.00286823, 0.13538456
19, 694439209, 0.55615723, 0.13943177, -0.8188623, -0.026692295, -0.016102767, -8.0157333E-4, 0.111029625
20, 694455876, 0.55616516, 0.13943745, -0.8188559, -0.026694236, -0.028307023, 0.019568894, 0.11797905
21, 694472543, 0.55618167, 0.1394287, -0.8188458, -0.026703134, -0.033488948, 0.0016114167, 0.113256454
22, 694489210, 0.556187, 0.13940732, -0.8188456, -0.026713153, -0.033901796, 0.015275735, 0.10699844
23, 694505877, 0.5561957, 0.1393829, -0.81884354, -0.026721464, -0.036366004, 0.010455657, 0.10345554
24, 694522544, 0.55619115, 0.13933809, -0.81885356, -0.026742637, -0.040563133, -0.0017656964, 0.09853077
25, 694539211, 0.5561817, 0.13930538, -0.81886566, -0.026738139, -0.02566957, -0.020191994, 0.11985111
26, 694555878, 0.55618215, 0.139295, -0.81886744, -0.026729427, -0.020311069, -0.02896795, 0.10346699
27, 694572545, 0.5561776, 0.1392773, -0.818874, -0.026713232, -0.028058028, -0.04301909, 0.10994148
28, 694589212, 0.55617404, 0.13926087, -0.8188793, -0.026709585, 2.7536796E-4, -0.026307475, 0.122834206
29, 694605879, 0.5561739, 0.1393043, -0.8188727, -0.026689017, -0.019992787, -0.02021194, 0.11069679
30, 694622546, 0.5561567, 0.13925004, -0.81889164, -0.026751066, -0.0171801, -0.031774603, 0.10149288
31, 694639213, 0.55615205, 0.13924576, -0.81889516, -0.026760163, -0.015827399, -0.03916165, 0.0947628
32, 694655880, 0.55615985, 0.13933674, -0.8188765, -0.026696453, -0.012738003, -0.025605086, 0.10343456
33, 694672547, 0.55615795, 0.13937563, -0.81887186, -0.026674274, -0.011557408, -0.018070351, 0.1142931
34, 694689214, 0.556158, 0.13940574, -0.8188673, -0.026657738, -0.0035690549, -0.012918043, 0.117126465
35, 694705881, 0.5561586, 0.13938527, -0.81886923, -0.026691418, -0.017905623, -0.0021415893, 0.12391949
36, 694722548, 0.5561502, 0.13942309, -0.8188693, -0.02667056, -0.015604334, 0.011068418, 0.10941696
37, 694739215, 0.5561515, 0.13936318, -0.81887734, -0.026708355, -0.030678941, 0.0052933455, 0.102025986
38, 694755882, 0.55615133, 0.13933897, -0.8188814, -0.026715608, -0.023805918, -7.0909486E-4, 0.10960388
39, 694772549, 0.55614233, 0.13928145, -0.81889665, -0.02673438, -0.03198694, 0.0027149, 0.11144543
40, 694789216, 0.55612886, 0.13922675, -0.8189145, -0.026751518, -0.042925555, -0.010060027, 0.10742855
41, 694805883, 0.55611724, 0.13919094, -0.8189285, -0.026751963, -0.036146067, -0.015992576, 0.12399101
42, 694822550, 0.55610293, 0.13912071, -0.8189492, -0.026780974, -0.012961516, -0.030061543, 0.113913536
43, 694839217, 0.5560987, 0.13907072, -0.81896025, -0.026790662, -0.013773316, -0.031593557, 0.10473347
44, 694855884, 0.5560838, 0.139062, -0.8189718, -0.026791876, -0.0023504621, -0.030854343, 0.112893105
45, 694872551, 0.55608106, 0.13904557, -0.8189759, -0.026808567, -0.0070285886, -0.0184943, 0.11687374
46, 694889218, 0.55608094, 0.1390368, -0.81897736, -0.02681295, -0.0137849385, -0.04159375, 0.13493824
47, 694905885, 0.556081, 0.13904414, -0.8189764, -0.026801994, 5.310668E-4, -0.009272491, 0.11625767
48, 694922552, 0.55608094, 0.13904026, -0.81897676, -0.026811603, -0.013026782, 0.0121052945, 0.107375145
49, 694939219, 0.55608994, 0.13902469, -0.8189727, -0.026829071, -0.028543945, -0.0066612447, 0.11636162
50, 694955886, 0.5561003, 0.13907698, -0.81895787, -0.026795117, -0.033809017, 0.0023619172, 0.11712742
51, 694972553, 0.556105, 0.13909492, -0.8189524, -0.026773943, -0.02629317, -0.002850852, 0.10945511
52, 694989220, 0.55611223, 0.13918972, -0.81893384, -0.02669772, -0.009906542, 0.011070318, 0.09344864
53, 695005887, 0.55611956, 0.13928422, -0.81891584, -0.026604345, -0.010489016, 0.0017160766, 0.09280586
54, 695022554, 0.556129, 0.13925329, -0.81891555, -0.026579734, -0.03224532, -0.010878543, 0.100209236
55, 695039221, 0.55613804, 0.13918109, -0.81892097, -0.026602486, -0.031921674, 0.020196632, 0.1111269
56, 695055888, 0.5561409, 0.13911933, -0.8189284, -0.026637012, -0.024922589, -0.00918208, 0.1046257
57, 695072555, 0.55613655, 0.13907932, -0.8189376, -0.026653761, -0.025660379, -0.051613465, 0.102760315
58, 695089222, 0.5561338, 0.13909204, -0.8189381, -0.02663056, -0.008533725, -0.032774486, 0.11166763
59, 695105889, 0.5561415, 0.13908562, -0.8189341, -0.026622431, -0.02761279, -0.02859541, 0.104159355
60, 695122556, 0.5561378, 0.13908505, -0.8189367, -0.026620371, -0.019936908, -0.012357975, 0.11346626
61, 695139223, 0.5561288, 0.13909233, -0.81894124, -0.026633793, -0.015193069, -0.026877321, 0.105026245
62, 695155890, 0.5561217, 0.13907243, -0.8189485, -0.026665093, -0.007281158, -0.035274424, 0.099295616
63, 695172557, 0.556122, 0.13906917, -0.81894845, -0.026671914, 0.0026526519, -0.035627015, 0.12276268
64, 695189224, 0.5561375, 0.13908304, -0.8189358, -0.026668716, 0.004679467, -0.007155823, 0.111044884
65, 695205891, 0.55615366, 0.13911262, -0.8189202, -0.026655924, -4.6848317E-4, -0.0019302579, 0.10644817
66, 695222558, 0.55617875, 0.1391029, -0.8189041, -0.02667776, -0.019078173, -0.0056059286, 0.112514496
67, 695239225, 0.5562046, 0.13912994, -0.818882, -0.026676388, -0.019172048, -0.013496104, 0.10843468
68, 695255892, 0.55623114, 0.13913454, -0.81886274, -0.026689958, 0.004882417, -0.047733538, 0.11375427
69, 695272559, 0.5562591, 0.13918297, -0.8188368, -0.026651116, -0.028172914, -0.0097188465, 0.09423447
70, 695289226, 0.55628395, 0.13922961, -0.8188132, -0.02661237, -0.05679688, -0.0026622629, 0.098991394
71, 695305893, 0.556293, 0.13923585, -0.81880575, -0.026619336, -0.110835604, -0.013864006, 0.11381245
72, 695322560, 0.5562704, 0.1391968, -0.81882674, -0.026653647, -0.091237545, -0.017691217, 0.08931351
73, 695339227, 0.5562234, 0.13917673, -0.8188621, -0.0266544, -0.08314548, -0.030233648, 0.07332802
74, 695355894, 0.55615836, 0.13921465, -0.81890064, -0.026627729, -0.08815485, -0.038395558, 0.09056473
75, 695372561, 0.5560727, 0.1392419, -0.8189547, -0.026611475, -0.081951916, -0.048849896, 0.106604576
76, 695389228, 0.5559678, 0.13928974, -0.8190184, -0.026593436, -0.070111096, -0.05318435, 0.10357189
77, 695405895, 0.55587655, 0.13937327, -0.8190669, -0.026564952, -0.03907677, -0.039903097, 0.11023331
78, 695422562, 0.5557705, 0.13950004, -0.8191194, -0.026504517, 0.012226606, -0.046016622, 0.10839653
79, 695439229, 0.5556618, 0.13949126, -0.81919235, -0.026572285, 0.018314652, -0.02551747, 0.11252403
80, 695455896, 0.5555788, 0.13958089, -0.8192327, -0.026593823, 0.04561855, -0.02752087, 0.14990711
81, 695472563, 0.55551803, 0.13966319, -0.81925917, -0.026615705, 0.061382916, -0.03256042, 0.14660358
82, 695489230, 0.55548877, 0.13970603, -0.8192696, -0.02668251, 0.09452944, -0.034790967, 0.1194582
83, 695505897, 0.5554835, 0.13978934, -0.8192568, -0.026746003, 0.06679729, -0.03505281, 0.114476204
84, 695522564, 0.55549896, 0.13995324, -0.81921774, -0.026762621, 0.061166555, -0.04298389, 0.14238739
85, 695539231, 0.5555323, 0.14010556, -0.8191682, -0.026793076, 0.049175978, -0.016639031, 0.15157795
86, 695555898, 0.55558956, 0.14029065, -0.81909686, -0.026818004, 0.031073665, -0.03351571, 0.13150024
87, 695572565, 0.5556623, 0.14058365, -0.81899863, -0.026778163, 0.030126864, -0.045430966, 0.09576702
88, 695589232, 0.55573976, 0.14089072, -0.8188955, -0.02671062, -0.003518988, 0.002472612, 0.094566345
89, 695605899, 0.55579466, 0.14108223, -0.8188253, -0.026706705, -0.09188573, 0.05944053, 0.097969055
90, 695622566, 0.555832, 0.14119643, -0.8187792, -0.026741594, -0.098739974, 0.036626734, 0.06715679
91, 695639233, 0.5558552, 0.14129558, -0.81874645, -0.026739502, -0.09287187, 0.06334916, 0.07220936
92, 695655900, 0.55586314, 0.14134268, -0.8187326, -0.026748208, -0.09599786, 0.08881831, 0.09216118
93, 695672567, 0.55584896, 0.14136109, -0.81873816, -0.026775226, -0.08992865, 0.09163433, 0.09335995
94, 695689234, 0.5558179, 0.14133708, -0.8187634, -0.026776621, -0.07322061, 0.06450869, 0.0964489
95, 695705901, 0.55578357, 0.14126752, -0.81879765, -0.02680294, -0.04975577, 0.024441421, 0.08861065
96, 695722568, 0.55574465, 0.14120145, -0.81883603, -0.02678905, -0.058699418, 0.031753816, 0.08433533
97, 695739235, 0.5556988, 0.14111826, -0.81888247, -0.026758991, -0.039940424, 0.063266404, 0.09313202
98, 695755902, 0.5556471, 0.14099723, -0.818939, -0.026742106, -0.03145006, 0.032092325, 0.13895226
99, 695772569, 0.5556021, 0.14083277, -0.8189973, -0.026755411, -0.0012387088, -0.0099668335, 0.11474705
100, 695789236, 0.5555692, 0.14072698, -0.8190393, -0.026713056, 0.013446987, -0.028317526, 0.105526924
101, 695805903, 0.55554575, 0.14061525, -0.8190748, -0.026699364, 0.029526062, -0.048611328, 0.11760044
102, 695822570, 0.55552554, 0.14048663, -0.8191091, -0.026745204, 0.04028821, -0.0662959, 0.1431303
103, 695839237, 0.5555304, 0.14045647, -0.8191112, -0.026735036, 0.049298912, -0.07682531, 0.11934185
104, 695855904, 0.5555407, 0.14023179, -0.81913835, -0.026872128, 0.033142053, -0.093205296, 0.11244202
105, 695872571, 0.5555648, 0.14017221, -0.8191307, -0.026916333, 0.018700436, -0.054386012, 0.12433052
106, 695889238, 0.5556087, 0.14017119, -0.81910044, -0.02693521, 0.041456737, -0.035956193, 0.12664795
107, 695905905, 0.55566317, 0.14015666, -0.81906426, -0.026987104, 0.035533644, -0.014571983, 0.11803055
108, 695922572, 0.55573636, 0.14015158, -0.81901324, -0.027051661, 0.034518447, -0.011315846, 0.12245846
109, 695939239, 0.5558179, 0.14014633, -0.81895673, -0.027118128, 0.018101165, -0.0026062615, 0.116752625
110, 695955906, 0.5559078, 0.1401382, -0.81889504, -0.027180271, -0.015287839, 0.011008963, 0.113601685
111, 695972573, 0.55598885, 0.14009833, -0.81884485, -0.027243061, -0.022248928, 0.027139334, 0.11810207
112, 695989240, 0.5560728, 0.14005308, -0.81879437, -0.027274942, -0.027382573, 0.02247501, 0.092606544
113, 696005907, 0.5561513, 0.13999783, -0.8187494, -0.027312277, -0.03312909, 0.02159057, 0.08145237
114, 696022574, 0.55622435, 0.13989353, -0.81871545, -0.027378023, -0.03512998, 0.03796714, 0.12254238
115, 696039241, 0.55629754, 0.13981777, -0.818677, -0.027428195, -0.036661044, -0.0013333106, 0.119618416
116, 696055908, 0.55636746, 0.13970353, -0.81864715, -0.02747813, -0.025490759, -0.025365759, 0.11580372
117, 696072575, 0.5564396, 0.13961811, -0.81861234, -0.027491974, -0.0342547, -0.022333806, 0.1137743
118, 696089242, 0.5564925, 0.13950983, -0.8185939, -0.02751956, -0.033481795, -0.010022544, 0.07907295
119, 696105909, 0.55654854, 0.13939454, -0.818574, -0.027557528, -0.033544824, -0.011203922, 0.092469215
120, 696122576, 0.55659086, 0.13930352, -0.8185594, -0.02759631, -0.05521083, -0.011217501, 0.085822105
121, 696139243, 0.5566208, 0.13920231, -0.81855506, -0.027632171, -0.059448186, -0.014284657, 0.1111393
122, 696155910, 0.5566445, 0.13909908, -0.81855553, -0.02766419, -0.077512056, -0.021451041, 0.09016037
123, 696172577, 0.55664843, 0.13902822, -0.8185648, -0.02766879, -0.06268734, -0.040347442, 0.09034157
124, 696189244, 0.55663615, 0.13886547, -0.8185995, -0.02770715, -0.064844236, -0.024029598, 0.0967741
125, 696205911, 0.55661494, 0.13879423, -0.8186265, -0.02768741, -0.056923833, -0.023890126, 0.086886406
126, 696222578, 0.55658305, 0.13871807, -0.8186616, -0.027673783, -0.047842056, -0.024258196, 0.10923576
127, 696239245, 0.5565489, 0.13864475, -0.8186974, -0.027668154, -0.031157786, -0.010839463, 0.11128521
128, 696255912, 0.5565177, 0.1385809, -0.8187297, -0.027657721, -0.022547986, -0.017594045, 0.121147156
129, 696272579, 0.5564853, 0.13850956, -0.8187636, -0.02766303, -0.015593158, -0.028374914, 0.10203266
130, 696289246, 0.556455, 0.13833682, -0.8188107, -0.027742328, -0.028150115, -0.053775094, 0.10607338
131, 696305913, 0.5564374, 0.13837221, -0.8188191, -0.027676279, 0.0024568543, -0.036743965, 0.110505104
132, 696322580, 0.5564194, 0.1383303, -0.8188388, -0.027668132, 0.008472482, -0.03741322, 0.11026955
133, 696339247, 0.55639946, 0.13827103, -0.8188618, -0.027678996, 0.0036347676, -0.024053235, 0.109155655
134, 696355914, 0.55639195, 0.13821524, -0.8188758, -0.027694467, 0.007178342, -0.025371794, 0.12401581
135, 696372581, 0.55638665, 0.13820255, -0.8188813, -0.027703539, -0.0043401746, -0.022313913, 0.12004185
136, 696389248, 0.5563816, 0.13816965, -0.8188896, -0.027723342, -0.031033432, -0.035739608, 0.10338402
137, 696405915, 0.55638355, 0.13814694, -0.8188914, -0.027746195, -0.0385457, -0.038655616, 0.13273525
138, 696422582, 0.5563883, 0.13817124, -0.8188841, -0.027746372, -0.025303455, -0.042670075, 0.111180305
139, 696439249, 0.55639756, 0.13820617, -0.8188724, -0.027732553, -0.0035632434, -0.043186225, 0.092840195
140, 696455916, 0.55639714, 0.13822801, -0.8188692, -0.027725017, -0.028272154, -0.021089733, 0.10707855
141, 696472583, 0.55638355, 0.13822833, -0.81887716, -0.027759813, -0.05387556, -0.021565983, 0.11306381
142, 696489250, 0.5563662, 0.13826242, -0.8188827, -0.027774194, -0.030151898, -0.038221385, 0.106741905
143, 696505917, 0.5563483, 0.13829687, -0.81888884, -0.027780034, -0.01274605, -0.040023908, 0.1142292
144, 696522584, 0.55632716, 0.13839985, -0.81888723, -0.027740235, -0.009518647, -0.015451985, 0.10842514
145, 696539251, 0.5563058, 0.13844527, -0.81889397, -0.027738638, -0.022440253, -0.011158661, 0.10067272
146, 696555918, 0.5562857, 0.13846019, -0.8189042, -0.027765587, -0.0142762195, 0.019043751, 0.11509514
147, 696572585, 0.55627644, 0.13845916, -0.81890994, -0.027787749, -0.0010402293, 0.0186445, 0.1161499
148, 696589252, 0.5562645, 0.13839914, -0.81892717, -0.027819367, -0.0044783056, 0.04326054, 0.0925436
149, 696605919, 0.55625683, 0.1383482, -0.8189406, -0.027832799, -0.02342997, 0.04581233, 0.10870552
150, 696622586, 0.55624616, 0.13830556, -0.8189552, -0.027823994, -0.006833238, 0.024909848, 0.097515106
151, 696639253, 0.5562281, 0.13823025, -0.81898016, -0.02782557, -0.0296481, 0.042881295, 0.101594925
152, 696655920, 0.5562068, 0.1381838, -0.81900334, -0.027799921, -0.04355642, 0.015588129, 0.0913353
153, 696672587, 0.55616564, 0.13792285, -0.81907064, -0.027936617, -0.059525523, -0.036497653, 0.10853672
154, 696689254, 0.5561291, 0.13787968, -0.81910324, -0.027922887, -0.05398151, -0.10114498, 0.1253519
155, 696705921, 0.55609626, 0.13788708, -0.8191255, -0.02788659, -0.02958641, -0.12292592, 0.1043005
156, 696722588, 0.55605173, 0.13792594, -0.81914985, -0.027866, -0.027716948, -0.14241412, 0.11709976
157, 696739255, 0.5560108, 0.13810205, -0.8191502, -0.027799698, -0.030646756, -0.18470687, 0.09611416
158, 696755922, 0.55596226, 0.13827895, -0.81915337, -0.027797092, -0.013176983, -0.179439, 0.13621807
159, 696772589, 0.5559188, 0.13852099, -0.8191417, -0.027805697, 0.01703705, -0.1254296, 0.13058758
160, 696789256, 0.5558907, 0.13876802, -0.8191181, -0.02783354, 0.039811235, -0.011576463, 0.12695408
161, 696805923, 0.5558762, 0.13892075, -0.81909907, -0.027921353, 0.06291105, 0.097719796, 0.12408161
162, 696822590, 0.5558813, 0.13895993, -0.8190837, -0.02807315, 0.056174617, 0.13447127, 0.12486172
163, 696839257, 0.5559141, 0.13894498, -0.81905925, -0.028211234, 0.0689457, 0.19194517, 0.13233948
164, 696855924, 0.55597746, 0.13894695, -0.8190143, -0.028258769, 0.025707565, 0.26799327, 0.11558056
165, 696872591, 0.5560781, 0.13879399, -0.81897044, -0.028303364, 0.019431323, 0.28782064, 0.11720657
166, 696889258, 0.5561977, 0.13848807, -0.8189396, -0.028338498, 0.021160865, 0.29158568, 0.10551739
167, 696905925, 0.5563335, 0.13810678, -0.8189122, -0.028328111, 0.02074692, 0.26292366, 0.10401058
168, 696922592, 0.5564791, 0.137656, -0.81889045, -0.02828789, 0.0044943984, 0.17164046, 0.09231472
169, 696939259, 0.5566357, 0.13718133, -0.8188658, -0.028230332, -0.021988757, 0.08804522, 0.10739231
170, 696955926, 0.5567975, 0.13672577, -0.81883556, -0.02812393, -0.036880083, -0.006011213, 0.11920929
171, 696972593, 0.55696064, 0.13636076, -0.8187919, -0.027938394, -0.062571555, -0.08120125, 0.09130287
172, 696989260, 0.5571058, 0.13605443, -0.81875116, -0.027734516, -0.083711416, -0.13598159, 0.09304047
173, 697005927, 0.557221, 0.13572103, -0.81873226, -0.027606407, -0.106160164, -0.17819202, 0.111683846
174, 697022594, 0.5572859, 0.13542509, -0.8187394, -0.027541863, -0.12728481, -0.24706104, 0.08244419
175, 697039261, 0.5573143, 0.13522139, -0.81875485, -0.027508944, -0.1315271, -0.31487817, 0.09648037
176, 697055928, 0.5573113, 0.13514908, -0.8187701, -0.027465332, -0.12756152, -0.3470962, 0.10565758
177, 697072595, 0.557278, 0.13522731, -0.8187815, -0.027423993, -0.09890538, -0.35238078, 0.096886635
178, 697089262, 0.55721307, 0.1354151, -0.8187959, -0.027379956, -0.089739114, -0.29727384, 0.09971428
179, 697105929, 0.55713326, 0.13567698, -0.8188073, -0.027372701, -0.09834623, -0.21455832, 0.09330177
180, 697122596, 0.55701786, 0.13597368, -0.8188349, -0.027420402, -0.06585541, -0.1501654, 0.113622665
181, 697139263, 0.55689055, 0.1362915, -0.8188656, -0.02750899, -0.057100408, -0.10187452, 0.10431671
182, 697155930, 0.55673915, 0.1366288, -0.8189087, -0.027619973, -0.046319038, -0.06918397, 0.11274719
183, 697172597, 0.5565989, 0.13702485, -0.818936, -0.027680365, -0.02139332, -0.059944388, 0.12055397
184, 697189264, 0.55646753, 0.13744201, -0.8189544, -0.027705196, 0.014311534, -0.004945224, 0.11646938
185, 697205931, 0.55631936, 0.13783003, -0.81898856, -0.027741473, -0.013546674, 0.027294172, 0.11771774
186, 697222598, 0.5561741, 0.13819897, -0.8190226, -0.027813945, -0.0078086485, 0.038868345, 0.11008167
187, 697239265, 0.5560389, 0.13853456, -0.8190548, -0.027897447, -0.011292769, 0.01972379, 0.08651829
188, 697255932, 0.5559021, 0.13882786, -0.81909454, -0.028000921, -0.045218907, 0.04154452, 0.09779167
189, 697272599, 0.555763, 0.13908847, -0.81913984, -0.028145699, -0.0490678, -0.011622227, 0.1219368
190, 697289266, 0.5556123, 0.13939984, -0.819185, -0.028255953, -0.022029437, -0.105059244, 0.115799904
191, 697305933, 0.55548227, 0.13976291, -0.81920904, -0.028328719, -0.008711641, -0.13859546, 0.1205616
192, 697322600, 0.55535495, 0.1401891, -0.81922096, -0.02837591, 0.028933305, -0.06466995, 0.12504578
193, 697339267, 0.55525464, 0.14062792, -0.819214, -0.028371707, 0.087126695, 0.07981732, 0.106342316
194, 697355934, 0.5551781, 0.14088741, -0.81921756, -0.02847245, 0.08286072, 0.31970975, 0.13495922
195, 697372601, 0.555122, 0.1408796, -0.81924546, -0.028800055, 0.04728551, 0.31057554, 0.14422512
196, 697389268, 0.55511624, 0.14085548, -0.8192454, -0.02903012, 0.0439046, 0.22396626, 0.11492348
197, 697405935, 0.5551706, 0.1408793, -0.8192061, -0.02898227, 0.059035584, 0.30736127, 0.11673546
198, 697422602, 0.5552575, 0.14077815, -0.819169, -0.028859062, 0.06370879, 0.4501394, 0.11850071
199, 697439269, 0.55537504, 0.14045821, -0.8191473, -0.0287676, 0.08622951, 0.48243198, 0.11819935
200, 697455936, 0.5555272, 0.13987218, -0.8191441, -0.028775493, 0.08583434, 0.42554, 0.10719681
201, 697472603, 0.5556979, 0.13910115, -0.8191557, -0.028890308, 0.07386254, 0.28568146, 0.11001396
202, 697489270, 0.55590826, 0.13828093, -0.81914896, -0.028971625, 0.05609594, 0.13696846, 0.13504314
203, 697505937, 0.556175, 0.13768844, -0.8190764, -0.028723985, 0.037973955, 0.08311631, 0.13177395
204, 697522604, 0.55646455, 0.13690501, -0.8190198, -0.028472705, 0.041447796, 0.09745092, 0.14010525
205, 697539271, 0.5567855, 0.1361204, -0.8189427, -0.02818087, 0.022221658, 0.08992178, 0.1247797
206, 697555938, 0.5571006, 0.13525175, -0.8188778, -0.028020533, 0.017407635, 0.0037261844, 0.09759998
207, 697572605, 0.55739653, 0.13437001, -0.8188232, -0.02797186, -0.03939371, -0.12126724, 0.10070515
208, 697589272, 0.5576755, 0.13357925, -0.818763, -0.027964503, -0.07503196, -0.30020845, 0.11744499
209, 697605939, 0.55793965, 0.13301814, -0.81867856, -0.02784568, -0.0999465, -0.45401376, 0.10673332
210, 697622606, 0.5581803, 0.13270622, -0.8185737, -0.027587283, -0.10369705, -0.5012909, 0.10730076
211, 697639273, 0.558379, 0.13255833, -0.81846994, -0.027352171, -0.12081233, -0.51348877, 0.0790205
212, 697655940, 0.55852246, 0.13256295, -0.8183768, -0.027192095, -0.14350203, -0.50132525, 0.06729698
213, 697672607, 0.5586058, 0.13268973, -0.8183001, -0.027167771, -0.17814648, -0.42872033, 0.08401966
214, 697689274, 0.5586362, 0.13287403, -0.8182457, -0.027279995, -0.16973127, -0.36664504, 0.0782814
215, 697705941, 0.5586145, 0.13313162, -0.81821394, -0.02742421, -0.16856721, -0.29928553, 0.09325695
216, 697722608, 0.55855584, 0.13344969, -0.8181977, -0.027553473, -0.13540147, -0.177575, 0.08923435
217, 697739275, 0.5584476, 0.13381927, -0.818206, -0.02771162, -0.11697864, -0.1519445, 0.0959692
218, 697755942, 0.5583147, 0.13431993, -0.8182108, -0.027821405, -0.10234167, -0.12203199, 0.06679058
219, 697772609, 0.5581687, 0.13492645, -0.8182093, -0.027864484, -0.075480774, -0.07259092, 0.1008873
220, 697789276, 0.55801046, 0.13554598, -0.81821454, -0.027874542, -0.04144243, 0.036239106, 0.10092735
221, 697805943, 0.5578445, 0.13605988, -0.81824094, -0.027912874, -0.03384031, 0.15925437, 0.111014366
222, 697822610, 0.55767983, 0.13641617, -0.81829023, -0.028022472, -0.020657515, 0.22319254, 0.10184002
223, 697839277, 0.55751956, 0.13660304, -0.81836146, -0.028216463, -8.6678326E-4, 0.2517859, 0.10658932
224, 697855944, 0.5573677, 0.1367072, -0.81844085, -0.028405614, 0.018941382, 0.20728977, 0.10480213
225, 697872611, 0.55723274, 0.13682777, -0.8185092, -0.028506313, 0.03888008, 0.16082282, 0.117785454
226, 697889278, 0.55713236, 0.13698825, -0.818552, -0.028470153, 0.05469541, 0.13654038, 0.120500565
227, 697905945, 0.557068, 0.13710897, -0.8185786, -0.028385028, 0.06315806, 0.14885695, 0.14797306
228, 697922612, 0.55703145, 0.13714491, -0.8186, -0.028307864, 0.08552768, 0.13747494, 0.12907505
229, 697939279, 0.55702895, 0.13708672, -0.8186121, -0.028287925, 0.067971185, 0.12565541, 0.12945557
230, 697955946, 0.55703306, 0.13693242, -0.81863403, -0.02832503, 0.05617417, 0.083774276, 0.12223053
231, 697972613, 0.5570659, 0.13672407, -0.8186442, -0.028391417, 0.034379248, 0.05826125, 0.12683201
232, 697989280, 0.55710864, 0.13654074, -0.8186444, -0.028426658, 0.010492592, 0.008955829, 0.1275301
233, 698005947, 0.5571704, 0.13638374, -0.81862897, -0.028413694, 0.0076477192, -0.04274825, 0.11473751
234, 698022614, 0.5572409, 0.13626516, -0.818602, -0.028377704, 0.020911872, -0.073229104, 0.12612247
235, 698039281, 0.5573162, 0.13618706, -0.81856537, -0.028332228, 0.02087611, -0.055123437, 0.10680866
236, 698055948, 0.5573997, 0.13611054, -0.8185219, -0.028312365, 0.007694657, -0.026011711, 0.12054825
237, 698072615, 0.5574848, 0.13599731, -0.8184821, -0.028333148, -0.0024228804, -0.0081005, 0.11439133
238, 698089282, 0.55758995, 0.13586745, -0.81843066, -0.028368942, 0.022714281, -0.029428331, 0.12541771
239, 698105949, 0.55770475, 0.1357727, -0.81836766, -0.028384315, 0.018986532, -0.03472799, 0.13165092
240, 698122616, 0.55782706, 0.13573486, -0.8182925, -0.028329179, -0.015353105, 0.016919764, 0.08503628
241, 698139283, 0.5579502, 0.13565564, -0.8182239, -0.028265404, -0.048180453, 0.07455565, 0.108860016
242, 698155950, 0.5580656, 0.13558356, -0.8181587, -0.028220542, -0.048889436, 0.09524245, 0.10200691
243, 698172617, 0.558165, 0.13534164, -0.81812966, -0.028259158, -0.053500507, 0.08618006, 0.085502625
244, 698189284, 0.5582557, 0.13506764, -0.8181119, -0.028289778, -0.045698117, 0.030961573, 0.08239937
245, 698205951, 0.5583529, 0.13483454, -0.8180847, -0.028271321, -0.04079022, -0.0016318122, 0.105098724
246, 698222618, 0.5584367, 0.13463254, -0.8180631, -0.028205587, -0.015613274, -0.02162471, 0.108140945
247, 698239285, 0.5585297, 0.1344508, -0.8180326, -0.028114824, -0.02994269, 0.0018670596, 0.10757065
248, 698255952, 0.55861115, 0.1342493, -0.81801206, -0.028053768, -0.037387464, -0.0035825686, 0.092868805
249, 698272619, 0.55867827, 0.13408326, -0.81799537, -0.028000364, -0.07623267, -0.06081525, 0.101130486
250, 698289286, 0.55873895, 0.13398361, -0.8179731, -0.027918128, -0.080128945, -0.1297995, 0.10526276
251, 698305953, 0.55878204, 0.13388875, -0.81796175, -0.027841683, -0.07028857, -0.16402437, 0.10589218
252, 698322620, 0.55881715, 0.13385291, -0.8179463, -0.027764127, -0.049524214, -0.16103147, 0.10768604
253, 698339287, 0.55883586, 0.13395795, -0.8179205, -0.027635593, -0.051167928, -0.14548877, 0.10664272
254, 698355954, 0.5588344, 0.13400914, -0.8179142, -0.02760509, -0.042074528, -0.12007334, 0.1043663
255, 698372621, 0.5588174, 0.13408743, -0.81791276, -0.027611362, -0.035505928, -0.11836704, 0.11096954
256, 698389288, 0.5587908, 0.13417432, -0.81791586, -0.027634947, -0.041375376, -0.10038442, 0.11606979
257, 698405955, 0.5587567, 0.1342874, -0.8179194, -0.027670333, -0.02874019, -0.07866164, 0.10939598
258, 698422622, 0.55871403, 0.13441385, -0.81792605, -0.027721133, -0.014960616, -0.068331875, 0.09918976
259, 698439289, 0.5586796, 0.13454375, -0.8179257, -0.02779919, -0.024175161, -0.052886352, 0.101758
260, 698455956, 0.55864197, 0.13470806, -0.81792194, -0.027870992, -0.03666328, -0.029549474, 0.088350296
261, 698472623, 0.5585977, 0.13487366, -0.81792283, -0.027933368, -0.030323109, -0.034739893, 0.11292839
262, 698489290, 0.5585446, 0.13504373, -0.8179289, -0.027995486, -0.03457075, -0.016905067, 0.11700058
263, 698505957, 0.55849826, 0.13522866, -0.81792885, -0.028025676, -0.032648984, -0.013526222, 0.10408783
264, 698522624, 0.55846256, 0.13537368, -0.8179281, -0.028060386, -0.006988803, 0.010300483, 0.10138798
265, 698539291, 0.5584351, 0.13550678, -0.817923, -0.028110083, 0.0013590403, 0.017459365, 0.10688496
266, 698555958, 0.55839336, 0.13565074, -0.81792617, -0.028153878, 7.3625165E-4, 0.032381773, 0.1153326
267, 698572625, 0.5583541, 0.13577263, -0.8179309, -0.028207814, -8.815351E-4, 0.039711602, 0.10436249
268, 698589292, 0.5583222, 0.13586001, -0.8179363, -0.028259845, -0.0130410865, 0.02738475, 0.106040955
269, 698605959, 0.5582966, 0.13593438, -0.81794006, -0.028298033, -0.014352214, 0.032999117, 0.102163315
270, 698622626, 0.558278, 0.13599767, -0.81794095, -0.028337812, -0.008177445, 0.029075626, 0.11403084
271, 698639293, 0.55825585, 0.13602068, -0.8179508, -0.028376132, 0.015874337, 0.017836446, 0.104907036
272, 698655960, 0.55824697, 0.13602936, -0.8179537, -0.02843015, 0.002829227, 0.026930181, 0.116337776
273, 698672627, 0.5582298, 0.13598979, -0.8179692, -0.028508827, 0.002553859, 0.014097186, 0.112771034
274, 698689294, 0.55823624, 0.13601334, -0.81796044, -0.028520226, -0.00912514, 0.024814185, 0.1208992
275, 698705961, 0.5582358, 0.13598102, -0.817965, -0.02855225, 0.0033862214, 0.03547106, 0.1152153
276, 698722628, 0.55824196, 0.13595352, -0.8179649, -0.028568981, -0.009913246, 0.016753022, 0.111094475
277, 698739295, 0.5582505, 0.13590835, -0.81796557, -0.028592506, -0.011288745, -0.014671949, 0.12696648
278, 698755962, 0.55826324, 0.13591577, -0.81795603, -0.028583331, -0.024116602, -0.011311544, 0.12356472
279, 698772629, 0.5582861, 0.13587178, -0.81794685, -0.028610714, -0.0029248905, 0.02112829, 0.12835217
280, 698789296, 0.55831766, 0.13581336, -0.8179342, -0.02863278, 0.011994152, 0.014768506, 0.1081686
281, 698805963, 0.55835503, 0.13573493, -0.8179213, -0.02864434, -0.004779601, 0.027365306, 0.11690521
282, 698822630, 0.5583947, 0.13562919, -0.81791157, -0.028652687, -5.2704354E-4, 0.031313885, 0.116747856
283, 698839297, 0.55843544, 0.13554208, -0.8178978, -0.028660798, 9.781513E-4, 0.0153372055, 0.10912228
284, 698855964, 0.5584874, 0.13554883, -0.8178631, -0.028606858, -0.014793429, -0.016368804, 0.10306454
285, 698872631, 0.5585401, 0.13554181, -0.8178302, -0.028552545, -0.014449665, -0.013950561, 0.10622311
286, 698889298, 0.5585948, 0.13547887, -0.81780386, -0.028538415, -0.01886047, -0.035903893, 0.11367512
287, 698905965, 0.55864954, 0.13541242, -0.8177779, -0.028527463, -0.025956113, -0.022055142, 0.12120056
288, 698922632, 0.55869585, 0.13536769, -0.8177537, -0.028520575, -0.038881868, -0.016842427, 0.10454178
289, 698939299, 0.55873203, 0.1353624, -0.81773144, -0.02847703, -0.042013284, -0.020757593, 0.10338211
290, 698955966, 0.55876255, 0.13533838, -0.81771624, -0.028429057, -0.042351235, -0.0018330298, 0.10641956
291, 698972633, 0.55879, 0.13529952, -0.81770515, -0.02839019, -0.055758882, 0.006757411, 0.110598564
292, 698989300, 0.55880415, 0.13523602, -0.8177058, -0.02839392, -0.0727329, -0.009992203, 0.11637211
293, 699005967, 0.5588023, 0.13515157, -0.81772035, -0.028419646, -0.06627695, -0.037760336, 0.10432911
294, 699022634, 0.5587845, 0.13505062, -0.8177475, -0.028468661, -0.06565648, -0.08548426, 0.107889175
295, 699039301, 0.55876434, 0.13500571, -0.8177685, -0.02846882, -0.046107147, -0.09426564, 0.09904289
296, 699055968, 0.5587301, 0.13506499, -0.8177835, -0.028431617, -0.025241317, -0.08748845, 0.11534119
297, 699072635, 0.5586932, 0.13512492, -0.81779903, -0.028427433, -0.016159093, -0.06234743, 0.13365746
298, 699089302, 0.5586506, 0.13508841, -0.817831, -0.028517755, -0.0035663727, -0.036633886, 0.115493774
299, 699105969, 0.5586201, 0.13513458, -0.81784225, -0.028575195, 0.0041694106, -0.0057568555, 0.12255955
300, 699122636, 0.5585919, 0.135132, -0.81785893, -0.028660651, 0.009013924, 0.016268639, 0.110788345
301, 699139303, 0.55857754, 0.13515799, -0.81786233, -0.028718585, 0.017678982, 0.008996005, 0.1106329
302, 699155970, 0.55857027, 0.13517869, -0.8178628, -0.028749717, 0.016372772, 0.0033860537, 0.1234045
303, 699172637, 0.5585744, 0.13528958, -0.81784296, -0.028712738, -1.01921905E-4, 0.014213412, 0.11726761
304, 699189304, 0.55857456, 0.13534886, -0.81783307, -0.028710112, -0.014971792, 0.030976158, 0.120734215
305, 699205971, 0.5585808, 0.1355311, -0.81780285, -0.0285886, -0.018688813, 0.043872576, 0.09419727
306, 699222638, 0.5585876, 0.13550727, -0.8178016, -0.028605653, -0.0351492, 0.02706714, 0.11134052
307, 699239305, 0.5585792, 0.13548778, -0.8178097, -0.028629186, -0.029105857, 0.012134463, 0.12005901
308, 699255972, 0.5585759, 0.1354493, -0.81781757, -0.02865226, -0.037814815, -0.0061433096, 0.11013508
309, 699272639, 0.5585686, 0.13546471, -0.8178208, -0.028633652, -0.044954713, -0.027633466, 0.11591816
310, 699289306, 0.55855465, 0.13547355, -0.8178288, -0.028633503, -0.0442882, -0.038036596, 0.12234688
311, 699305973, 0.55854297, 0.13546854, -0.817837, -0.028649006, -0.038820177, -0.027225163, 0.11521053
312, 699322640, 0.5585134, 0.13548408, -0.8178544, -0.028658656, -0.040264964, -0.033694018, 0.11122894
313, 699339307, 0.5584801, 0.13548295, -0.81787604, -0.028690157, -0.010358484, -0.023319833, 0.09366417
314, 699355974, 0.5584532, 0.13544354, -0.8178991, -0.028743029, -0.0134192705, -0.0024062288, 0.108953476
315, 699372641, 0.55841666, 0.13541615, -0.8179266, -0.02880089, -0.015480954, 0.0014950782, 0.11568737
316, 699389308, 0.55838645, 0.13545114, -0.81794137, -0.028800355, -4.7340043E-4, -0.022341574, 0.12499428
317, 699405975, 0.55836827, 0.13551843, -0.8179435, -0.028775144, 0.012926529, -0.026169963, 0.119132996
318, 699422642, 0.5583554, 0.13555694, -0.8179462, -0.028768407, 0.015467096, -0.0051447093, 0.10920811
319, 699439309, 0.5583473, 0.13564432, -0.81793875, -0.028728077, 0.032967266, 0.026474662, 0.12343025
320, 699455976, 0.5583534, 0.13563688, -0.8179349, -0.028755467, 0.017261459, 0.037388746, 0.13121986
321, 699472643, 0.55836797, 0.13562027, -0.81792724, -0.028769216, 0.018513579, 0.033467267, 0.11863232
322, 699489310, 0.5583959, 0.13558835, -0.8179132, -0.028776098, 0.0031475094, 0.04078832, 0.104397774
323, 699505977, 0.5584352, 0.13551795, -0.81789726, -0.02879903, 0.016527442, 0.017488157, 0.122387886
324, 699522644, 0.5584838, 0.13547531, -0.81787133, -0.028790554, 0.0145900315, 0.015075167, 0.11695957
325, 699539311, 0.5585366, 0.1354098, -0.81784606, -0.028793296, -0.0026280654, 0.039927907, 0.10740185
326, 699555978, 0.5585835, 0.13528028, -0.8178342, -0.028826654, -0.03183182, 0.031170223, 0.09218693
327, 699572645, 0.558618, 0.13515377, -0.8178305, -0.028857501, -0.05993947, 0.006292728, 0.10495758
328, 699589312, 0.5586377, 0.13504533, -0.81783503, -0.028856656, -0.08249953, -0.008263777, 0.084085464
329, 699605979, 0.5586439, 0.13493408, -0.8178504, -0.028821893, -0.10089375, -0.00904244, 0.08038807
330, 699622646, 0.55862725, 0.1347897, -0.8178869, -0.02878457, -0.0979997, 0.0057540056, 0.089772224
331, 699639313, 0.5585911, 0.13463676, -0.81793725, -0.028768877, -0.08924738, -0.036301967, 0.10890961
332, 699655980, 0.5585326, 0.13444555, -0.8180077, -0.028796464, -0.069768675, -0.05446787, 0.102210045
333, 699672647, 0.55845654, 0.13427868, -0.8180856, -0.028837632, -0.04275043, -0.10479254, 0.09331703
334, 699689314, 0.5583825, 0.13424096, -0.81814367, -0.028799618, -0.035232347, -0.10944027, 0.08771896
335, 699705981, 0.5582999, 0.13426709, -0.8181975, -0.028752198, -0.032955386, -0.12549748, 0.12690067
336, 699722648, 0.5582095, 0.13429964, -0.8182555, -0.028703505, -0.03393642, -0.10718609, 0.11918831
337, 699739315, 0.55811524, 0.13435729, -0.8183114, -0.028673157, -0.007106818, -0.097760044, 0.09974575
338, 699755982, 0.55801946, 0.1344567, -0.8183611, -0.028655676, -0.0065784333, -0.10320822, 0.10399437
339, 699772649, 0.5579179, 0.13461019, -0.8184048, -0.028660027, 0.016756319, -0.1019646, 0.11602688
340, 699789316, 0.5578289, 0.13479273, -0.81843483, -0.028678661, 0.028826913, -0.083088815, 0.12867928
341, 699805983, 0.5577514, 0.13497378, -0.8184567, -0.028711168, 0.03928374, -0.058015805, 0.13108349
342, 699822650, 0.55769217, 0.13516808, -0.8184637, -0.02874606, 0.042190306, -0.0061799097, 0.12747288
343, 699839317, 0.5576556, 0.13541, -0.81844914, -0.028735293, 0.035312366, 0.049911395, 0.13559628
344, 699855984, 0.55761707, 0.13559557, -0.8184438, -0.02875633, 0.033720057, 0.07912699, 0.10732365
345, 699872651, 0.5575841, 0.13560264, -0.81846046, -0.028888278, 0.012921731, 0.10757371, 0.13888073
346, 699889318, 0.5575675, 0.13563924, -0.8184622, -0.028988292, 0.024168903, 0.07932519, 0.1261282
347, 699905985, 0.5575668, 0.13560663, -0.81846374, -0.029110398, 0.0030241304, 0.055764303, 0.12580872
348, 699922652, 0.55757195, 0.1355703, -0.81846297, -0.029198391, -0.013868085, 0.041678406, 0.11621952
349, 699939319, 0.5575732, 0.13547505, -0.8184737, -0.029315943, -0.009562331, 0.011530419, 0.115735054
350, 699955986, 0.5575776, 0.13540694, -0.8184787, -0.029405084, -0.03222252, -0.011339762, 0.11379719
351, 699972653, 0.55759174, 0.1353681, -0.81847316, -0.029469095, -0.013831429, -0.03901575, 0.106227875
352, 699989320, 0.5576002, 0.13539763, -0.8184622, -0.029484082, -0.017741734, -0.047321536, 0.117482185
353, 700005987, 0.5576048, 0.13543962, -0.81845134, -0.029508077, -0.027610555, -0.047386646, 0.111068726
354, 700022654, 0.5576137, 0.13561243, -0.8184188, -0.029449793, -0.030998565, -0.05273112, 0.109428406
355, 700039321, 0.5576257, 0.13566855, -0.81840074, -0.029460354, -0.025548425, -0.039075654, 0.108223915
356, 700055988, 0.557631, 0.13574937, -0.8183839, -0.029457226, -0.032089755, 0.0012995602, 0.10606861
357, 700072655, 0.55763793, 0.13583134, -0.81836635, -0.029434418, -0.014481405, 0.005778201, 0.09207916
358, 700089322, 0.5576391, 0.135884, -0.8183578, -0.02940689, -0.026311498, 0.046373237, 0.10036087
359, 700105989, 0.55764544, 0.13588217, -0.8183541, -0.02939995, -0.037227422, 0.07078292, 0.10460281
360, 700122656, 0.5576565, 0.13589185, -0.81834674, -0.02934606, -0.029425928, 0.07597278, 0.107746124
361, 700139323, 0.5576635, 0.13587502, -0.8183465, -0.02930047, -0.01719977, 0.08304685, 0.102458
362, 700155990, 0.5576693, 0.13584964, -0.8183494, -0.029228209, -0.008636541, 0.058056094, 0.11211395
363, 700172657, 0.55766606, 0.13572533, -0.81837296, -0.02920837, -0.0030661507, 0.04389845, 0.10273266
364, 700189324, 0.5576693, 0.13563448, -0.81838727, -0.029168487, -0.016550241, 0.02849902, 0.110019684
365, 700205991, 0.55768394, 0.13551222, -0.81839913, -0.029125277, -0.015685245, 0.0023984057, 0.11219692
366, 700222658, 0.5577052, 0.13537784, -0.8184084, -0.029076157, -0.007418395, -0.0034237714, 0.11463165
367, 700239325, 0.55771893, 0.13522416, -0.8184253, -0.029053787, -0.0011273994, -0.0119885085, 0.1146183
368, 700255992, 0.55773306, 0.13508235, -0.8184397, -0.029038163, 0.0064295735, -0.05633845, 0.12398434
369, 700272659, 0.5577514, 0.13497964, -0.81844497, -0.029017335, -0.008404534, -0.06195293, 0.12190628
370, 700289326, 0.55775744, 0.13485505, -0.8184606, -0.02903776, -0.024540065, -0.0925004, 0.10876846
371, 700305993, 0.55777544, 0.1347628, -0.8184629, -0.029057974, -0.021264128, -0.088874005, 0.119395256
372, 700322660, 0.55779237, 0.13479818, -0.8184467, -0.029020617, -0.029052215, -0.10120376, 0.11125088
373, 700339327, 0.5578033, 0.13492222, -0.81842184, -0.028935669, -0.011181012, -0.078133315, 0.11121082
374, 700355994, 0.5578054, 0.1349316, -0.8184172, -0.02898211, -0.013959725, -0.06492286, 0.09233379
375, 700372661, 0.5578107, 0.13496879, -0.8184063, -0.02901418, -0.027921239, -0.045021154, 0.10509968
376, 700389328, 0.5578051, 0.13499644, -0.81840396, -0.02906066, -0.031777732, -0.041586373, 0.118195534
377, 700405995, 0.5577932, 0.13512233, -0.8183918, -0.029048372, -0.04972046, -0.0432302, 0.1020031
378, 700422662, 0.55777913, 0.13523005, -0.8183836, -0.029044352, -0.013002195, -0.016681554, 0.08906078
379, 700439329, 0.5577706, 0.13530318, -0.8183773, -0.029046005, -0.028265895, -0.0024657391, 0.11178112
380, 700455996, 0.5577604, 0.13537349, -0.81837255, -0.029049758, -0.025573459, 0.036695797, 0.10931587
381, 700472663, 0.55774623, 0.1353554, -0.81838197, -0.02914042, -0.012687489, 0.02665554, 0.10572243
382, 700489330, 0.5577306, 0.13541803, -0.8183824, -0.029136844, -0.010632511, 0.016584717, 0.11018944
383, 700505997, 0.55772907, 0.13545924, -0.8183773, -0.029116938, -0.030047294, 0.014433405, 0.111870766
384, 700522664, 0.5577225, 0.13545741, -0.8183824, -0.029108154, -0.028141622, 0.029090155, 0.11447811
385, 700539331, 0.5577115, 0.13541391, -0.8183967, -0.029119765, -0.0301063, 0.03637992, 0.09747505
386, 700555998, 0.557691, 0.13541692, -0.8184121, -0.029063398, -0.038858622, 0.022803072, 0.102321625
387, 700572665, 0.55767465, 0.13542703, -0.8184237, -0.029003514, -0.020617625, 0.009189448, 0.10252762
388, 700589332, 0.557668, 0.13541557, -0.8184317, -0.028959809, -0.0044094636, -0.010377428, 0.11108494
389, 700605999, 0.55765563, 0.13543187, -0.8184392, -0.028913539, -0.006782724, -0.014918037, 0.1253643
390, 700622666, 0.5576439, 0.13539256, -0.8184539, -0.028905008, -0.013598975, -0.0041852803, 0.12093353
391, 700639333, 0.5576465, 0.13539223, -0.8184535, -0.028868284, 0.0017121092, -0.015776997, 0.114510536
392, 700656000, 0.5576416, 0.13534531, -0.8184644, -0.02887416, 0.007351788, -0.01953196, 0.123812675
393, 700672667, 0.5576435, 0.13529348, -0.81847066, -0.028903589, 0.008886875, -0.018856615, 0.10958767
394, 700689334, 0.5576597, 0.13524514, -0.81846637, -0.028939044, 0.013711626, -0.023755403, 0.1192646
395, 700706001, 0.5576811, 0.13514596, -0.81846637, -0.028989555, -0.0170974, -0.022395216, 0.09841919
396, 700722668, 0.55770534, 0.13512217, -0.8184543, -0.028974464, -0.025777303, 0.008522269, 0.12771225
397, 700739335, 0.5577305, 0.13506669, -0.81844515, -0.029004568, -0.0011524328, -0.012174136, 0.13192749
398, 700756002, 0.55775386, 0.13500693, -0.81843823, -0.029026635, 0.0017876566, -0.016366346, 0.10321617
399, 700772669, 0.5577882, 0.13502713, -0.8184132, -0.028982457, 0.0058774967, -0.03395346, 0.10779095
400, 700789336, 0.55782294, 0.13505472, -0.81838626, -0.028944094, -0.006435832, 0.0020977808, 0.11600304
401, 700806003, 0.55784905, 0.13498692, -0.81837815, -0.028985232, -0.028172467, 0.01971077, 0.10885334
402, 700822670, 0.55786747, 0.13487676, -0.818381, -0.029062975, -0.026102737, -0.024442986, 0.11371136
403, 700839337, 0.55789465, 0.13487783, -0.81836295, -0.029046465, -0.03920909, -0.01835846, 0.10019112
404, 700856004, 0.55791366, 0.13487619, -0.818351, -0.029025715, -0.042315327, -0.010966706, 0.11002636
405, 700872671, 0.5579288, 0.13483074, -0.81834775, -0.029037815, -0.03914561, -0.0038626392, 0.12123394
406, 700889338, 0.5579479, 0.13480307, -0.81833917, -0.029042862, -0.04108168, -0.0076766643, 0.106523514
407, 700906005, 0.55795, 0.134778, -0.8183417, -0.02904497, -0.016848853, -0.0063836975, 0.09360981
408, 700922672, 0.5579583, 0.13472556, -0.81834435, -0.029055044, -0.007418395, 0.0037042242, 0.1143446
409, 700939339, 0.55797213, 0.1346797, -0.81834185, -0.029071257, -0.014144347, -0.017869301, 0.12724209
410, 700956006, 0.55797756, 0.13466966, -0.8183401, -0.029062247, -0.02261683, -0.016888974, 0.13118076
411, 700972673, 0.55798274, 0.13454287, -0.8183548, -0.029136831, -0.00499015, -0.02235286, 0.112285614
412, 700989340, 0.55799633, 0.13451225, -0.81834996, -0.029155983, -0.023246242, -0.007617377, 0.12814617
413, 701006007, 0.55800706, 0.13447486, -0.8183484, -0.029164571, -0.027885476, -0.021362698, 0.10371113
414, 701022674, 0.5580163, 0.13448209, -0.81834126, -0.029154528, -0.024674043, -0.024063405, 0.09989357
415, 701039341, 0.55802274, 0.13449432, -0.81833595, -0.029124638, -0.009232426, -0.027566468, 0.11786938
416, 701056008, 0.55802757, 0.13449931, -0.81833225, -0.029113116, -0.0015373221, -0.031744428, 0.115971565
417, 701072675, 0.55803645, 0.13453752, -0.8183204, -0.02910134, -0.0034581923, -0.025008138, 0.11240864
418, 701089342, 0.55804604, 0.13454378, -0.81831205, -0.029123731, -0.0026517578, -0.028713703, 0.1138773
419, 701106009, 0.55805326, 0.13454548, -0.81830585, -0.029155236, -0.016301246, -0.007943148, 0.10715675
420, 701122676, 0.5580663, 0.13455679, -0.8182947, -0.029159762, -0.023000823, -0.027924927, 0.11418915
421, 701139343, 0.55807793, 0.13448533, -0.8182967, -0.02921339, -0.023622638, -0.016498385, 0.11116123
422, 701156010, 0.5580818, 0.13451153, -0.81829023, -0.029198935, -0.048303153, -0.011958827, 0.114295006
423, 701172677, 0.5580845, 0.13456777, -0.81828076, -0.029151011, -0.03658773, 0.008661909, 0.11030483
424, 701189344, 0.55807066, 0.13454275, -0.8182935, -0.02917337, -0.026788922, -0.013265438, 0.1104517
425, 701206011, 0.5580499, 0.13448954, -0.8183152, -0.029205395, -0.02183364, 0.008967508, 0.10749912
426, 701222678, 0.55803746, 0.13446106, -0.81832814, -0.029217467, -0.037700377, 0.0032318856, 0.103360176
427, 701239345, 0.5580134, 0.1344301, -0.8183494, -0.029221293, -0.027948506, -0.03831532, 0.11032677
428, 701256012, 0.55799407, 0.13444166, -0.81836104, -0.029211784, -0.02343444, -0.039365437, 0.105439186
429, 701272679, 0.5579709, 0.13451113, -0.81836677, -0.029175445, 0.001897178, -0.04717956, 0.119114876
430, 701289346, 0.55795586, 0.13457994, -0.8183662, -0.029160753, 0.013180112, -0.042494897, 0.11687374
431, 701306013, 0.5579429, 0.13468076, -0.8183591, -0.0291427, -3.5449155E-4, -0.033518784, 0.119478226
432, 701322680, 0.5579359, 0.13473383, -0.8183545, -0.029160572, 0.018515367, -0.06380653, 0.12507057
433, 701339347, 0.5579391, 0.1348382, -0.8183356, -0.029149193, 0.011838587, -0.046393577, 0.109965324
434, 701356014, 0.5579448, 0.13491835, -0.81831783, -0.029168805, -0.016954351, -0.02879713, 0.13036823
435, 701372681, 0.5579545, 0.13501468, -0.8182951, -0.029173754, -0.017645454, -4.6406878E-4, 0.09495354
436, 701389348, 0.5579592, 0.13511735, -0.8182755, -0.029158588, -0.039159916, 0.040931147, 0.09947491
437, 701406015, 0.55795115, 0.13521548, -0.818266, -0.029123612, -0.056307383, 0.04383117, 0.0858078
438, 701422682, 0.55793184, 0.13523124, -0.8182759, -0.029140929, -0.05889611, 0.04135962, 0.10371399
439, 701439349, 0.5579083, 0.13524142, -0.81828994, -0.029154064, -0.055513218, 0.03947526, 0.10497856
440, 701456016, 0.55786943, 0.1352475, -0.818316, -0.029138392, -0.039265864, 0.010486334, 0.09923935
441, 701472683, 0.5578434, 0.13521539, -0.8183396, -0.029116584, -0.035241734, 0.028786791, 0.100497246
442, 701489350, 0.5578153, 0.13517965, -0.8183647, -0.029119398, -0.023322683, 2.4055582E-4, 0.11200142
443, 701506017, 0.55777526, 0.13515727, -0.81839585, -0.029113816, -0.013145691, -0.019321913, 0.10769367
444, 701522684, 0.55774, 0.13515529, -0.81842047, -0.029106168, -0.001086273, -0.018348793, 0.10270977
445, 701539351, 0.5577122, 0.13514237, -0.81844145, -0.029106995, -0.012299024, -0.0063852062, 0.11577511
446, 701556018, 0.55768603, 0.13512714, -0.8184625, -0.029089916, -0.012302153, -0.023509651, 0.12441158
447, 701572685, 0.55765617, 0.13509949, -0.8184869, -0.029101342, 0.0056785704, -0.029818583, 0.11337471
448, 701589352, 0.5576338, 0.13509703, -0.8185016, -0.02912576, 0.013850204, -0.034065384, 0.10828209
449, 701606019, 0.5576143, 0.13507561, -0.81851727, -0.02916174, 0.0027398218, -0.013297345, 0.13081074
450, 701622686, 0.55760634, 0.13510802, -0.8185173, -0.029162383, 0.018447418, -0.015262471, 0.11398125
451, 701639353, 0.5576024, 0.13513164, -0.8185154, -0.02918173, -0.0034125957, -0.007984833, 0.098032
452, 701656020, 0.5575995, 0.13515727, -0.8185132, -0.029182741, -0.022917677, -0.0043958295, 0.09720516
453, 701672687, 0.55758697, 0.13513806, -0.81852394, -0.029209215, -0.025012441, -0.0014445083, 0.11191845
454, 701689354, 0.55758846, 0.13512844, -0.81852466, -0.029204955, -0.019612368, 0.007106762, 0.11915493
455, 701706021, 0.5575869, 0.1350762, -0.8185329, -0.02924432, -0.00815107, 0.0031528738, 0.10096359
456, 701722688, 0.55758625, 0.13502525, -0.81854016, -0.029291106, -0.010473998, -0.0016610244, 0.12343407
457, 701739355, 0.5575939, 0.13501173, -0.8185366, -0.029308321, -0.01615641, -0.0051931557, 0.11726475
458, 701756022, 0.55760676, 0.13500413, -0.8185286, -0.029321184, -0.021363368, -0.027793333, 0.11482239
459, 701772689, 0.55762017, 0.13497941, -0.81852275, -0.029341972, 0.0066195596, -0.0046729855, 0.11970711
460, 701789356, 0.5576316, 0.13496068, -0.81851786, -0.02934626, -0.0103111, -7.887772E-4, 0.1101408
461, 701806023, 0.5576388, 0.1349383, -0.81851685, -0.029340167, -0.032945808, -0.0027861448, 0.105555534
462, 701822690, 0.55765146, 0.13491543, -0.81851184, -0.02934501, -0.025292726, -0.014547061, 0.09432602
463, 701839357, 0.5576514, 0.13486008, -0.8185202, -0.029366592, -0.015792085, -0.021655053, 0.108810425
464, 701856024, 0.55766165, 0.13482365, -0.8185189, -0.029376483, -0.022231046, -0.020939868, 0.11067295
465, 701872691, 0.55767316, 0.13481267, -0.8185128, -0.02937733, -0.041496523, -0.0024190808, 0.11047268
466, 701889358, 0.55766404, 0.13471457, -0.8185333, -0.029430483, -0.04839592, -0.021718418, 0.11391449
467, 701906025, 0.55765855, 0.13467005, -0.81854373, -0.02944879, -0.019016482, -0.016176471, 0.107543945
468, 701922692, 0.5576607, 0.1346368, -0.81854737, -0.029461786, -0.02559447, -0.025066586, 0.1106863
469, 701939359, 0.55765593, 0.1346137, -0.81855434, -0.029462827, -0.026972203, -0.022350848, 0.102282524
470, 701956026, 0.5576529, 0.1346153, -0.8185565, -0.029452292, 0.0022530106, -0.022182655, 0.11338234
471, 701972693, 0.5576561, 0.13460621, -0.8185552, -0.029465975, -0.027825575, -0.02018322, 0.13842583
472, 701989360, 0.5576548, 0.13456799, -0.8185622, -0.029472558, 0.0054783025, -0.013677987, 0.12182808
473, 702006027, 0.5576552, 0.1345064, -0.8185715, -0.029489266, -0.0075520556, -0.017248718, 0.10581207
474, 702022694, 0.55765927, 0.13448648, -0.8185719, -0.029493509, -0.027599694, -0.013234604, 0.115587234
475, 702039361, 0.5576679, 0.13445039, -0.81857145, -0.02950374, -0.0102449395, -0.002610296, 0.11114788
476, 702056028, 0.55766743, 0.13438724, -0.8185811, -0.029533029, -0.035933282, -0.0099635925, 0.13095665
477, 702072695, 0.55767775, 0.13433158, -0.8185823, -0.029559588, -0.025034346, 2.5569883E-4, 0.118411064
478, 702089362, 0.5576698, 0.13427027, -0.8185973, -0.029569302, -0.019596275, -0.004958411, 0.10552406
479, 702106029, 0.55765796, 0.13418755, -0.8186177, -0.029605187, -0.027421463, -0.006492884, 0.08717346
480, 702122696, 0.5576582, 0.13415791, -0.818622, -0.029617345, -0.030204646, -0.003192659, 0.11182499
481, 702139363, 0.5576556, 0.13406584, -0.81863725, -0.029664276, -0.019862702, -0.01940953, 0.1006403
482, 702156030, 0.55764675, 0.13402209, -0.8186497, -0.029678639, -0.009944986, -0.036084827, 0.11596203
483, 702172697, 0.5576492, 0.1339945, -0.8186518, -0.02970171, -0.004435391, -0.015837457, 0.10454559
484, 702189364, 0.55764884, 0.13399637, -0.81865203, -0.029690662, -0.011117535, -0.024121294, 0.11879635
485, 702206031, 0.5576493, 0.13402086, -0.8186483, -0.029674955, -0.020295423, -0.017177753, 0.11500549
486, 702222698, 0.5576542, 0.13403213, -0.8186439, -0.02965602, -0.00890565, 0.015121378, 0.11629295
487, 702239365, 0.5576531, 0.13402691, -0.8186451, -0.029667325, -0.018564092, 0.023506802, 0.1004591
488, 702256032, 0.5576551, 0.13400419, -0.81864697, -0.029679867, -0.013211404, -9.1165345E-4, 0.10849571
489, 702272699, 0.557659, 0.13398445, -0.8186473, -0.029687513, -0.018066552, -0.0043485565, 0.101903915
490, 702289366, 0.55766267, 0.13396455, -0.8186479, -0.029692523, -0.004281614, -0.013659044, 0.10165882
491, 702306033, 0.5576715, 0.13393298, -0.81864643, -0.029706953, 0.018046176, -0.019098036, 0.12416172
492, 702322700, 0.55768853, 0.13387409, -0.8186438, -0.029725282, 0.0036374498, -0.044195104, 0.10678768
493, 702339367, 0.5577103, 0.13385096, -0.81863236, -0.029736098, -0.0040133987, -0.031943467, 0.123122215
494, 702356034, 0.55773383, 0.13383773, -0.8186182, -0.02975013, -6.267303E-4, -0.018412495, 0.11228466
495, 702372701, 0.557753, 0.1338342, -0.8186047, -0.029772144, -0.0048341383, -0.020726021, 0.10077667
496, 702389368, 0.5577666, 0.13374725, -0.8186065, -0.029858187, 8.0285856E-4, -0.022780217, 0.09870529
497, 702406035, 0.5577969, 0.13377257, -0.81858164, -0.029861607, -0.012970457, -0.01103869, 0.11264229
498, 702422702, 0.55781496, 0.13376766, -0.81856936, -0.029885503, -0.035496987, -0.01188966, 0.12395382
499, 702439369, 0.55784076, 0.1337636, -0.8185518, -0.029898377, -0.028803667, 0.0031548853, 0.107624054
500, 702456036, 0.5578586, 0.13374029, -0.818543, -0.029916083, -0.009260588, 0.0074374494, 0.10235691
501, 702472703, 0.55787206, 0.13372196, -0.81853586, -0.029941628, -0.036735248, 3.7471947E-4, 0.11278629
502, 702489370, 0.55787706, 0.13370487, -0.81853515, -0.0299457, -0.046175543, -0.0143508725, 0.11088276
503, 702506037, 0.5578848, 0.13370453, -0.8185303, -0.029930992, -0.04530384, -0.011074956, 0.09498596
504, 702522704, 0.5578868, 0.1336913, -0.81853163, -0.029918935, -0.0491952, -0.008052054, 0.1006155
505, 702539371, 0.55787176, 0.1336901, -0.81854224, -0.029914053, -0.033894844, -0.018258717, 0.10408592
506, 702556038, 0.5578641, 0.13367605, -0.8185496, -0.02991813, -0.038485803, -0.013849757, 0.11644554
507, 702572705, 0.55785, 0.13366887, -0.8185607, -0.029908486, -0.03466239, -0.008738463, 0.11201954
508, 702589372, 0.55782586, 0.13358024, -0.8185898, -0.029957956, -0.020523744, -0.01945417, 0.10311794
509, 702606039, 0.5578109, 0.1335689, -0.8186021, -0.029951638, -0.018379023, -0.03549341, 0.10781765
510, 702622706, 0.5577807, 0.13356942, -0.81862295, -0.029940525, -0.023120627, -0.020284751, 0.11390209
511, 702639373, 0.5577594, 0.13357142, -0.81863654, -0.029958446, -0.018524306, -0.019673275, 0.11617565
512, 702656040, 0.5577407, 0.13358296, -0.8186466, -0.02998239, -0.009142127, -0.049420223, 0.10361385
513, 702672707, 0.5577234, 0.1335129, -0.81866735, -0.03005017, -0.018450994, -0.033537056, 0.11058712
514, 702689374, 0.55771023, 0.13352014, -0.81867445, -0.030065604, -0.0041318606, -0.0131434, 0.12212086
515, 702706041, 0.55770224, 0.13369688, -0.81865495, -0.029960956, -0.005751435, -0.018795094, 0.110256195
516, 702722708, 0.55769515, 0.13367918, -0.8186614, -0.029995043, -0.001328561, -0.025787976, 0.10949421
517, 702739375, 0.5577004, 0.13370927, -0.8186532, -0.029987825, -0.0040281503, -0.0059551676, 0.11061001
518, 702756042, 0.5576963, 0.13372134, -0.81865317, -0.030010661, -0.008586474, -0.0013265494, 0.115701675
519, 702772709, 0.5576957, 0.13372211, -0.8186522, -0.030044943, -0.01733343, -0.008293727, 0.11645794
520, 702789376, 0.55770665, 0.13369697, -0.81864697, -0.030097488, -0.029972194, -2.6341E-4, 0.11440182
521, 702806043, 0.5577146, 0.13378845, -0.8186279, -0.030057246, -0.023001717, -0.012332551, 0.10686588
522, 702822710, 0.55772364, 0.13385023, -0.8186132, -0.030013653, -0.006918173, 0.0039871917, 0.10800934
523, 702839377, 0.5577287, 0.13379434, -0.8186171, -0.03006445, -0.024014233, 0.021704951, 0.11402321
524, 702856044, 0.5577337, 0.1337751, -0.8186163, -0.030081704, -0.02141567, -0.0023442039, 0.10452461
525, 702872711, 0.55773133, 0.13375789, -0.81861943, -0.030116312, -0.024366936, -0.02821432, 0.10342026
526, 702889378, 0.5577299, 0.13377863, -0.81861687, -0.030119633, -0.022618633, -0.018845284, 0.10797691
527, 702906045, 0.5577319, 0.13375215, -0.8186187, -0.030152805, -0.027270816, -0.020023184, 0.10942364
528, 702922712, 0.5577377, 0.133755, -0.8186136, -0.03016707, -0.017232401, -0.031522647, 0.11964226
529, 702939379, 0.5577413, 0.1337617, -0.81860954, -0.030178877, -0.01927218, -0.014711567, 0.10412884
530, 702956046, 0.5577449, 0.13375951, -0.818607, -0.030194055, 0.007128722, 0.011490466, 0.117762566
531, 702972713, 0.5577547, 0.13373959, -0.81860244, -0.030224407, -0.003261501, 0.010698951, 0.11820793
532, 702989380, 0.55776536, 0.13372745, -0.8185961, -0.030252641, -0.022459028, 0.025762439, 0.10150242
533, 703006047, 0.55777466, 0.13367836, -0.81859654, -0.030287635, -0.026196165, 0.00963542, 0.09410858
534, 703022714, 0.55777556, 0.1336529, -0.81859976, -0.030298488, -0.032265883, 0.0018302358, 0.11204147
535, 703039381, 0.5577787, 0.13367827, -0.8185953, -0.030249076, -0.02553412, 0.003753956, 0.09806919
536, 703056048, 0.557782, 0.13363267, -0.8186013, -0.03022665, -0.021940926, 0.018156068, 0.07781696
537, 703072715, 0.55777836, 0.13356912, -0.81861407, -0.030228782, -0.02232224, 0.03192849, 0.11022663
538, 703089382, 0.5577795, 0.13348554, -0.8186269, -0.030230124, -0.032588188, 0.0030676036, 0.118906975
539, 703106049, 0.55778325, 0.13338274, -0.8186414, -0.030220296, -0.012620882, 0.022898959, 0.109371185
540, 703122716, 0.55778766, 0.13328111, -0.8186554, -0.030211926, -0.0057764687, 0.038228817, 0.09324837
541, 703139383, 0.5577953, 0.13317558, -0.818668, -0.030194769, 0.0031126414, -0.0026817084, 0.09523296
542, 703156050, 0.5578045, 0.13307469, -0.8186781, -0.030194467, -0.0024626658, -0.010897597, 0.116900444
543, 703172717, 0.5578259, 0.1329725, -0.81867975, -0.030203525, 0.0011882661, -0.03450051, 0.12265015
544, 703189384, 0.5578498, 0.13287556, -0.81867945, -0.03019712, 0.0024885933, -0.052623276, 0.102555275
545, 703206051, 0.5578722, 0.13282403, -0.81867313, -0.030180495, -0.0076673883, -0.05946724, 0.1337328
546, 703222718, 0.5578997, 0.13279183, -0.81866, -0.030168975, 0.0072427136, -0.06025887, 0.11630726
547, 703239385, 0.557932, 0.1327648, -0.81864214, -0.030175444, -0.005523899, -0.06665151, 0.11134243
548, 703256052, 0.5579644, 0.13277906, -0.8186174, -0.03018527, 0.0016097403, -0.042326704, 0.10025215
549, 703272719, 0.5579929, 0.13271578, -0.8186059, -0.030251632, -0.028389275, -0.039368007, 0.11011028
550, 703289386, 0.55802757, 0.1327436, -0.8185777, -0.030252121, -0.020558275, -0.03049717, 0.10049248
551, 703306053, 0.55805814, 0.1327669, -0.81855285, -0.030256344, -0.035685185, -0.01776319, 0.11321449
552, 703322720, 0.5580885, 0.13282952, -0.818523, -0.030230701, -0.028113907, -0.004140689, 0.11209011
553, 703339387, 0.55808765, 0.13283849, -0.81852174, -0.030241499, -0.04991089, 0.012017118, 0.110476494
554, 703356054, 0.55809, 0.13282216, -0.8185219, -0.030265547, -0.021856885, 0.018267658, 0.099526405
555, 703372721, 0.55809695, 0.13297816, -0.81849545, -0.030164313, -0.036027607, 0.011104794, 0.106245995
556, 703389388, 0.5580921, 0.13294257, -0.8185047, -0.030160464, -0.028539922, -0.0067526614, 0.09318066
557, 703406055, 0.55808574, 0.13292728, -0.8185123, -0.030137552, -0.02200485, -0.0021476801, 0.12312603
558, 703422722, 0.5580735, 0.13289616, -0.81852573, -0.030140541, -0.024392864, -0.0047780364, 0.106349945
559, 703439389, 0.55806184, 0.13284063, -0.81854206, -0.030158449, -0.014859141, -0.014962628, 0.10923576
560, 703456056, 0.55804473, 0.13278104, -0.818563, -0.030168733, -0.015701385, -0.03518713, 0.11236954
561, 703472723, 0.55802083, 0.1327287, -0.8185864, -0.030204792, -0.016062535, -0.040129628, 0.11935425
562, 703489390, 0.55800235, 0.13271286, -0.81860095, -0.030220695, -0.008965105, -0.031201795, 0.11899471
563, 703506057, 0.55799496, 0.13270377, -0.81860745, -0.030220097, 0.004711653, -0.041595537, 0.10087299
564, 703522724, 0.5579879, 0.1327153, -0.8186103, -0.030221539, -0.0139239635, -0.029722529, 0.11804485
565, 703539391, 0.5579791, 0.1327268, -0.8186143, -0.030223818, -0.014147476, -0.012805114, 0.11322689
566, 703556058, 0.55797213, 0.13273357, -0.8186179, -0.030230774, -0.009238685, -0.0100071775, 0.11649799
567, 703572725, 0.5579704, 0.1327223, -0.8186202, -0.030248158, -0.022972662, -0.014527225, 0.10737991
568, 703589392, 0.5579547, 0.13266163, -0.8186386, -0.030302288, -0.017441163, -0.017981337, 0.11538315
569, 703606059, 0.55794334, 0.13267633, -0.81864417, -0.03029677, -0.0099677835, -0.009855692, 0.11242008
570, 703622726, 0.55792916, 0.13269477, -0.81865156, -0.030281538, -0.0043196115, -0.006707512, 0.11207485
571, 703639393, 0.55791366, 0.13270377, -0.81866074, -0.030278305, -0.02574154, 0.013354173, 0.097213745
572, 703656060, 0.557903, 0.13267939, -0.8186715, -0.03029043, -0.024859112, 0.0029841773, 0.10153961
573, 703672727, 0.5578875, 0.13264589, -0.818687, -0.030304287, -0.012414357, -0.017772913, 0.12772465
574, 703689394, 0.55787, 0.13261604, -0.8187033, -0.030317241, -0.0012378148, -0.04209503, 0.10840607
575, 703706061, 0.5578561, 0.13261871, -0.81871265, -0.03031085, -0.0063531324, -0.06912429, 0.10139656
576, 703722728, 0.557841, 0.13266335, -0.81871635, -0.030289896, 0.0056195627, -0.045901738, 0.114302635
577, 703739395, 0.55784535, 0.13280135, -0.81869394, -0.030210255, -0.0052735647, -0.04695521, 0.120168686
578, 703756062, 0.5578341, 0.13269329, -0.81871545, -0.03030975, 0.017280376, -0.025380524, 0.1261673
579, 703772729, 0.55782837, 0.13273597, -0.8187118, -0.03032723, 0.009720132, -0.00612107, 0.1250763
580, 703789396, 0.55783707, 0.13276358, -0.8187005, -0.030349893, -0.0067201406, 0.0076957187, 0.10937405
581, 703806063, 0.5578445, 0.13279186, -0.81868976, -0.030382324, -0.016941387, 0.018821746, 0.11296368
582, 703822730, 0.5578483, 0.13276805, -0.818689, -0.030435516, -0.006915491, 0.020845154, 0.11672878
583, 703839397, 0.55786526, 0.13273671, -0.81868154, -0.030461686, -0.023494788, 0.029220296, 0.09956646
584, 703856064, 0.5578769, 0.13274284, -0.81867355, -0.030436082, -0.011261477, 0.047056742, 0.07952595
585, 703872731, 0.5578944, 0.13272402, -0.8186654, -0.030421771, -0.016080417, 0.02839408, 0.11086464
586, 703889398, 0.5579102, 0.13265178, -0.81866574, -0.030434228, -0.040723614, 0.020720322, 0.11114788
587, 703906065, 0.55791026, 0.13258913, -0.8186759, -0.030432656, -0.03224532, 0.0013735988, 0.10771465
588, 703922732, 0.5579151, 0.13250422, -0.8186859, -0.03044638, -0.018704906, -0.013532313, 0.09818554
589, 703939399, 0.5579131, 0.13242571, -0.8187007, -0.03042857, -0.029452302, -0.03207344, 0.119400024
590, 703956066, 0.557905, 0.13239565, -0.8187122, -0.030396884, -0.026572114, -0.041178517, 0.11262703
591, 703972733, 0.55789363, 0.13244101, -0.818715, -0.030330386, -0.025313737, -0.0499286, 0.111144066
592, 703989400, 0.55787665, 0.13241811, -0.81873006, -0.03033526, -0.0119203925, -0.052430887, 0.12092495
593, 704006067, 0.55786204, 0.1323742, -0.81874514, -0.030387389, -0.009783162, -0.060143985, 0.114019394
594, 704022734, 0.55784434, 0.13239445, -0.81875354, -0.03039997, 2.673215E-4, -0.076128684, 0.12598419
595, 704039401, 0.557824, 0.13239713, -0.818766, -0.030428005, -0.0040498506, -0.05242168, 0.11479092
596, 704056068, 0.5578163, 0.13244133, -0.8187635, -0.030440412, -0.0019883714, -0.013367974, 0.11151028
597, 704072735, 0.5578118, 0.13248535, -0.8187587, -0.030460242, 0.015230173, -0.0022502167, 0.10641384
598, 704089402, 0.5578067, 0.13252218, -0.8187549, -0.030495696, 0.009514499, 0.010581215, 0.12035751
599, 704106069, 0.5578122, 0.13262023, -0.8187362, -0.030473365, 0.006368778, 0.014440166, 0.1198473
600, 704122736, 0.55781704, 0.13262635, -0.81873053, -0.030510508, -0.0013580647, 0.029373458, 0.115029335
601, 704139403, 0.5578285, 0.13260223, -0.8187258, -0.030532932, -0.009528805, 0.04232117, 0.124448776
602, 704156070, 0.557842, 0.13258387, -0.81871915, -0.030545088, -0.010595855, 0.027920568, 0.10312462
603, 704172737, 0.5578566, 0.13250694, -0.8187205, -0.03057506, -0.017963735, 0.028875528, 0.10954666
604, 704189404, 0.5578762, 0.13245675, -0.8187153, -0.030573076, -0.015656635, 0.015542756, 0.117486954
605, 704206071, 0.5579064, 0.13251, -0.8186886, -0.030505631, -0.017966418, -0.008428338, 0.11727142
606, 704222738, 0.55793077, 0.13244623, -0.81868154, -0.0305266, -0.024879673, -0.008711026, 0.1005764
607, 704239405, 0.5579516, 0.13240711, -0.8186736, -0.030530391, -0.022857329, -0.040583696, 0.10529804
608, 704256072, 0.55797464, 0.13237345, -0.81866395, -0.030516557, -0.019533692, -0.02004615, 0.09243107
609, 704272739, 0.55799615, 0.13223653, -0.81866944, -0.03056586, -0.020836772, -0.02327759, 0.11838627
610, 704289406, 0.5580066, 0.1322304, -0.8186641, -0.030547695, -0.036813032, -0.025031328, 0.11791897
611, 704306073, 0.55801857, 0.13219607, -0.81866056, -0.030569669, -0.018338343, -0.024923595, 0.11185551
612, 704322740, 0.55802906, 0.13224779, -0.818647, -0.030518012, -0.011276228, -0.03657527, 0.12053776
613, 704339407, 0.55804175, 0.13221772, -0.81864256, -0.030535374, -0.016865958, -0.0043231114, 0.11141968
614, 704356074, 0.5580527, 0.13217291, -0.81864125, -0.030562244, 0.001019219, -0.021228477, 0.11042786
615, 704372741, 0.5580633, 0.13214755, -0.81863755, -0.030576227, -0.0010594514, -0.0136403255, 0.12594604
616, 704389408, 0.5580816, 0.13213333, -0.8186275, -0.03057276, -0.006587374, -0.011906871, 0.11905575
617, 704406075, 0.55811274, 0.13214858, -0.8186042, -0.030566283, -0.011935145, -0.021983001, 0.10979748
618, 704422742, 0.55813676, 0.132168, -0.818585, -0.030557904, -0.007964213, -0.0015187147, 0.10059929
619, 704439409, 0.55815727, 0.13217634, -0.8185696, -0.030558463, -0.004818939, 0.008022606, 0.1156435
620, 704456076, 0.5581795, 0.13215005, -0.8185579, -0.0305795, -0.02787877, -0.0059547764, 0.1152668
621, 704472743, 0.5581957, 0.13213107, -0.8185495, -0.03058983, -0.031285107, -0.0153293, 0.116781235
622, 704489410, 0.5582082, 0.13211349, -0.8185435, -0.0305988, -0.034314603, -0.01860209, 0.10150337
623, 704506077, 0.5582292, 0.13210201, -0.8185316, -0.030584639, -0.039161257, -0.0102171125, 0.10087395
624, 704522744, 0.55824286, 0.13209608, -0.81852335, -0.03058057, -0.017766152, -0.0063759307, 0.12799168
625, 704539411, 0.5582469, 0.13206711, -0.8185246, -0.0305969, -0.019065209, -0.015796388, 0.12039852
626, 704556078, 0.5582432, 0.1320298, -0.81853265, -0.030613711, -0.017991452, -0.017155625, 0.09585953
627, 704572745, 0.558237, 0.13199669, -0.81854177, -0.030625315, -0.03026589, -0.005621686, 0.09355831
628, 704589412, 0.5582354, 0.13198394, -0.81854457, -0.030635048, -0.020037042, -0.027343122, 0.10978413
629, 704606079, 0.5582228, 0.1319611, -0.81855637, -0.030648142, -0.012806845, -0.028428892, 0.122496605
630, 704622746, 0.5582174, 0.13197795, -0.8185577, -0.030635746, -0.014792974, -0.026925985, 0.1264534
631, 704639413, 0.5582057, 0.13197453, -0.8185663, -0.030632205, -0.013590035, 0.003345039, 0.10051918
632, 704656080, 0.5582016, 0.13192259, -0.81857604, -0.030675512, -0.017591363, -0.0044976394, 0.1140852
633, 704672747, 0.55819345, 0.13187662, -0.81858677, -0.030731352, -0.01191637, -0.01836673, 0.1210556
634, 704689414, 0.5581944, 0.13186063, -0.8185879, -0.03075122, -0.007249866, -0.016737545, 0.109796524
635, 704706081, 0.5581855, 0.13175581, -0.8186086, -0.030811012, -0.014165804, -0.0013548238, 0.10711098
636, 704722748, 0.5581853, 0.13177685, -0.81860626, -0.03078678, -0.01710187, -0.009685822, 0.11427784
637, 704739415, 0.55819273, 0.13183476, -0.8185944, -0.030720634, -0.022328498, 3.4678035E-4, 0.11452198
638, 704756082, 0.5581919, 0.13182054, -0.8185974, -0.030718306, -0.018857341, -0.013058633, 0.11276913
639, 704772749, 0.55820554, 0.13182619, -0.8185878, -0.030702902, -0.014155523, -0.011146479, 0.1082983
640, 704789416, 0.5582148, 0.13189267, -0.81857264, -0.030652726, 0.0024809937, -0.012180115, 0.11020088
641, 704806083, 0.55820763, 0.13191186, -0.81857485, -0.030643007, -0.0014640099, -0.010874017, 0.114756584
642, 704822750, 0.5582089, 0.13192256, -0.8185715, -0.03066315, -0.012308858, -0.021403378, 0.11688423
643, 704839417, 0.55820674, 0.1319825, -0.81856453, -0.0306308, -0.011957049, -0.013375183, 0.1104126
644, 704856084, 0.558198, 0.13197069, -0.8185714, -0.030658327, -0.0062838434, -0.03577699, 0.11213589
645, 704872751, 0.5581971, 0.13200869, -0.8185658, -0.030658903, -0.008539983, -0.026670124, 0.10525131
646, 704889418, 0.5581808, 0.13196242, -0.8185822, -0.030716356, 8.216336E-4, -0.01655812, 0.12176895
647, 704906085, 0.55819213, 0.13204068, -0.81856334, -0.030677993, -0.008846279, -0.0072873505, 0.1194458
648, 704922752, 0.5582136, 0.13212493, -0.818537, -0.030626496, -0.005107718, -0.018632207, 0.10280609
649, 704939419, 0.558229, 0.13217553, -0.818519, -0.030606529, -0.010622676, 0.0012605013, 0.10903072
650, 704956086, 0.5582416, 0.1322065, -0.8185061, -0.030588191, -0.00762358, 0.021962943, 0.11305046
651, 704972753, 0.55824775, 0.1322309, -0.8184979, -0.030593086, -0.013027676, 0.018500615, 0.10600853
652, 704989420, 0.5582567, 0.13234085, -0.8184763, -0.030529112, -0.025386155, -0.017144226, 0.09309578
653, 705006087, 0.558264, 0.13237363, -0.8184676, -0.030485742, -0.029358426, -0.009651904, 0.10826206
654, 705022754, 0.5582655, 0.13240314, -0.8184636, -0.030436432, -0.055982843, 0.0017711725, 0.104338646
655, 705039421, 0.5582553, 0.13242407, -0.8184683, -0.030410565, -0.043823738, -0.0073659252, 0.114331245
656, 705056088, 0.5582437, 0.1324344, -0.818475, -0.030396033, -0.036209546, -0.016042028, 0.10438824
657, 705072755, 0.5582251, 0.13246089, -0.81848437, -0.030368127, -0.00182923, -0.01887064, 0.057600975
658, 705089422, 0.558196, 0.13248256, -0.8185018, -0.030343082, -0.00972192, -0.02083722, 0.11055946
659, 705106089, 0.5581511, 0.13250288, -0.81852806, -0.030369451, -0.021474678, -0.007904033, 0.14947319
660, 705122756, 0.55809283, 0.13251528, -0.81856316, -0.030440426, -0.018199319, -0.046394024, 0.10163975
661, 705139423, 0.5580741, 0.13260365, -0.81856287, -0.030404057, -3.3705754E-4, -0.098740816, 0.1208601
662, 705156090, 0.5580714, 0.13273688, -0.8185476, -0.03028713, 0.007074185, -0.027396765, 0.12905884
663, 705172757, 0.5580707, 0.13285778, -0.81853133, -0.030208651, 0.016031243, 0.009123519, 0.11381531
664, 705189424, 0.5580605, 0.13297091, -0.8185223, -0.030144814, 0.052855898, 3.8259831E-4, 0.08796024
665, 705206091, 0.5580647, 0.1330267, -0.8185104, -0.030143276, 0.028970357, 0.009179948, 0.11571312
666, 705222758, 0.5580902, 0.13309686, -0.81848234, -0.030121174, 0.014520296, 0.0060273623, 0.13077545
667, 705239425, 0.55812067, 0.13322753, -0.818443, -0.030048164, 0.0033920326, 0.005652028, 0.12729359
668, 705256092, 0.55814934, 0.13336422, -0.81840545, -0.029932037, -0.003431818, -0.015527892, 0.07441139
669, 705272759, 0.55817133, 0.13344894, -0.81837887, -0.029871615, -0.034879643, -0.005591903, 0.11080265
670, 705289426, 0.55818963, 0.13359639, -0.8183446, -0.029808648, -0.0460839, -0.03418575, 0.13871384
671, 705306093, 0.5582224, 0.13378976, -0.8182965, -0.029645545, -0.049761135, -0.07181924, 0.07808304
672, 705322760, 0.5582322, 0.13398929, -0.81826556, -0.02941681, -0.06185989, -0.033907473, 0.071805
673, 705339427, 0.5582189, 0.13417318, -0.8182512, -0.029228663, -0.08962199, 0.021848168, 0.12660885
674, 705356094, 0.55816567, 0.13425206, -0.81827766, -0.02914449, -0.07596937, 0.005272112, 0.114471436
675, 705372761, 0.55809844, 0.13429746, -0.8183173, -0.029106785, -0.06098372, 0.008488631, 0.07720947
676, 705389428, 0.5580092, 0.13428612, -0.8183798, -0.029114397, -0.063167445, 0.004138622, 0.09378338
677, 705406095, 0.5578972, 0.13427381, -0.8184578, -0.029124072, -0.044327088, -0.0062232153, 0.11623764
678, 705422762, 0.55778164, 0.13414657, -0.8185537, -0.029230373, -0.0060938573, -0.021697463, 0.13277912
679, 705439429, 0.5576853, 0.13409497, -0.81862575, -0.029288076, 0.026498355, -0.080882244, 0.1551466
680, 705456096, 0.5576294, 0.13421465, -0.8186471, -0.02920772, 0.06299802, -0.084188834, 0.09819317
681, 705472763, 0.55759215, 0.13439155, -0.8186479, -0.029078664, 0.056175064, -0.07182444, 0.11696243
682, 705489430, 0.55756927, 0.13456903, -0.8186375, -0.028990868, 0.00606427, -0.05246756, 0.15403652
683, 705506097, 0.55756634, 0.13484895, -0.8185999, -0.028804712, 0.0052234977, -0.03374498, 0.11872673
684, 705522764, 0.55757266, 0.13501638, -0.818573, -0.02866794, 0.022704447, 0.027822781, 0.10972595
685, 705539431, 0.55756664, 0.13507791, -0.8185673, -0.028655764, 0.013657535, 0.053143054, 0.0937233
686, 705556098, 0.5575717, 0.1351772, -0.81854874, -0.028616898, 0.0072252797, 0.008764613, 0.1206007
687, 705572765, 0.5575774, 0.13533503, -0.8185214, -0.02854407, -0.027096923, -0.01738467, 0.1249342
688, 705589432, 0.5575797, 0.13554482, -0.8184896, -0.028415527, -0.028052663, -0.04563866, 0.11580467
689, 705606099, 0.55757797, 0.13571957, -0.81846654, -0.028281039, -0.018427748, -0.030065957, 0.09577656
690, 705622766, 0.557569, 0.13579981, -0.8184616, -0.028211908, -0.01199147, -0.016051862, 0.110920906
691, 705639433, 0.55757016, 0.13594034, -0.8184406, -0.028118884, -0.017776432, -0.024223551, 0.11873531
692, 705656100, 0.55757177, 0.13607933, -0.81842077, -0.02799827, 0.01316089, -0.03569586, 0.0830183
693, 705672767, 0.5575756, 0.13621983, -0.8183996, -0.027854353, 0.005019654, 0.002606217, 0.1103735
694, 705689434, 0.55757684, 0.13633555, -0.81838274, -0.027756842, -0.02119171, 0.004671812, 0.12603378
695, 705706101, 0.5575737, 0.13646853, -0.8183655, -0.027672563, -0.05605571, -2.0836995E-4, 0.123547554
696, 705722768, 0.55757254, 0.1367041, -0.8183324, -0.027514815, -0.047357924, -0.13817504, 0.09203243
697, 705739435, 0.55757207, 0.13708627, -0.81827885, -0.027212102, -0.013254318, -0.18170531, 0.070949554
698, 705756102, 0.5575545, 0.13754852, -0.8182237, -0.026895579, -0.02376032, -0.15262443, 0.122317314
699, 705772769, 0.55751103, 0.13797727, -0.818187, -0.026714213, -0.030383937, -0.107333444, 0.14237595
700, 705789436, 0.5574543, 0.13836975, -0.8181622, -0.026636789, -0.027314624, -0.06825549, 0.12745094
701, 705806103, 0.5574305, 0.13881561, -0.8181073, -0.026497008, 0.025966395, -0.099129334, 0.07937527
702, 705822770, 0.557375, 0.13924074, -0.8180785, -0.026326897, 0.008915038, 0.02146719, 0.0892849
703, 705839437, 0.55731386, 0.13961509, -0.8180592, -0.026236914, -0.025954325, 0.06397433, 0.1716156
704, 705856104, 0.5572342, 0.13995497, -0.8180564, -0.02619894, -0.05526045, 0.08925722, 0.17220688
705, 705872771, 0.55716187, 0.14030026, -0.81805, -0.026087955, -0.045779478, 0.10282512, 0.056937218
706, 705889438, 0.55709136, 0.14062202, -0.81804895, -0.025897535, -0.03425157, 0.11889107, 0.03388691
707, 705906105, 0.55701244, 0.14092502, -0.818058, -0.025658958, -0.032832712, 0.118063845, 0.08029461
708, 705922772, 0.55692637, 0.14114891, -0.8180844, -0.025453838, -0.025906939, 0.10836271, 0.13768768
709, 705939439, 0.55685383, 0.1412952, -0.8181129, -0.025316164, 0.0039825537, 0.07286427, 0.1590643
710, 705956106, 0.55679095, 0.14140962, -0.81814, -0.025184473, 0.027513104, 0.041186564, 0.1289711
711, 705972773, 0.5567287, 0.14149229, -0.8181707, -0.025092699, 0.06867659, 0.032880265, 0.10828972
712, 705989440, 0.55669665, 0.14157107, -0.8181806, -0.025040528, 0.0329248, 0.003925614, 0.11267185
713, 706006107, 0.5566959, 0.14167114, -0.8181681, -0.024904668, 0.043778587, -1.1505329E-4, 0.102565765
714, 706022774, 0.55670345, 0.14176537, -0.8181513, -0.02474468, 0.063323006, 0.012020582, 0.09302139
715, 706039441, 0.5567032, 0.14188911, -0.81813556, -0.024561984, 0.05035702, -0.032844838, 0.11435604
716, 706056108, 0.55672616, 0.14206909, -0.8180939, -0.02438999, 0.037289113, -0.039860405, 0.1327467
717, 706072775, 0.55676454, 0.14229687, -0.8180332, -0.02422178, 0.025513299, -0.077210024, 0.13299084
718, 706089442, 0.55679137, 0.1425315, -0.81797856, -0.024073284, 0.006545353, -0.033393618, 0.102807045
719, 706106109, 0.5568206, 0.14267784, -0.8179347, -0.024014866, -0.02442192, -0.030446433, 0.11241627
720, 706122776, 0.556859, 0.14280583, -0.8178871, -0.023983568, -0.037770562, -0.050614398, 0.1221962
721, 706139443, 0.55687135, 0.14291763, -0.81785995, -0.023963554, -0.049158994, -0.04246735, 0.09601402
722, 706156110, 0.556867, 0.14302105, -0.8178443, -0.023981702, -0.054967646, -0.06666944, 0.11932945
723, 706172777, 0.5568629, 0.143168, -0.8178201, -0.024027457, -0.04745359, -0.14817362, 0.108795166
724, 706189444, 0.55681926, 0.14331613, -0.81781894, -0.024192385, -0.0045440183, -0.22839196, 0.041918755
725, 706206111, 0.5568078, 0.14363292, -0.81777084, -0.024204092, -0.108574994, -0.50252855, 0.24692535
726, 706222778, 0.5567303, 0.14427342, -0.81771225, -0.024154872, -0.07485851, -0.22687839, 0.14283466
727, 706239445, 0.55662537, 0.1447575, -0.81769055, -0.024413712, -0.02711078, -0.12239603, 0.01844883
728, 706256112, 0.5564916, 0.14523302, -0.81768554, -0.024798973, -0.0653163, -0.22529703, 0.04377079
729, 706272779, 0.5563496, 0.1459885, -0.8176434, -0.024943812, -0.035024926, -0.25296956, 0.10040569
730, 706289446, 0.5562363, 0.14681484, -0.8175776, -0.02476993, -0.0355551, 0.14164373, 0.16843033
731, 706306113, 0.5561033, 0.14729722, -0.81757873, -0.024855211, -0.025238635, 0.45628846, 0.09895897
732, 706322780, 0.5559818, 0.14749151, -0.8176162, -0.025189195, -0.015505988, 0.4288191, 0.09436226
733, 706339447, 0.555861, 0.14758871, -0.8176719, -0.025477985, 0.030625746, 0.4016172, 0.054483414
734, 706356114, 0.5557572, 0.1475686, -0.81773955, -0.025679553, 0.023706758, 0.43085772, 0.11465168
735, 706372781, 0.5556674, 0.147378, -0.817828, -0.025906382, -0.02340717, 0.3729035, 0.1709137
736, 706389448, 0.5556135, 0.14709696, -0.8179083, -0.026119985, 0.014910996, 0.20344809, 0.11707115
737, 706406115, 0.5555871, 0.1468282, -0.8179702, -0.026255626, 0.021481384, 0.095289275, 0.065852165
738, 706422782, 0.5555705, 0.14658652, -0.8180227, -0.026327511, 0.032111213, 0.010594514, 0.060845375
739, 706439449, 0.5555442, 0.14634658, -0.8180807, -0.026409745, 0.0033142501, 0.046480246, 0.11099529
740, 706456116, 0.5555285, 0.14600693, -0.8181495, -0.026487693, -0.009307079, 0.061358385, 0.11669731
741, 706472783, 0.5555311, 0.14559275, -0.8182185, -0.026581533, -4.4836698E-4, 0.08870654, 0.10418987
742, 706489450, 0.5555303, 0.14510694, -0.8183004, -0.026729165, 0.041357942, 0.053047784, 0.10334492
743, 706506117, 0.5555224, 0.14463644, -0.818383, -0.026917312, 0.034814823, -0.016522245, 0.16271305
744, 706522784, 0.5555255, 0.14427814, -0.81843746, -0.02712141, 0.039889462, -0.092354104, 0.12719345
745, 706539451, 0.5555568, 0.14403881, -0.8184539, -0.027257355, 0.05813974, -0.15510291, 0.09493828
746, 706556118, 0.5555962, 0.14387172, -0.818453, -0.027359657, 0.03179338, -0.18329935, 0.107061386
747, 706572785, 0.5556334, 0.14375113, -0.8184468, -0.027424123, 0.0016325386, -0.19907103, 0.115457535
748, 706589452, 0.5556717, 0.1436626, -0.8184336, -0.027506243, -0.02427619, -0.16618478, 0.13969707
749, 706606119, 0.55570394, 0.14357977, -0.8184211, -0.027656754, -0.035689656, -0.15008113, 0.1551485
750, 706622786, 0.55572784, 0.14351489, -0.81840914, -0.027867302, -0.036723625, -0.13550226, 0.10029888
751, 706639453, 0.5557451, 0.14349635, -0.81839293, -0.02809417, -0.030872567, -0.11385907, 0.108867645
752, 706656120, 0.555766, 0.14351523, -0.8183685, -0.028297456, -0.046754885, -0.08654064, 0.101117134
753, 706672787, 0.55579036, 0.1436345, -0.81832826, -0.028375624, -0.02892794, -0.06352981, 0.08650398
754, 706689454, 0.55581343, 0.14383614, -0.8182775, -0.02836639, -0.0336539, -0.0031680726, 0.08347416
755, 706706121, 0.5558276, 0.14401224, -0.81823635, -0.028381119, -0.035671327, 0.022720706, 0.092782974
756, 706722788, 0.55582714, 0.14420135, -0.818202, -0.02842181, -0.03970618, 0.0057069003, 0.12557125
757, 706739455, 0.555829, 0.14439039, -0.818168, -0.028406061, -0.013889095, 0.03459461, 0.119132996
758, 706756122, 0.55583936, 0.14454594, -0.81813383, -0.02839568, -0.015999505, 0.05852653, 0.108086586
759, 706772789, 0.55585486, 0.14470814, -0.8180966, -0.028337767, 0.016438484, 0.052583266, 0.09112644
760, 706789456, 0.5558771, 0.14486772, -0.8180564, -0.028247498, 0.015844386, 0.028224824, 0.12496948
761, 706806123, 0.55593157, 0.14517869, -0.81797194, -0.028019642, 0.014064777, -0.018321916, 0.11760521
762, 706822790, 0.55603313, 0.14561367, -0.81783986, -0.027604073, 0.03692434, -0.019636285, 0.058487892
763, 706839457, 0.5561086, 0.14605469, -0.8177251, -0.027150704, 0.07322687, 0.047805622, 0.07932949
764, 706856124, 0.55617946, 0.146465, -0.8176175, -0.026726257, 0.014640098, 0.11594969, 0.11373043
765, 706872791, 0.55627406, 0.1468347, -0.8174972, -0.026406035, 0.04025066, 0.05161389, 0.19007015
766, 706889458, 0.5563823, 0.1472842, -0.81735605, -0.025988946, -4.640129E-4, 1.0600102E-4, 0.09982872
767, 706906125, 0.5565115, 0.14781384, -0.81718946, -0.02545248, 0.047104016, 0.038101975, 0.05204487
768, 706922792, 0.5566476, 0.1482673, -0.81703097, -0.02491429, 0.058558606, 0.1392398, 0.1202898
769, 706939459, 0.5567979, 0.148645, -0.8168761, -0.024379544, 0.019461546, 0.12264131, 0.16604137
770, 706956126, 0.55696845, 0.148962, -0.816718, -0.023844695, 0.051283706, 0.097778425, 0.11319733
771, 706972793, 0.55715615, 0.14917777, -0.816565, -0.023342038, 0.03943797, 0.082564905, 0.12575912
772, 706989460, 0.5573586, 0.14945112, -0.81639117, -0.022834703, 0.038784415, -0.0043720813, 0.20053482
773, 707006127, 0.55758387, 0.14977297, -0.81619036, -0.022396576, 0.09060008, -0.04829601, 0.20973492
774, 707022794, 0.5578053, 0.15001146, -0.81600505, -0.02203865, 0.12356288, -0.116230704, 0.16763878
775, 707039461, 0.5580026, 0.15018791, -0.81584424, -0.021793634, 0.10785752, -0.17529406, 0.06747627
776, 707056128, 0.558211, 0.15036279, -0.81567407, -0.021617126, 0.006209637, -0.056518603, 0.031244278
777, 707072795, 0.55848205, 0.15042332, -0.8154768, -0.02163622, -0.07959431, -0.06321678, 0.10112953
778, 707089462, 0.5587424, 0.15048103, -0.8152855, -0.02172535, -0.10253299, -0.09806374, 0.11530113
779, 707106129, 0.55897486, 0.15076958, -0.8150738, -0.021690877, -0.11341986, -0.21888395, 0.06682491
780, 707122796, 0.5591509, 0.15136126, -0.81485015, -0.021434762, -0.10396392, -0.23417671, 0.031764984
781, 707139463, 0.55929285, 0.1521312, -0.81461984, -0.021026706, -0.14276712, -0.15016444, 0.08030701
782, 707156130, 0.5593816, 0.15279283, -0.8144435, -0.02070081, -0.17378043, 0.088356294, 0.038388252
783, 707172797, 0.5594016, 0.15312198, -0.8143706, -0.020597769, -0.22902612, 0.15133458, 0.03025341
784, 707189464, 0.5593731, 0.15319611, -0.8143743, -0.020670945, -0.25058126, 0.092071414, 0.07464981
785, 707206131, 0.5593185, 0.1532736, -0.8143938, -0.020803954, -0.19934182, -0.08102629, 0.073064804
786, 707222798, 0.5592218, 0.15366061, -0.8143882, -0.02077103, -0.12855001, -0.16046247, 0.056655884
787, 707239465, 0.5590749, 0.15422066, -0.8143884, -0.020567952, -0.06202261, -0.110446244, 0.0017709732
788, 707256132, 0.55889285, 0.1547664, -0.8144149, -0.020361517, -0.09730368, -0.054814707, 0.062498093
789, 707272799, 0.5587105, 0.15527979, -0.81444865, -0.020109557, -0.031001695, -0.15310436, 0.13500404
790, 707289466, 0.5585108, 0.15570101, -0.8145108, -0.019879732, -0.034923453, -0.036248326, 0.11891842
791, 707306133, 0.5582832, 0.15601952, -0.8146068, -0.019846603, -0.029944925, -2.8659948E-4, 0.050762177
792, 707322800, 0.5580538, 0.15641753, -0.8146894, -0.019763403, -0.08239179, -0.04383279, 0.040410995
793, 707339467, 0.55782527, 0.1571543, -0.8147148, -0.019326856, -0.12580426, -0.15773176, 0.21212101
794, 707356134, 0.5575863, 0.15826207, -0.81468385, -0.018466737, -0.038037434, -0.21268867, 0.21862316
795, 707372801, 0.55732995, 0.15951727, -0.81463826, -0.017386977, 0.07170296, -0.0808381, 0.074131966
796, 707389468, 0.55707407, 0.16059276, -0.81462437, -0.016301831, 0.1359084, 0.12079015, -0.057336807
797, 707406135, 0.5568519, 0.16126573, -0.81465983, -0.015449803, 0.104497224, 0.12155506, 0.15923405
798, 707422802, 0.55663663, 0.16180523, -0.8147113, -0.014838366, 0.24584056, -0.05297039, 0.2561779
799, 707439469, 0.5565227, 0.16297114, -0.81457335, -0.013906527, 0.33588007, -0.41357338, -0.033576965
800, 707456136, 0.5564727, 0.16483384, -0.8142603, -0.012169953, 0.21521527, -0.5734872, 0.04067707
801, 707472803, 0.55619705, 0.1669568, -0.8140345, -0.010872959, -0.19685099, -0.097136945, 0.18206596
802, 707489470, 0.55572337, 0.1690219, -0.81394684, -0.009684702, -0.331961, 0.21598259, -0.086416245
803, 707506137, 0.555202, 0.17039432, -0.81402624, -0.008824678, -0.41167563, 0.8431591, -0.12694645
804, 707522804, 0.5545139, 0.17127553, -0.8143211, -0.007751613, -0.34689212, 0.24743308, -0.022504807
805, 707539471, 0.5535843, 0.17235653, -0.81474054, -0.005970077, -0.4085942, 0.23248756, -0.21697044
806, 707556138, 0.5524034, 0.17368455, -0.8152755, -0.0031822834, -1.0404408, 0.7292086, -0.43952847
807, 707572805, 0.55079633, 0.1745535, -0.816183, 1.8223692E-4, -1.9096949, 2.019342, -0.70327854
808, 707589472, 0.5487594, 0.17370038, -0.81773114, 0.002729462, -2.6801722, 3.1035254, -1.2582188
809, 707606139, 0.5465652, 0.17090929, -0.8197823, 0.0037260903, -2.8566651, 2.5056038, -1.124526
810, 707622806, 0.5440659, 0.16747785, -0.8221436, 0.004869044, -2.411328, 1.0111918, -0.39761066
811, 707639473, 0.5408972, 0.1635157, -0.82501775, 0.006233192, -1.7035785, -0.091756985, -0.7910118
812, 707656140, 0.5376775, 0.15932016, -0.82793117, 0.007085219, -1.0396339, -0.80268824, -0.39222717
813, 707672807, 0.5344021, 0.15491821, -0.8308786, 0.007465479, -0.5780702, -1.3162307, 0.13626385
814, 707689474, 0.5308116, 0.15066983, -0.83395684, 0.007334479, 0.0010648157, -2.1662536, 0.29684067
815, 707706141, 0.5268854, 0.14818229, -0.8368852, 0.007554231, 0.23024964, -2.863497, 0.21879578
816, 707722808, 0.52303314, 0.14842823, -0.83923846, 0.009183058, 0.34113574, -3.2387059, 0.28401756
817, 707739475, 0.51909024, 0.15103276, -0.8411723, 0.012793524, 0.28187755, -1.8570062, 0.032209396
818, 707756142, 0.5150644, 0.15361263, -0.8431104, 0.01663421, 0.5445992, 0.37494215, 0.28490067
819, 707772809, 0.5109881, 0.15449657, -0.8453943, 0.01817707, 0.61128914, 1.6841679, 0.56901073
820, 707789476, 0.50690055, 0.15389608, -0.8479625, 0.01809151, 1.1770644, 1.3299499, 0.26608276
821, 707806143, 0.50300485, 0.15292476, -0.85045606, 0.01802712, 1.4339243, 0.8069141, 0.6153593
822, 707822810, 0.4993215, 0.15212886, -0.85276777, 0.01794628, 1.3738031, 0.5193552, 0.6813755
823, 707839477, 0.49589416, 0.1514875, -0.85487974, 0.017929433, 1.3305657, 0.293453, 0.582695
824, 707856144, 0.4927926, 0.15075985, -0.8568026, 0.017786158, 1.3238275, 0.21973608, 0.6809311
825, 707872811, 0.49002302, 0.14970694, -0.858584, 0.017293733, 1.3269178, 0.2298491, 0.7687912
826, 707889478, 0.48761004, 0.14825357, -0.86023754, 0.015775425, 1.2958269, 0.029738845, 0.8878155
827, 707906145, 0.4855988, 0.14678872, -0.861663, 0.013562866, 1.2103142, -0.4343349, 1.1069202
828, 707922812, 0.48400897, 0.14586931, -0.86274296, 0.01149613, 1.2283696, -0.8147364, 1.0945845
829, 707939479, 0.48294255, 0.1454821, -0.8634262, 0.009831261, 1.2451987, -0.6109095, 0.977211
830, 707956146, 0.48235884, 0.14529972, -0.8638019, 0.008014455, 1.2224942, -0.4375454, 0.95047855
831, 707972813, 0.48225397, 0.14527878, -0.8638803, 0.0060121496, 1.1295581, -0.48865426, 0.87206936
832, 707989480, 0.48260292, 0.14564547, -0.8636347, 0.0041108294, 1.0747138, -0.50687116, 0.8886614
833, 708006147, 0.4834382, 0.14647627, -0.86303353, 0.0023366418, 1.0535061, -0.43355745, 0.8232212
834, 708022814, 0.48464477, 0.14772256, -0.86214674, 7.1247923E-4, 1.0102727, -0.39908612, 0.7692404
835, 708039481, 0.48619238, 0.14930406, -0.8610023, -6.9307233E-4, 0.9050368, -0.22117291, 0.5225401
836, 708056148, 0.48812726, 0.15085053, -0.8596345, -0.00215093, 0.8133715, -0.036796603, 0.49092007
837, 708072815, 0.4903032, 0.15214154, -0.85816187, -0.003772122, 0.63207585, 0.08167007, 0.5305643
838, 708089482, 0.49253947, 0.15327798, -0.8566657, -0.005910708, 0.52061343, -0.001034983, 0.38720894
839, 708106149, 0.4949018, 0.15454097, -0.85505617, -0.008254848, 0.3529462, -0.26597342, 0.3699112
840, 708122816, 0.49752307, 0.156136, -0.8532223, -0.010195878, 0.3416087, -0.5340233, 0.29171848
841, 708139483, 0.5003863, 0.15804146, -0.8511751, -0.011728769, 0.73386365, -0.46708935, 0.069726944
842, 708156150, 0.5034465, 0.15991957, -0.84899193, -0.013423572, 0.6496073, -0.14339714, 0.08281231
843, 708172817, 0.50657195, 0.16188665, -0.8467195, -0.015614576, 0.6577155, -0.1319311, 0.10120869
844, 708189484, 0.50986737, 0.16389887, -0.84431463, -0.017476046, 0.63648355, 0.24842018, 0.044774055
845, 708206151, 0.5133379, 0.16562216, -0.84182614, -0.0195541, 0.61271095, 0.546502, 0.08341789
846, 708222818, 0.51697093, 0.1669829, -0.83927274, -0.021889133, 0.6799224, 0.51043373, 0.28164482
847, 708239485, 0.52068925, 0.16814269, -0.8366735, -0.024255566, 0.5106229, 0.32318717, 0.30876827
848, 708256152, 0.5244449, 0.16923541, -0.8340296, -0.026679536, 0.3272337, 0.1185886, 0.30657578
849, 708272819, 0.5282557, 0.1702266, -0.83133984, -0.02903671, 0.50843567, -0.034060523, -0.0443964
850, 708289486, 0.53213006, 0.1707102, -0.82866275, -0.03183877, 0.734977, -0.021252785, -0.23036861
851, 708306153, 0.53606737, 0.17082094, -0.82595634, -0.035329018, 0.30164862, -0.105885796, -0.3777151
852, 708322820, 0.5399297, 0.17148015, -0.8231562, -0.038527675, -0.4435029, -0.65938777, -0.12040901
853, 708339487, 0.5437156, 0.17323507, -0.82019824, -0.04047234, -0.8843594, -0.5957026, -0.2820406
854, 708356154, 0.5473545, 0.17555703, -0.81722355, -0.041576363, -0.7651014, -0.083922185, -0.4074707
855, 708372821, 0.5508042, 0.17758581, -0.8144003, -0.04278383, -0.5425889, 0.29753485, -0.7872696
856, 708389488, 0.5540175, 0.17943878, -0.81174135, -0.044070963, -1.0172296, 0.3945799, -0.45099735
857, 708406155, 0.55688584, 0.18162847, -0.809266, -0.044473246, -1.5847341, 0.69869816, -0.52283096
858, 708422822, 0.5592524, 0.18366797, -0.8071857, -0.044207748, -2.132123, 1.387979, -0.63343906
859, 708439489, 0.561068, 0.18498594, -0.80562466, -0.044180118, -2.1272333, 1.350308, -0.43471336
860, 708456156, 0.562339, 0.18554239, -0.80459404, -0.044465035, -1.6306225, 0.70214206, -0.40144348
861, 708472823, 0.56321627, 0.18544485, -0.8039707, -0.045041516, -1.2787123, 0.25380644, -0.28887272
862, 708489490, 0.56367147, 0.18490627, -0.80372584, -0.045922175, -1.5801361, -0.076810114, -0.22739506
863, 708506157, 0.56380236, 0.18474104, -0.8036403, -0.046477344, -1.5486708, -0.47045243, -0.2332344
864, 708522824, 0.56364566, 0.18529576, -0.803646, -0.046069402, -1.0981791, -0.12215877, -0.22948647
865, 708539491, 0.5632109, 0.18572897, -0.80387485, -0.045644145, -0.7591296, 0.26216382, -0.22194672
866, 708556158, 0.5625399, 0.18583155, -0.80433744, -0.045353584, -1.021388, 0.33556023, -0.04993534
867, 708572825, 0.5617251, 0.18581223, -0.8049297, -0.045026645, -0.8808011, -0.11589772, 0.179142
868, 708589492, 0.5608938, 0.18609041, -0.8054883, -0.044240788, -0.058387395, -0.30067867, 0.22284889
869, 708606159, 0.56017065, 0.18627638, -0.80598444, -0.043579016, 0.9542832, 0.23836674, 0.21770573
870, 708622826, 0.5596142, 0.18577766, -0.80647326, -0.043813266, 1.2013763, 0.49657393, 0.2677803
871, 708639493, 0.55920273, 0.18508026, -0.80689013, -0.044341102, 0.6221854, 0.33140776, 0.2064352
872, 708656160, 0.5588898, 0.18467791, -0.8071863, -0.0445721, -0.23493446, -0.2414126, 0.09112072
873, 708672827, 0.55868673, 0.18512477, -0.8072611, -0.043903958, -0.37380046, -0.5894696, 0.16072369
874, 708689494, 0.5585228, 0.18574442, -0.8072843, -0.04293716, 0.14865355, 0.043802727, 0.057967186
875, 708706161, 0.55837864, 0.18553391, -0.8074315, -0.042950936, 0.59669286, 0.28970426, 0.059324265
876, 708722828, 0.5583145, 0.18506154, -0.8075626, -0.043358076, 0.60929495, 0.09147715, 0.15011692
877, 708739495, 0.5583213, 0.18484381, -0.8076019, -0.043467548, 0.2812884, 0.25411066, 0.12978458
878, 708756162, 0.5583335, 0.184719, -0.8076236, -0.04343793, -0.22840655, 0.140822, 0.065258026
879, 708772829, 0.55834734, 0.18489224, -0.8075933, -0.043085154, -0.3568049, -0.30249998, 0.10200977
880, 708789496, 0.5583733, 0.18527113, -0.80752534, -0.04239109, -0.08023266, -0.12484009, 0.018143654
881, 708806163, 0.55838984, 0.18505472, -0.80756414, -0.042379953, 0.2611208, 0.16609538, 0.12240505
882, 708822830, 0.55846226, 0.18460561, -0.8075936, -0.042818796, 0.52879053, -0.025874196, 0.14443779
883, 708839497, 0.55858916, 0.18435507, -0.80754226, -0.043208178, 0.4077748, 0.006604361, 0.18680859
884, 708856164, 0.5588484, 0.1844214, -0.8073403, -0.04334771, 0.22067523, -0.14339547, 0.21818542
885, 708872831, 0.55924463, 0.18493558, -0.8069693, -0.042957596, 0.19837132, -0.28954965, 0.2602949
886, 708889498, 0.5597703, 0.18564625, -0.8064758, -0.04230194, 0.30830705, -0.07289512, 0.25140572
887, 708906165, 0.5603603, 0.18603644, -0.80599105, -0.042013947, 0.4195155, 0.18073504, 0.12094784
888, 708922832, 0.56102914, 0.186196, -0.80548614, -0.042064145, 0.39258978, 0.072231114, 0.13584709
889, 708939499, 0.5617695, 0.18645105, -0.804911, -0.0420652, 0.25895095, 0.05286439, 0.12410736
890, 708956166, 0.56252265, 0.1868355, -0.8043029, -0.041925784, -0.015942793, 0.06730021, 0.074718475
891, 708972833, 0.56326747, 0.18715775, -0.8037153, -0.041758716, -0.254959, 0.1732098, 0.038194656
892, 708989500, 0.5639605, 0.18727936, -0.8032043, -0.041688647, -0.2939848, -0.029054785, 0.050477028
893, 709006167, 0.56460196, 0.18742102, -0.8027244, -0.041613575, -0.18621714, -0.14904693, 0.01865387
894, 709022834, 0.5651921, 0.18764676, -0.8022618, -0.0415057, -0.20977362, -0.11595237, 0.014364243
895, 709039501, 0.5657491, 0.18784268, -0.80182254, -0.041521832, -0.20612276, -0.008646599, 0.0911684
896, 709056168, 0.5663819, 0.18804637, -0.80132574, -0.041562725, 0.2122707, -0.13025574, 0.32989407
897, 709072835, 0.5671166, 0.18825965, -0.8007596, -0.041487433, 0.5618982, 0.06222299, 0.21510029
898, 709089502, 0.5679483, 0.18818548, -0.8001768, -0.041691605, 0.42013687, 0.3641804, 0.11056042
899, 709106169, 0.56879854, 0.18773739, -0.79965657, -0.04210015, -0.08275969, 0.40882108, 0.094530106
900, 709122836, 0.56961936, 0.18714747, -0.7991838, -0.042603225, -0.22635426, 0.07813097, 0.057305336
901, 709139503, 0.57040995, 0.18696825, -0.7986572, -0.04268777, -0.16005406, -0.35923305, 0.05103588
902, 709156170, 0.57112694, 0.1872267, -0.79810905, -0.04221659, -0.43921816, -0.06987272, 0.04658413
903, 709172837, 0.57168806, 0.18701577, -0.7977626, -0.04210593, -0.85113823, 0.17792961, -0.09063816
904, 709189504, 0.5721689, 0.1867011, -0.79749763, -0.04199228, -0.731304, -0.3032111, 0.09404373
905, 709206171, 0.57262325, 0.1867811, -0.79719865, -0.041109305, -0.11686062, 0.09637689, 0.077240944
906, 709222838, 0.5730106, 0.18623084, -0.79706645, -0.040770207, 0.22876865, 1.0534033, -0.20805359
907, 709239505, 0.57321686, 0.18478847, -0.7972169, -0.04148694, -0.096584864, 0.7136651, -0.14614105
908, 709256172, 0.57313377, 0.18366385, -0.797533, -0.041551664, -1.0144677, 0.18606591, -0.18751526
909, 709272839, 0.5726826, 0.18283567, -0.7980785, -0.04094846, -1.3945, 0.27175754, -0.30717087
910, 709289506, 0.57179147, 0.18164061, -0.7990267, -0.04022212, -1.677996, 0.59561956, -0.3140993
911, 709306173, 0.5705083, 0.17985123, -0.8003629, -0.03991361, -1.479692, 0.62743217, -0.26099968
912, 709322840, 0.56911236, 0.17805965, -0.80177873, -0.03945526, -0.5892208, 0.16409953, -0.083800316
913, 709339507, 0.5674832, 0.17681555, -0.80327654, -0.03802666, -0.4767889, 0.48904133, -0.27539635
914, 709356174, 0.5653894, 0.17536356, -0.80513567, -0.03659473, -1.1748525, 1.00448, -0.49310398
915, 709372841, 0.5629029, 0.17340626, -0.8073465, -0.035528615, -1.7511328, 0.9361874, -0.36377144
916, 709389508, 0.5599922, 0.17118035, -0.8099084, -0.03397718, -2.1742198, 0.6683328, -0.24451542
917, 709406175, 0.55669636, 0.16881709, -0.8127423, -0.03224923, -1.6595472, 0.21469973, -0.24024391
918, 709422842, 0.55323845, 0.16663124, -0.81561804, -0.03047137, -0.5428638, -0.3393458, -0.736475
919, 709439509, 0.5496703, 0.16479325, -0.8184867, -0.028020918, -0.39204797, -0.18197559, -0.6880636
920, 709456176, 0.5456917, 0.16285747, -0.82161856, -0.025319168, -1.1375955, 0.53312737, -0.38311672
921, 709472843, 0.54120344, 0.16019394, -0.8251642, -0.023256961, -1.3096409, 0.7960079, -0.37608337
922, 709489510, 0.536203, 0.15672585, -0.82912093, -0.021956954, -1.129845, -0.059753172, -0.44144917
923, 709506177, 0.531135, 0.15375249, -0.8329698, -0.020425508, -0.11300815, -1.2041655, -0.75156784
924, 709522844, 0.5264149, 0.15187882, -0.83636355, -0.01778589, 0.22672305, -1.324464, -0.31501198
925, 709539511, 0.52172154, 0.15081902, -0.8395574, -0.014272515, 0.057306793, -0.44135615, 0.0061426163
926, 709556178, 0.51671374, 0.14966017, -0.8429025, -0.011148199, -0.24717627, 0.28396985, 0.00582695
927, 709572845, 0.5116147, 0.14804816, -0.84631807, -0.00884725, -0.12929241, -0.6522162, -0.37307453
928, 709589512, 0.5071428, 0.14705543, -0.84920263, -0.005994012, 0.6956184, -1.7296269, 0.30447197
929, 709606179, 0.5033274, 0.14709951, -0.85148156, -0.0016574112, 1.5382303, -1.6414796, 0.9308176
930, 709622846, 0.4996657, 0.14742759, -0.8535765, 0.0025516183, 1.7578948, -0.22127768, 0.6043873
931, 709639513, 0.49593663, 0.1473707, -0.85574675, 0.005134692, 1.2059664, 0.4955099, 0.2835741
932, 709656180, 0.49235317, 0.14734268, -0.857799, 0.0077270335, 0.6649832, 0.20708391, 0.21564102
933, 709672847, 0.48918214, 0.1475912, -0.8595288, 0.011315001, 0.5552871, -0.032516945, 0.46747112
934, 709689514, 0.48653933, 0.14770398, -0.8609552, 0.014816262, 1.0596472, -0.5718958, 0.9159441
935, 709706181, 0.484365, 0.14810428, -0.8620472, 0.018174125, 1.6319774, -0.89850515, 0.98003674
936, 709722848, 0.48245108, 0.14892234, -0.8629118, 0.021131476, 1.3016531, -0.29869765, 0.8099947
937, 709739515, 0.48057887, 0.14946654, -0.8638012, 0.023483725, 0.66305363, 0.7702697, 0.49655914
938, 709756182, 0.478697, 0.1491084, -0.8648547, 0.025343206, 0.18093263, 1.5539106, 0.012926102
939, 709772849, 0.47712415, 0.14802086, -0.8658836, 0.02622825, 0.24042127, 0.50980866, 0.4502859
940, 709789516, 0.47608495, 0.14715394, -0.86656594, 0.027429204, 0.76717204, -0.7711519, 1.0867825
941, 709806183, 0.47540352, 0.1468203, -0.8669574, 0.0286394, 1.5586013, -0.82578254, 1.28374
942, 709822850, 0.47503072, 0.1467992, -0.8671445, 0.029262256, 1.5422636, -0.045178197, 1.0339556
943, 709839517, 0.47467276, 0.14633217, -0.8674224, 0.029175617, 1.3636756, 0.8230832, 0.2850027
944, 709856184, 0.47438526, 0.1450168, -0.86782914, 0.028311305, 0.67678875, 0.98209137, 0.37486172
945, 709872851, 0.47438022, 0.1434566, -0.86814034, 0.026760142, 0.24110432, 0.14834113, 0.9411745
946, 709889518, 0.47470212, 0.14252317, -0.86815095, 0.025679704, 0.46902764, -0.767178, 0.8792391
947, 709906185, 0.4753766, 0.14239883, -0.86781305, 0.02530283, 0.94254273, -0.57416564, 0.46909237
948, 709922852, 0.47615004, 0.14235519, -0.8673956, 0.025321001, 1.0478252, 0.29960614, -0.04542446
949, 709939519, 0.47697327, 0.1417051, -0.8670781, 0.024328023, 0.4861228, 0.37866208, 0.45093346
950, 709956186, 0.47788325, 0.1411245, -0.86670357, 0.023164919, 0.060396776, -0.48918822, 0.3668928
951, 709972853, 0.4789768, 0.1412566, -0.86608475, 0.022917258, 0.040003456, -0.47270167, 0.11665249
952, 709989520, 0.48024932, 0.141489, -0.865344, 0.022836385, 0.034005262, 0.36370006, 0.14927101
953, 710006187, 0.48151925, 0.14113052, -0.86470914, 0.022350438, -0.08071008, 0.84096736, 0.031086922
954, 710022854, 0.48274818, 0.1401578, -0.86420524, 0.0214318, 0.1282343, 0.7212538, -0.1012907
955, 710039521, 0.48391053, 0.13898642, -0.8637651, 0.020578383, 0.16462801, 0.08017695, -0.13489723
956, 710056188, 0.48500893, 0.13818179, -0.86328727, 0.020184703, 0.051108025, -0.67461264, -0.08705807
957, 710072855, 0.48608673, 0.13821684, -0.862668, 0.020497417, -0.36040393, -0.91160095, 0.04350567
958, 710089522, 0.48721802, 0.13865994, -0.8619465, 0.020984951, -0.97888035, -0.2885541, 0.07879448
959, 710106189, 0.4885107, 0.13883352, -0.8611843, 0.021080544, -0.76692617, -0.033006996, 0.0414629
960, 710122856, 0.4897849, 0.13863169, -0.8604956, 0.020959742, 0.02196236, 0.2325044, -0.082980156
961, 710139523, 0.4907581, 0.13823038, -0.8600197, 0.020372164, 0.7599376, 0.1936481, 0.10657692
962, 710156190, 0.4914723, 0.138149, -0.85964245, 0.019614441, 0.86265427, -9.925652E-4, 0.33543968
963, 710172857, 0.49224755, 0.13867632, -0.85912293, 0.019210946, 0.3459359, 0.35026655, 0.45458126
964, 710189524, 0.4930023, 0.1391713, -0.8586085, 0.019279882, 0.0715076, 0.8164806, -0.006020546
965, 710206191, 0.49334964, 0.13902937, -0.8584317, 0.019290347, -0.54955083, 1.0049994, -0.18248081
966, 710222858, 0.4934159, 0.1385689, -0.85847634, 0.018919354, -1.6717824, 0.69061786, 0.086915016
967, 710239525, 0.49342602, 0.13811377, -0.85854536, 0.018858328, -1.6751978, 0.33287567, -0.7718439
968, 710256192, 0.4932131, 0.13666508, -0.85890913, 0.018403344, -1.15605, 0.38612613, -1.2606554
969, 710272859, 0.49258605, 0.1345139, -0.85966384, 0.015595954, -1.0040162, -0.25460142, -0.22848988
970, 710289526, 0.49165985, 0.1330668, -0.8604556, 0.013425984, -0.49280718, -2.3856182, -0.06950569
971, 710306193, 0.4910057, 0.13388936, -0.8606543, 0.016171178, -0.355724, -2.5058904, -0.019111633
972, 710322860, 0.49028012, 0.13597815, -0.86065733, 0.02011414, -0.16495793, -0.7528356, -0.10783672
973, 710339527, 0.48925784, 0.13776198, -0.86091393, 0.02181712, -0.013593164, -0.2025052, 0.094594955
974, 710356194, 0.4881259, 0.13931042, -0.86128145, 0.02280684, 0.26042747, -0.39632675, 0.2949791
975, 710372861, 0.48703393, 0.14073022, -0.8616431, 0.02375565, 0.41691336, 0.06579523, 0.2786045
976, 710389528, 0.48595017, 0.14155065, -0.8621177, 0.023853963, 0.48129314, 0.52390003, 0.4543686
977, 710406195, 0.48487207, 0.14198942, -0.8626684, 0.023270262, 0.49263912, 0.70306927, 0.33232975
978, 710422862, 0.48388463, 0.14214854, -0.8632214, 0.022325696, 0.55092746, 0.7949745, 0.14528179
979, 710439529, 0.48308215, 0.1420472, -0.863713, 0.021307975, 0.4279741, 0.7678059, 0.23981476
980, 710456196, 0.4825729, 0.14186089, -0.8640432, 0.020698452, 0.39008197, 0.55913967, 0.37717342
981, 710472863, 0.4822327, 0.14145859, -0.864307, 0.020363465, 0.371694, 0.480893, 0.28097534
982, 710489530, 0.48197314, 0.14086471, -0.8645588, 0.019924205, 0.29573536, 0.42284495, 0.302989
983, 710506197, 0.48181984, 0.1402577, -0.86474806, 0.01970228, 0.20759884, 0.32812148, 0.09886074
984, 710522864, 0.48179016, 0.13950957, -0.8648883, 0.019584835, 0.19848308, 0.4049507, 0.035429955
985, 710539531, 0.48182085, 0.13843617, -0.86505127, 0.019248627, 0.032749563, 0.39245942, 0.14065933
986, 710556198, 0.48188728, 0.13704708, -0.86525023, 0.018574195, 0.09417361, 0.08633149, 0.13957691
987, 710572865, 0.48204318, 0.1357542, -0.86537886, 0.0180255, 0.18219346, -0.16034567, 0.18622589
988, 710589532, 0.4822681, 0.13456638, -0.865448, 0.01758781, 0.17416845, -0.109860584, 0.22626114
989, 710606199, 0.48252586, 0.1334356, -0.86548996, 0.017063608, 0.18348357, -0.20664203, 0.2130909
990, 710622866, 0.48286322, 0.13254355, -0.86544615, 0.016681932, 0.26669297, -0.32122654, 0.16810513
991, 710639533, 0.48326117, 0.13186496, -0.86533445, 0.01633558, 0.2367552, -0.27931717, 0.13555431
992, 710656200, 0.48372436, 0.13135485, -0.8651623, 0.015847716, 0.1679293, -0.20796707, 0.16423988
993, 710672867, 0.48423117, 0.13101296, -0.86494005, 0.015310993, 0.10197242, -0.29245374, 0.2262001
994, 710689534, 0.48476443, 0.130892, -0.86466795, 0.014842818, 0.08199841, -0.34551767, 0.18684578
995, 710706201, 0.48536447, 0.13102807, -0.86431557, 0.0145452935, 0.07805922, -0.3256112, 0.122190475
996, 710722868, 0.4860317, 0.13137196, -0.86389047, 0.014420014, 0.11164383, -0.1761465, 0.12032795
997, 710739535, 0.48676434, 0.13195401, -0.86338687, 0.014564632, 0.12152265, -4.840173E-4, 0.033237457
998, 710756202, 0.48750603, 0.13258348, -0.86286795, 0.014785209, 0.12056155, 0.100160904, -0.059885025
999, 710772869, 0.4882341, 0.13309611, -0.86237407, 0.014966995, 0.1333581, 0.16513138, 0.027409554
1000, 710789536, 0.48896933, 0.1334505, -0.86190116, 0.015056102, 0.04550858, 0.26337436, 0.20069027
1001, 710806203, 0.48972878, 0.13370402, -0.8614278, 0.0152074965, 0.024304798, 0.29573083, 0.22169209
1002, 710822870, 0.4904625, 0.13377942, -0.86099654, 0.0153195085, 0.099102065, 0.44140774, 0.08190346
1003, 710839537, 0.49116048, 0.1334604, -0.8606518, 0.015111722, 0.08908243, 0.56907594, 0.051211357
1004, 710856204, 0.49189878, 0.13278738, -0.8603403, 0.014756471, 0.014150606, 0.612614, 0.104969025
1005, 710872871, 0.49268928, 0.13184583, -0.8600371, 0.014497656, 0.015002636, 0.55625063, 0.07609081
1006, 710889538, 0.49345687, 0.13071355, -0.8597733, 0.014297346, 0.005453716, 0.5099442, 0.00873661
1007, 710906205, 0.49424967, 0.12953325, -0.85949767, 0.01422583, 0.025892187, 0.40156338, 0.014083862
1008, 710922872, 0.49505988, 0.12828827, -0.85921735, 0.014263888, 0.029680733, 0.30252662, 0.037251472
1009, 710939539, 0.49587566, 0.1269847, -0.85893816, 0.014413762, -0.060001157, 0.1760797, 0.048749924
1010, 710956206, 0.496665, 0.12569992, -0.8586667, 0.01466094, -0.024643198, -0.012968725, 0.025609016
1011, 710972873, 0.4974338, 0.12448432, -0.8583948, 0.014895589, -0.058893427, -0.085453026, 0.04888916
1012, 710989540, 0.49815866, 0.12327615, -0.8581474, 0.014968231, -0.10093646, -0.178901, 0.16215134
1013, 711006207, 0.49886677, 0.12209603, -0.8579052, 0.014940671, -0.12611316, -0.2675288, 0.19202423
1014, 711022874, 0.4994861, 0.12089531, -0.85771775, 0.01477422, -0.068309136, -0.31428826, 0.07197857
1015, 711039541, 0.5000447, 0.11971662, -0.85756284, 0.01447458, -0.05646116, -0.31120175, 0.018380165
1016, 711056208, 0.5005578, 0.118720874, -0.8574082, 0.014089213, -0.15026776, -0.36241016, 0.03198147
1017, 711072875, 0.50102925, 0.11797616, -0.8572406, 0.013779469, -0.1801358, -0.47569317, 0.052264214
1018, 711089542, 0.5014741, 0.11750251, -0.85704815, 0.013616463, -0.15554893, -0.5085067, 0.011773109
1019, 711106209, 0.50184906, 0.11717896, -0.8568759, 0.013428196, -0.17780188, -0.5261056, 0.02418232
1020, 711122876, 0.5021436, 0.11707772, -0.8567212, 0.013167488, -0.19458367, -0.57050276, 0.10416794
1021, 711139543, 0.5023522, 0.11724597, -0.8565794, 0.012941851, -0.24156207, -0.4422858, 0.115932465
1022, 711156210, 0.5024872, 0.117554754, -0.8564622, 0.0126659535, -0.27357852, -0.327499, 0.04205799
1023, 711172877, 0.5025223, 0.11795902, -0.85639, 0.012377029, -0.21477315, -0.26935816, -0.078552246
1024, 711189544, 0.50249076, 0.11842195, -0.8563494, 0.012043022, -0.18523592, -0.20109418, 0.0015459061
1025, 711206211, 0.50238615, 0.11895147, -0.85634255, 0.011671952, -0.19327478, -0.13730043, 0.11592579
1026, 711222878, 0.5022094, 0.119509704, -0.85637355, 0.011296768, -0.16264859, -0.07020017, 0.116093636
1027, 711239545, 0.50198346, 0.120026834, -0.8564394, 0.010860132, -0.120619215, 0.048125524, 0.0538826
1028, 711256212, 0.50174457, 0.120536335, -0.85651314, 0.010436994, -0.07179639, 0.07193641, 0.028438568
1029, 711272879, 0.5014542, 0.12095914, -0.8566289, 0.009988121, -0.0107619, 0.1233861, -0.005208969
1030, 711289546, 0.5011507, 0.12132044, -0.8567608, 0.009501344, -0.0019244466, 0.120645866, 0.060121536
1031, 711306213, 0.50086886, 0.12173975, -0.85686964, 0.009172055, 0.034145627, 0.11851389, 0.102908134
1032, 711322880, 0.50062805, 0.12219709, -0.85694695, 0.0090305945, 0.075829454, 0.13544019, 0.058781624
1033, 711339547, 0.5004128, 0.12261734, -0.8570133, 0.008967055, 0.1507206, 0.13841939, 0.10238361
1034, 711356214, 0.5002029, 0.12293186, -0.85709256, 0.008810577, 0.13054721, 0.1948082, 0.17719936
1035, 711372881, 0.5000016, 0.12313843, -0.85718274, 0.008560976, 0.14493608, 0.17682032, 0.16770267
1036, 711389548, 0.49984106, 0.12330048, -0.85725546, 0.008306163, 0.17969905, 0.123552315, 0.1549015
1037, 711406215, 0.4997145, 0.12342114, -0.8573144, 0.008041839, 0.1367041, 0.17312515, 0.14039516
1038, 711422882, 0.49962723, 0.12346508, -0.8573612, 0.0077926014, 0.12710065, 0.12900765, 0.112854004
1039, 711439549, 0.499614, 0.12347702, -0.8573692, 0.0075877523, 0.116568714, 0.1378472, 0.109145164
1040, 711456216, 0.49964863, 0.12348708, -0.85734856, 0.0074785138, 0.13091199, 0.12564093, 0.1107378
1041, 711472883, 0.49971068, 0.12343815, -0.8573202, 0.0073784753, 0.12152086, 0.124310754, 0.10038948
1042, 711489550, 0.49979168, 0.12335843, -0.8572852, 0.00728499, 0.0697119, 0.08254065, 0.12456703
1043, 711506217, 0.4998904, 0.12326149, -0.8572424, 0.0072058556, 0.08960098, 0.086882725, 0.1438694
1044, 711522884, 0.49998733, 0.12304824, -0.85721755, 0.007071939, 0.067968056, 0.14647843, 0.09841061
1045, 711539551, 0.5000714, 0.12270672, -0.8572198, 0.006796425, 0.020061629, 0.09063182, 0.09070778
1046, 711556218, 0.50017333, 0.122446, -0.8571991, 0.0065874006, 0.029046804, -9.224374E-4, 0.09840393
1047, 711572885, 0.50030357, 0.122269094, -0.85714877, 0.00652736, 0.02050776, 0.026284229, 0.08772087
1048, 711589552, 0.50043195, 0.12210113, -0.8570976, 0.0065427423, 0.018879246, 0.0667607, 0.075876236
1049, 711606219, 0.5005921, 0.12195412, -0.8570242, 0.006653849, 0.0099128, 0.037606724, 0.053168297
1050, 711622886, 0.50075316, 0.12179799, -0.85695106, 0.0068185804, -0.004466236, 0.040843863, 0.056503296
1051, 711639553, 0.50087863, 0.121560246, -0.85691065, 0.006925066, -0.030313274, 0.058851298, 0.084459305
1052, 711656220, 0.500971, 0.121274896, -0.8568972, 0.006916333, -0.05538651, 0.031497948, 0.096738815
1053, 711672887, 0.50103056, 0.1209492, -0.8569088, 0.006860239, -0.055028442, 0.024555357, 0.07880211
1054, 711689554, 0.5010639, 0.12061234, -0.85693717, 0.0068129566, -0.07992332, -0.016542865, 0.056729317
1055, 711706221, 0.5010772, 0.12032464, -0.85696983, 0.0068185283, -0.057918467, -0.08657568, 0.038642883
1056, 711722888, 0.50106853, 0.12009655, -0.8570067, 0.0068473164, -0.010289195, -0.07374335, 0.07154274
1057, 711739555, 0.50101113, 0.119873844, -0.85707176, 0.0068129706, -0.026582843, -0.07125264, 0.120643616
1058, 711756222, 0.5009473, 0.11967505, -0.85713726, 0.0067534097, -0.021514015, -0.07748496, 0.15196228
1059, 711772889, 0.50087804, 0.11950375, -0.8572021, 0.0066880365, -0.012375466, -0.05892472, 0.12445545
1060, 711789556, 0.50079733, 0.119332574, -0.8572736, 0.0066225664, 0.016348632, -0.07468501, 0.06775284
1061, 711806223, 0.50073195, 0.11918324, -0.85733294, 0.0065667536, 0.033188097, -0.06791447, 0.05252266
1062, 711822890, 0.50065833, 0.11908357, -0.8573906, 0.0064758, 0.035099134, -0.061976288, 0.11333084
1063, 711839557, 0.5005975, 0.119005896, -0.85743785, 0.006338136, 0.03334992, -0.08737088, 0.15656853
1064, 711856224, 0.5005384, 0.11897706, -0.8574771, 0.006246635, 0.013787106, -0.09985682, 0.13651752
1065, 711872891, 0.5004875, 0.11896749, -0.85750884, 0.0061413, 0.0426275, -0.0641238, 0.12766933
1066, 711889558, 0.5004522, 0.11899815, -0.85752594, 0.006027283, 0.062229138, -0.049957436, 0.119072914
1067, 711906225, 0.500429, 0.11905459, -0.8575325, 0.0059170146, 0.041405328, -0.02666258, 0.07328129
1068, 711922892, 0.5004339, 0.11913058, -0.85751957, 0.0058498573, 0.061314967, -0.029032601, 0.05497551
1069, 711939559, 0.5004414, 0.11926577, -0.8574966, 0.0058079152, 0.041883647, -0.011703697, 0.09327507
1070, 711956226, 0.5004465, 0.11938037, -0.8574781, 0.0057568247, 0.012723251, 0.013163684, 0.12478161
1071, 711972893, 0.5004367, 0.11946728, -0.85747224, 0.0056559118, 0.021313302, 0.021871973, 0.14695072
1072, 711989560, 0.50040936, 0.11949386, -0.8574855, 0.005511149, 0.0094519155, 0.04009152, 0.11421871
1073, 712006227, 0.50038105, 0.119465455, -0.8575072, 0.0053000995, 0.030434866, 0.047957666, 0.10007858
1074, 712022894, 0.50035393, 0.119406655, -0.8575327, 0.0050730114, 0.008151964, 0.035789397, 0.088555336
1075, 712039561, 0.5003436, 0.11936641, -0.8575453, 0.004907957, -0.0010210072, 0.016475754, 0.06351566
1076, 712056228, 0.5003452, 0.11936138, -0.85754544, 0.004853843, 0.006606596, 0.0031119708, 0.048405647
1077, 712072895, 0.5003378, 0.11940782, -0.85754323, 0.0048508616, 0.008119779, 0.009236505, 0.05699444
1078, 712089562, 0.50030226, 0.11944526, -0.85755885, 0.004828051, 0.012392452, 0.023080507, 0.10909271
1079, 712106229, 0.500248, 0.11942582, -0.85759383, 0.004714821, 0.0034635568, 0.027494943, 0.1316328
1080, 712122896, 0.5001799, 0.11931548, -0.85765004, 0.004506775, 0.026713375, 0.026603965, 0.14097786
1081, 712139563, 0.5001251, 0.11920185, -0.8576989, 0.004288897, 0.016327707, -4.822581E-5, 0.13570976
1082, 712156230, 0.500117, 0.119129084, -0.8577144, 0.004189394, 0.007911464, -0.013978276, 0.04750824
1083, 712172897, 0.5001314, 0.11914071, -0.8577041, 0.00421979, 0.017992793, -0.03817171, 0.004723549
1084, 712189564, 0.500135, 0.11916166, -0.85769886, 0.004262791, 0.0013227497, -0.01573045, 0.05345726
1085, 712206231, 0.5001099, 0.11919969, -0.8577083, 0.0042556943, -0.0058037373, -0.0021270611, 0.13406372
1086, 712222898, 0.5000806, 0.11923025, -0.85772127, 0.00422709, 0.00922125, -4.4708178E-4, 0.14820766
1087, 712239565, 0.5000356, 0.11919612, -0.85775274, 0.0041293306, 0.022271724, 0.013502306, 0.13187218
1088, 712256232, 0.4999865, 0.11913013, -0.8577911, 0.0040114895, 0.027452756, 0.0047372454, 0.112594604
1089, 712272899, 0.49993965, 0.119046554, -0.85783064, 0.00387932, 0.016938705, -0.011867924, 0.09903145
1090, 712289566, 0.49989402, 0.11900674, -0.8578633, 0.003763938, 0.034615003, -0.04201904, 0.10390949
1091, 712306233, 0.4998581, 0.11902826, -0.8578813, 0.0037161363, 0.026595807, -0.0067193583, 0.09335041
1092, 712322900, 0.49983028, 0.11907806, -0.85789067, 0.0036997166, 0.0318877, -0.0034599805, 0.060461998
1093, 712339567, 0.49981487, 0.11911956, -0.85789394, 0.0036884495, 0.013611939, 0.02062572, 0.08220291
1094, 712356234, 0.4997823, 0.11909915, -0.85791606, 0.0036183672, 0.018026767, 0.027756007, 0.13161945
1095, 712372901, 0.49973872, 0.11901144, -0.8579543, 0.0034595162, 0.011747394, 0.033387806, 0.13154316
1096, 712389568, 0.49970645, 0.118918166, -0.8579866, 0.003322803, 0.0032029406, -0.007904648, 0.10929108
1097, 712406235, 0.4996856, 0.118883364, -0.8580038, 0.0032844706, 0.012942295, -0.0041652755, 0.060663223
1098, 712422902, 0.49969074, 0.11888826, -0.85799986, 0.0033563813, 0.0068211304, 0.018329665, 0.04126072
1099, 712439569, 0.4996869, 0.11892204, -0.85799706, 0.0034467834, 0.021911869, 0.042022392, 0.05859089
1100, 712456236, 0.49969018, 0.11892686, -0.85799414, 0.003503273, 0.036118798, 0.0648971, 0.100281715
1101, 712472903, 0.49968007, 0.11882033, -0.85801506, 0.003442255, 0.037012406, 0.082018025, 0.14774609
1102, 712489570, 0.49964836, 0.11860529, -0.85806394, 0.0033004265, 0.019946296, 0.07041167, 0.13812828
1103, 712506237, 0.4996137, 0.11834494, -0.85812056, 0.0031457948, 0.04406558, 0.05285478, 0.10450649
1104, 712522904, 0.49957597, 0.11803233, -0.8581862, 0.0029832653, 0.0063759307, 0.07920651, 0.089528084
1105, 712539571, 0.49956766, 0.11775178, -0.85822976, 0.0028998265, 0.021732165, 0.041046422, 0.058508873
1106, 712556238, 0.49959344, 0.117548935, -0.85824233, 0.0029578472, 0.069122724, 0.009262991, 0.029436111
1107, 712572905, 0.4996227, 0.117378116, -0.85824823, 0.0030778786, 0.06032436, 0.009879943, 0.072823524
1108, 712589572, 0.49963555, 0.11718909, -0.85826635, 0.0031430612, 0.047419615, 0.021480601, 0.13274002
1109, 712606239, 0.49964067, 0.116940014, -0.85829747, 0.0031113208, 0.03413311, 0.05619518, 0.15752316
1110, 712622906, 0.49963728, 0.11658498, -0.8583481, 0.003001156, 0.016483186, 0.037008997, 0.13510323
1111, 712639573, 0.49965027, 0.11618842, -0.8583949, 0.0028656346, 0.02677417, -7.7955733E-4, 0.10873127
1112, 712656240, 0.49967447, 0.11584891, -0.85842687, 0.0028112081, -0.019088453, -0.021564865, 0.066999435
1113, 712672907, 0.49970806, 0.11558381, -0.858443, 0.002830195, 0.0056387847, -0.03470156, 0.08450127
1114, 712689574, 0.4997691, 0.11540113, -0.8584316, 0.0029588398, 0.0045623463, -0.026506066, 0.07470226
1115, 712706241, 0.4998294, 0.11523776, -0.858418, 0.0030835294, 0.03742143, -0.014009401, 0.07898331
1116, 712722908, 0.4998749, 0.11505127, -0.8584162, 0.0031495246, 0.0061590453, -0.027478095, 0.103588104
1117, 712739575, 0.49991983, 0.11483592, -0.8584189, 0.0031530808, 0.018912325, -0.068852216, 0.13836384
1118, 712756242, 0.49993876, 0.11462836, -0.85843563, 0.0031406747, 0.0121599985, -0.10208071, 0.11654377
1119, 712772909, 0.49995723, 0.114472814, -0.85844576, 0.0031212412, -0.012509126, -0.12334311, 0.112148285
1120, 712789576, 0.49997678, 0.11437545, -0.85844743, 0.0031153841, -0.011284722, -0.110960126, 0.10725212
1121, 712806243, 0.5000341, 0.11438751, -0.85841197, 0.0032006272, -0.0077371243, -0.13553485, 0.075808525
1122, 712822910, 0.50008607, 0.11448935, -0.85836756, 0.0033379137, -0.01635355, -0.10804711, 0.048724174
1123, 712839577, 0.50011694, 0.11463041, -0.8583302, 0.0034669342, 0.008447002, -0.10721028, 0.06598854
1124, 712856244, 0.5001124, 0.11477935, -0.85831296, 0.0035092046, -8.7885297E-4, -0.088247724, 0.11927223
1125, 712872911, 0.5000787, 0.11490964, -0.85831535, 0.00346189, -0.027715607, -0.079865925, 0.17095089
1126, 712889578, 0.50005805, 0.11508632, -0.8583039, 0.003418438, -0.015307508, -0.0832916, 0.14409447
1127, 712906245, 0.5000362, 0.115305774, -0.85828704, 0.0034259968, 0.002363426, -0.073681995, 0.04514599
1128, 712922912, 0.5000023, 0.11552805, -0.8582769, 0.0034267204, 0.008806857, -0.015571756, 0.0554924
1129, 712939579, 0.49996203, 0.1157801, -0.8582665, 0.00343238, 0.0010590043, -0.017222287, 0.0799284
1130, 712956246, 0.4999105, 0.11603474, -0.8582622, 0.0034232072, -0.0036982454, 0.0038412379, 0.10189915
1131, 712972913, 0.49986026, 0.116279066, -0.85825825, 0.0034242398, -0.02309023, 0.025110116, 0.11334705
1132, 712989580, 0.49982855, 0.11651702, -0.8582443, 0.0034764437, 0.0137965605, 0.049619094, 0.08274174
1133, 713006247, 0.49977922, 0.116710916, -0.8582466, 0.003492842, 0.013454946, 0.06675704, 0.07245827
1134, 713022914, 0.49972087, 0.116856925, -0.85826063, 0.0034771077, 0.02367181, 0.06596236, 0.10564327
1135, 713039581, 0.4996493, 0.11696173, -0.8582881, 0.0034661596, 0.0078140125, 0.073164396, 0.11504555
1136, 713056248, 0.4996168, 0.11711939, -0.8582852, 0.0035545905, 0.020114377, 0.02207777, 0.08089924
1137, 713072915, 0.49960005, 0.11730603, -0.85826886, 0.0037142197, 0.039303858, 0.035180937, 0.05075836
1138, 713089582, 0.49957904, 0.117437385, -0.85826254, 0.0038300776, 0.056914892, 0.05549268, 0.10515022
1139, 713106249, 0.49954286, 0.11746574, -0.85827965, 0.0038447396, 0.054608237, 0.045596868, 0.14165401
1140, 713122916, 0.49950013, 0.117457435, -0.8583058, 0.003809527, 0.032878757, 0.042361572, 0.14186001
1141, 713139583, 0.49951878, 0.11752987, -0.8582847, 0.0038850293, 0.026961027, -0.043595307, 0.08627415
1142, 713156250, 0.49956524, 0.117714435, -0.8582312, 0.0041576815, 0.058416005, -0.08732942, 0.0133161545
1143, 713172917, 0.49957982, 0.117914, -0.8581939, 0.0044400217, 0.07329169, -0.005405046, 0.034317017
1144, 713189584, 0.49957922, 0.11807656, -0.85817105, 0.004593281, 0.0072351145, -0.009665594, 0.14888477
1145, 713206251, 0.49966836, 0.118384056, -0.8580746, 0.004992428, -0.038113877, -0.08061101, 0.13627338
1146, 713222918, 0.49976808, 0.11882106, -0.857952, 0.005672437, 0.062041834, -0.06571471, -0.082066536
1147, 713239585, 0.49982426, 0.119260155, -0.8578536, 0.0063345814, 0.026764782, 0.0026558368, -0.06967163
1148, 713256252, 0.49982613, 0.119642295, -0.8577956, 0.0068108346, -0.030194812, -0.019774694, 0.16152
1149, 713272919, 0.4998115, 0.119991496, -0.8577523, 0.007177293, -0.109629974, 0.022159353, 0.27266693
1150, 713289586, 0.49981526, 0.120388746, -0.85769004, 0.0076852706, -0.06732836, 0.015896186, 0.08507156
1151, 713306253, 0.49975586, 0.12072399, -0.8576719, 0.008283803, 0.064357705, 0.05085096, -0.14815521
1152, 713322920, 0.4996579, 0.120974354, -0.8576891, 0.0087579405, 0.012058971, 0.04843034, -0.0017614365
1153, 713339587, 0.49958247, 0.12131973, -0.85767853, 0.0093053365, -0.03241653, -0.0153088495, 0.21927452
1154, 713356254, 0.49948937, 0.1217788, -0.85765994, 0.009995891, 0.012335233, -0.108884, 0.19047737
1155, 713372921, 0.4993943, 0.12235991, -0.8576229, 0.010795712, 0.14848502, -0.10534501, 0.061143875
1156, 713389588, 0.499346, 0.12292079, -0.85756266, 0.01142433, 0.08654556, -0.06771672, 0.10721493
1157, 713406255, 0.49931988, 0.12349988, -0.85748935, 0.011809225, 0.11362103, -0.06722638, 0.19540215
1158, 713422922, 0.49931046, 0.1239083, -0.8574386, 0.011620028, 0.09189154, 0.022193607, 0.09953594
1159, 713439589, 0.49935693, 0.1243384, -0.8573522, 0.011392557, 0.09491478, -0.13781783, 0.036014557
1160, 713456256, 0.49941775, 0.124931775, -0.85723424, 0.011114467, -0.014647698, -0.15699129, 0.012415886
1161, 713472923, 0.49943203, 0.12574854, -0.85710603, 0.011164292, -0.11677613, -0.24394934, 0.087244034
1162, 713489590, 0.4993851, 0.12680383, -0.8569714, 0.011640043, -0.16477151, -0.22067828, 0.15800571
