PacketCounter_femur,SampleTimeFine_femur,Quat_W_femur,Quat_X_femur,Quat_Y_femur,Quat_Z_femur,FreeAcc_X_femur,FreeAcc_Y_femur,FreeAcc_Z_femur
1,285897937,0.7009468,-0.036465902,-0.7086882,0.07146286,0.105199054,0.09302131,0.2368288
2,285914604,0.7009614,-0.03651805,-0.70866716,0.07150077,0.099989414,0.019413525,0.19267082
3,285931271,0.70101655,-0.036576863,-0.70861083,0.07148949,-0.012766166,-0.035419762,0.19569778
4,285947938,0.70101887,-0.036718063,-0.7086082,0.071419545,-0.07024565,-0.00460188,0.19729519
5,285964605,0.700983,-0.036894467,-0.7086383,0.07138297,-0.016207818,0.083952315,0.13968372
6,285981272,0.701025,-0.037115302,-0.7085925,0.07131132,-0.04392164,0.021787623,0.18000126
7,285997939,0.7010891,-0.03736032,-0.70853525,0.07112039,-0.079460196,-0.009499747,0.19168854
8,286014606,0.7011126,-0.037522934,-0.7085111,0.07104289,-0.071489275,-0.08920517,0.19623566
9,286031273,0.70108813,-0.037560157,-0.70852154,0.07116083,-0.07967254,-0.09014018,0.19331837
10,286047940,0.7009969,-0.037487064,-0.70859,0.071417496,-0.00741616,-0.063776545,0.21389484
11,286064607,0.7010161,-0.037353363,-0.70855474,0.07164802,0.030936874,-0.08452743,0.1893053
12,286081274,0.70106494,-0.03712252,-0.7084929,0.07190033,-0.009652183,-0.07153029,0.16993713
13,286097941,0.70109993,-0.03680307,-0.70843405,0.07230229,-0.016308846,-0.03860957,0.18333435
14,286114608,0.701065,-0.03644184,-0.7084379,0.07278569,-0.04070752,-0.026929455,0.21103859
15,286131275,0.7009926,-0.03613909,-0.7084907,0.073120065,-0.011302156,0.021659328,0.16945362
16,286147942,0.7009294,-0.03582604,-0.7085348,0.073451966,0.046292216,0.04584667,0.12439442
17,286164609,0.7009329,-0.035631195,-0.7085157,0.07369401,0.045199238,0.042972237,0.21524525
18,286181276,0.7009352,-0.035519805,-0.70850337,0.07384614,0.05759303,0.08768602,0.21786213
19,286197943,0.70101255,-0.035509583,-0.70842224,0.07389475,0.030612782,0.07102912,0.1901722
20,286214610,0.7011023,-0.035683785,-0.70834345,0.073715284,-0.002874824,0.07121711,0.17809868
21,286231277,0.7011365,-0.035882372,-0.70831674,0.07354862,-0.004130072,0.014122163,0.17318821
22,286247944,0.7011453,-0.035978902,-0.7083115,0.07346905,-0.036806773,-0.029710768,0.1650095
23,286264611,0.70108986,-0.03613388,-0.7083678,0.073377974,-0.059732944,-0.0870115,0.24931717
24,286281278,0.70102286,-0.036230527,-0.7084332,0.07333957,-0.027299425,-0.022558631,0.15433311
25,286297945,0.70101124,-0.036328487,-0.7084432,0.07330575,-0.057191603,-0.002521925,0.13083935
26,286314612,0.7009677,-0.036451776,-0.70848984,0.07321095,-0.06619694,0.019627512,0.19366646
27,286331279,0.70089656,-0.036594532,-0.708565,0.07309292,-0.037918974,-0.017953707,0.24316692
28,286347946,0.70088166,-0.036765978,-0.7085958,0.072850555,0.04676785,-0.0891684,0.19745731
29,286364613,0.70091474,-0.036943156,-0.7085689,0.07270415,0.075196914,-0.08165761,0.17173576
30,286381280,0.7008903,-0.037095867,-0.7085714,0.0728386,0.10567648,0.011227586,0.20370293
31,286397947,0.70090604,-0.03750993,-0.7085432,0.0727484,0.07140926,0.19938557,0.11958504
32,286414614,0.7007973,-0.038201537,-0.70867115,0.07218861,0.060276974,0.2782635,0.2555189
33,286431281,0.7009151,-0.03916929,-0.7086064,0.07115393,0.008042891,0.15820132,0.20688438
34,286447948,0.7010488,-0.04003175,-0.70854366,0.06997016,-0.089991234,-0.123166814,0.16209888
35,286464615,0.7012152,-0.040419217,-0.7084189,0.069341555,-0.06807758,-0.3637998,0.25042915
36,286481282,0.70126146,-0.040062733,-0.7083837,0.069441035,-0.06935428,-0.39435017,0.20961952
37,286497949,0.7011448,-0.039204217,-0.7084818,0.070106246,-7.29E-04,-0.17688648,0.1705513
38,286514616,0.7009743,-0.038045693,-0.70860475,0.071196735,-0.030241303,0.05796842,0.109111786
39,286531283,0.7008099,-0.036921643,-0.7086963,0.0724836,-0.029649887,0.18256538,0.15214252
40,286547950,0.70070076,-0.03593506,-0.7087288,0.07370775,-0.06941061,0.31411296,0.20527077
41,286564617,0.7006459,-0.03532474,-0.70872754,0.074532144,-0.07775301,0.2936692,0.20877838
42,286581284,0.7007767,-0.03516758,-0.7085799,0.07477913,-0.01860522,0.25756115,0.2291832
43,286597951,0.70106804,-0.035436247,-0.708298,0.07459224,-0.0605139,0.1904276,0.17126846
44,286614618,0.70130914,-0.036064137,-0.7080792,0.07410042,-0.003122923,0.17744802,0.18482208
45,286631285,0.7014892,-0.036824305,-0.7079297,0.07344733,0.038746864,0.05309412,0.15963459
46,286647952,0.70156205,-0.037440922,-0.70788056,0.072910994,0.067378424,-0.05665785,0.12290573
47,286664619,0.7015968,-0.03782829,-0.70785886,0.07258803,0.06324657,-0.15537131,0.17374516
48,286681286,0.70157236,-0.037968606,-0.7078853,0.072491646,-0.00683145,-0.15045336,0.19281673
49,286697953,0.7015472,-0.037857436,-0.70789677,0.07268275,-0.08334128,-0.15061823,0.19147587
50,286714620,0.7015114,-0.03754747,-0.7079035,0.07312107,-0.11503184,-0.13084446,0.19208527
51,286731287,0.70147955,-0.037170567,-0.70789844,0.073667705,-0.1443934,-0.06988077,0.22419453
52,286747954,0.7013873,-0.036803603,-0.7079461,0.07427061,-0.003253455,0.05482189,0.19909668
53,286764621,0.7013255,-0.036554202,-0.70796573,0.074785315,0.10039129,0.13172801,0.21427059
54,286781288,0.70132625,-0.0365351,-0.7079509,0.07492787,0.13437018,0.14692587,0.19985676
55,286797955,0.70133793,-0.036733683,-0.70794535,0.07477543,0.13959233,0.08837371,0.21662903
56,286814622,0.70134217,-0.037016552,-0.7079499,0.07455165,0.1625708,0.024554463,0.1902008
57,286831289,0.701414,-0.037291754,-0.7078817,0.074387275,0.16732001,-0.07956195,0.15672302
58,286847956,0.70154583,-0.037481483,-0.70775616,0.074241474,0.07236053,-0.11152366,0.16743469
59,286864623,0.70162356,-0.03767039,-0.70768857,0.0740564,0.040827323,-0.09895704,0.21124363
60,286881290,0.70171285,-0.037880223,-0.7076172,0.07378418,-0.03002673,-0.057491165,0.21660519
61,286897957,0.7016703,-0.037947137,-0.7076782,0.07357004,-0.074889354,-0.039677236,0.16892338
62,286914624,0.7015835,-0.037834592,-0.70776707,0.073598646,-0.09448295,-0.073398836,0.1676712
63,286931291,0.70155114,-0.03763037,-0.70779294,0.073763914,-0.085525,-0.024583856,0.18139458
64,286947958,0.70153105,-0.037432987,-0.70780534,0.07393727,-0.082549594,0.03879439,0.16819859
65,286964625,0.701559,-0.03731931,-0.70776504,0.07411518,-0.03308573,0.06445502,0.18594551
66,286981292,0.70163405,-0.037257116,-0.70768404,0.07420993,-0.040362418,0.05963528,0.15397072
67,286997959,0.7016687,-0.03724948,-0.70764375,0.07426941,-0.026562726,0.014501381,0.21933174
68,287014626,0.7016664,-0.037335526,-0.70764786,0.07420868,-0.014670944,0.025120845,0.22151375
69,287031293,0.7016565,-0.0375309,-0.70766985,0.07399419,0.023663316,0.045085568,0.16426563
70,287047960,0.7016692,-0.037680984,-0.7076604,0.07388743,0.1347631,0.09712015,0.16318417
71,287064627,0.70178545,-0.0377869,-0.70754987,0.07378866,0.08110883,0.02937044,0.15589237
72,287081294,0.7018611,-0.03780425,-0.7074836,0.07369477,-0.004491269,-0.04145084,0.16345787
73,287097961,0.70185363,-0.03780969,-0.70750046,0.07360056,-0.041154545,-0.06205334,0.20005512
74,287114628,0.70182645,-0.037808165,-0.7075335,0.073543616,-0.08078161,-0.032303266,0.20560074
75,287131295,0.70182943,-0.037764527,-0.70753115,0.07356029,-0.07363813,-0.001942411,0.19961357
76,287147962,0.70177865,-0.03770268,-0.70757306,0.07367223,-0.09191166,0.02016383,0.15625572
77,287164629,0.70174515,-0.037618168,-0.70759684,0.07380588,-0.04915229,0.039201282,0.13029194
78,287181296,0.70172244,-0.03755629,-0.7076137,0.073891915,-0.05829531,0.021139016,0.16234207
79,287197963,0.701705,-0.037550207,-0.7076316,0.07389016,-0.06136548,-0.003617809,0.23528576
80,287214630,0.70166844,-0.037550136,-0.70766807,0.07388826,-0.06481205,-0.030221717,0.16585922
81,287231297,0.7015987,-0.037599932,-0.70772684,0.07396031,-0.027349046,0.018888103,0.19445229
82,287247964,0.7015426,-0.037654705,-0.7077825,0.07393227,-0.012926201,0.011173664,0.17148972
83,287264631,0.701493,-0.03777928,-0.7078373,0.07381374,-0.019778661,0.028927997,0.19643402
84,287281298,0.7013635,-0.037932456,-0.7079724,0.073672056,-0.011976271,0.115601026,0.19741821
85,287297965,0.7013174,-0.038089927,-0.70801604,0.073610604,0.03816439,0.03894171,0.23022175
86,287314632,0.7012784,-0.038201027,-0.7080508,0.073589124,0.08662647,-0.00448719,0.17184544
87,287331299,0.7012805,-0.038322628,-0.7080468,0.073543236,0.108751126,-0.056533273,0.20215034
88,287347966,0.7012492,-0.038366355,-0.708075,0.073549405,0.10285127,-0.063707784,0.19314289
89,287364633,0.70118636,-0.038418967,-0.70813215,0.073571,0.048773658,0.011370216,0.19933605
90,287381300,0.70118445,-0.038520552,-0.7081348,0.07351085,0.057804026,0.02935362,0.22052288
91,287397967,0.70124865,-0.038680494,-0.70807654,0.07337539,-0.001232898,0.007092821,0.1516037
92,287414634,0.7013226,-0.038792353,-0.70801145,0.073237225,-0.02849835,-0.03521075,0.19770718
93,287431301,0.70133704,-0.038884833,-0.7079973,0.07318644,-0.03552247,0.022903904,0.18949604
94,287447968,0.70128983,-0.03899986,-0.7080424,0.07314159,0.031479117,0.052708518,0.20670033
95,287464635,0.7012877,-0.039199963,-0.70805013,0.07298057,0.05968243,0.04321743,0.20851707
96,287481302,0.7013493,-0.03935083,-0.7079875,0.07291304,0.08566134,0.013432123,0.20304966
97,287497969,0.70143723,-0.0394576,-0.7078958,0.072900906,0.05261763,-0.00128981,0.21675777
98,287514636,0.7015091,-0.03944263,-0.7078095,0.073056296,0.097474,0.08622944,0.15946293
99,287531303,0.70164365,-0.039441608,-0.70766056,0.07320532,0.09463404,7.13E-04,0.22749805
100,287547970,0.7018201,-0.039427392,-0.7074778,0.07328915,0.043986455,-0.03262387,0.19025135
101,287564637,0.70200324,-0.03936395,-0.7072891,0.07338978,0.005088049,-0.052788842,0.20582008
102,287581304,0.70208335,-0.039346825,-0.7072016,0.073475555,0.04574461,-0.011701182,0.1933403
103,287597971,0.7021685,-0.039343216,-0.7071057,0.07358644,0.054304708,0.066603005,0.1781826
104,287614638,0.7023185,-0.039401546,-0.7069546,0.073577024,0.031934638,0.10585012,0.1814909
105,287631305,0.70252544,-0.03952116,-0.7067558,0.07344603,-0.006764396,0.037628014,0.20411777
106,287647972,0.70271754,-0.039688926,-0.7065707,0.07329755,-0.026786687,1.19E-04,0.23556328
107,287664639,0.7028964,-0.039884686,-0.7063884,0.07323469,0.08626304,0.05042483,0.19760227
108,287681306,0.70318764,-0.040046614,-0.70608896,0.073238015,0.08768413,0.043662194,0.13747597
109,287697973,0.7035201,-0.04029944,-0.7057554,0.073121116,0.044302505,0.041007336,0.18895245
110,287714640,0.70386636,-0.04052721,-0.70541614,0.07293768,-0.01847111,-0.01729725,0.22644138
111,287731307,0.70417005,-0.040711448,-0.7051144,0.072821334,0.04154301,0.013840145,0.20129204
112,287747974,0.70457727,-0.040965393,-0.7047092,0.072662555,0.07961308,0.056819815,0.20623589
113,287764641,0.7050017,-0.0412213,-0.7042812,0.07254965,0.110589296,0.07803877,0.1500206
114,287781308,0.7054419,-0.041531403,-0.7038288,0.07248438,0.11561163,0.029888209,0.22636604
115,287797975,0.70585847,-0.041825008,-0.7034052,0.0723727,0.11859195,0.09888767,0.21492767
116,287814642,0.7063354,-0.041962467,-0.70291126,0.0724377,0.14367682,0.14343324,0.23425198
117,287831309,0.7069379,-0.042237923,-0.7022978,0.0723497,0.26637337,0.14400075,0.2013197
118,287847976,0.70769006,-0.04258136,-0.7015283,0.072262965,0.30906746,0.17101423,0.19437885
119,287864643,0.70851225,-0.043067902,-0.70068234,0.072124526,0.41187403,0.20979,0.22926235
120,287881310,0.7093314,-0.043718766,-0.6998243,0.07201265,0.6729193,0.21886934,0.33991814
121,287897977,0.7102101,-0.04446986,-0.6988941,0.07192642,0.8321678,0.11328575,0.3331356
122,287914644,0.7112274,-0.045054942,-0.69783187,0.071821466,0.6953421,0.21745245,0.18025589
123,287931311,0.71229136,-0.045715947,-0.69672066,0.07164738,0.63890105,0.23576856,0.23248577
124,287947978,0.713391,-0.04636235,-0.69554937,0.07167133,0.83654195,0.23612954,0.20110607
125,287964645,0.7147815,-0.046833068,-0.6940694,0.0718589,0.6633091,0.15165061,0.34588432
126,287981312,0.7164392,-0.047376513,-0.69236755,0.071412355,0.3913104,0.31573346,0.3817587
127,287997979,0.7183243,-0.048336886,-0.69049954,0.06990081,0.059734285,0.5336116,0.20768929
128,288014646,0.72065187,-0.05022332,-0.6881923,0.06731837,-0.18126364,0.4180103,0.28771973
129,288031313,0.72321564,-0.052888256,-0.6855997,0.06416675,-0.2468419,0.15139285,0.1877718
130,288047980,0.72583336,-0.055354513,-0.68285626,0.061737686,-0.295599,0.27553058,-0.034015656
131,288064647,0.7287331,-0.057839796,-0.6797334,0.059727076,-0.5032819,0.30545142,0.14858055
132,288081314,0.7320242,-0.060330298,-0.6761478,0.057681043,-0.9823667,0.24799044,0.30383873
133,288097981,0.73540825,-0.0630356,-0.6723914,0.05561658,-1.1514386,0.029706102,0.30785275
134,288114648,0.73885924,-0.06566813,-0.66847223,0.054052692,-1.1548579,-0.32877147,0.19268131
135,288131315,0.7429842,-0.06698124,-0.6637687,0.05386409,-0.98689103,-0.29442573,0.23840714
136,288147982,0.7478181,-0.066904165,-0.658255,0.054720324,-1.3149357,-0.2467878,0.5396662
137,288164649,0.75274366,-0.067175634,-0.6525623,0.055037197,-0.80907,-0.34713697,0.6931534
138,288181316,0.75753707,-0.06755941,-0.6469273,0.055324316,0.03607678,-0.5492047,0.61093426
139,288197983,0.7624279,-0.06754608,-0.6410731,0.05629106,0.90104777,-0.91187215,0.37748146
140,288214650,0.76819485,-0.06691238,-0.63406044,0.058041014,1.1578382,-0.8238893,0.4073553
141,288231317,0.77477944,-0.06610734,-0.6259125,0.0598506,1.1180091,-0.65810895,0.473032
142,288247984,0.78141296,-0.06711773,-0.6174816,0.06006394,-0.10186245,-0.61330575,0.25705147
143,288264651,0.7860101,-0.07037182,-0.6112963,0.059624474,0.8055313,-0.5271252,-0.58009624
144,288281318,0.7897831,-0.07299004,-0.6059965,0.06070796,1.2641138,-0.09107248,-0.42346954
145,288297985,0.7935943,-0.07443586,-0.6005516,0.063304625,1.4952413,0.5634594,0.055508614
146,288314652,0.79742455,-0.07505352,-0.5951458,0.065459155,1.5200275,1.7612898,0.17412567
147,288331319,0.8010555,-0.07551871,-0.59007156,0.06651868,1.2543583,1.8209225,-0.03328228
148,288347986,0.8045411,-0.076607496,-0.5851018,0.06710649,0.5170981,0.20760548,0.13441181
149,288364653,0.80779845,-0.0776279,-0.5803606,0.06796525,-0.041925218,-0.81705576,0.20714092
150,288381320,0.81099254,-0.077806406,-0.57568055,0.06950799,-0.34529847,-0.65969056,0.1457882
151,288397987,0.81392235,-0.07848041,-0.57125133,0.07103197,-0.37000066,-0.05741327,-0.017255783
152,288414654,0.8165952,-0.08064337,-0.5670321,0.0717349,-0.7073117,0.14897597,0.064291954
153,288431321,0.8191255,-0.08433095,-0.56285226,0.071562044,-1.3724111,-0.8480741,0.16865921
154,288447988,0.8218279,-0.08857025,-0.5582491,0.07151565,-1.8940034,-2.674132,0.6343708
155,288464655,0.82495606,-0.091395654,-0.5530143,0.07260614,-2.6711664,-2.8531978,0.71345615
156,288481322,0.82806,-0.09089262,-0.54790044,0.07656768,-1.967996,-1.3769296,-0.29533577
157,288497989,0.8313237,-0.08989221,-0.54245406,0.08103042,-2.001472,0.3463178,-0.52569866
158,288514656,0.83416027,-0.08922916,-0.5375658,0.085086554,-1.9445294,1.2721903,0.19765282
159,288531323,0.83740884,-0.089327104,-0.5320549,0.08767537,-1.6349407,0.8061343,0.6177769
160,288547990,0.84025264,-0.09029315,-0.5271265,0.08923219,-0.644916,0.14459908,-0.424304
161,288564657,0.8435803,-0.09002394,-0.521257,0.09252617,2.4554865,-0.7291405,-1.1959667
162,288581324,0.8488273,-0.087944254,-0.51227355,0.09662181,1.2841114,-1.026939,-0.020536423
163,288597991,0.8531467,-0.08703275,-0.50457025,0.099885516,-1.0171002,-0.121771425,0.92877674
164,288614658,0.856954,-0.08520798,-0.49767074,0.10341907,-0.54809844,0.6415837,0.71477795
165,288631325,0.8606764,-0.08318006,-0.49081326,0.10687296,0.58791596,1.7752731,-0.53790855
166,288647992,0.8647937,-0.081909806,-0.48318672,0.10934139,3.3374326,1.3421593,-1.5930243
167,288664659,0.86887616,-0.08260389,-0.47528505,0.11107316,2.1153176,0.75875425,-0.40499306
168,288681326,0.8723838,-0.08480937,-0.46808124,0.112498626,1.547301,1.0366884,0.75183487
169,288697993,0.8755873,-0.08703947,-0.46134496,0.11372803,1.0180515,-0.4286156,1.0673733
170,288714660,0.87894773,-0.08728477,-0.45420682,0.116321124,-0.09114233,-0.55204153,0.91821957
171,288731327,0.88249123,-0.08581039,-0.44671756,0.119546756,0.63597524,0.678521,-0.07515812
172,288747994,0.88607544,-0.0846288,-0.43915296,0.121880494,1.1135902,2.4693925,-0.6218586
173,288764661,0.88929856,-0.08556413,-0.43239725,0.12190782,1.5217283,2.4308562,-0.01444912
174,288781328,0.8922654,-0.0881091,-0.42607406,0.12067548,0.44295797,0.39476153,0.5373287
175,288797995,0.8952059,-0.09061981,-0.41944337,0.12026656,-0.72709054,-1.278567,0.4070959
176,288814662,0.8981847,-0.091937676,-0.41234997,0.12157841,-0.78297997,-0.6185932,-0.3900051
177,288831329,0.9011831,-0.09298014,-0.40502185,0.1232203,0.13439678,0.8965076,-0.6966181
178,288847996,0.9040339,-0.09538164,-0.39783302,0.12392003,0.54853815,0.7810381,-0.115979195
179,288864663,0.9067495,-0.09861252,-0.39089116,0.123640336,0.21446471,-0.45960784,0.5338907
180,288881330,0.90954226,-0.10152301,-0.38344836,0.12407867,-0.15142667,-2.0674295,0.80021477
181,288897997,0.91281205,-0.10194982,-0.37473735,0.12631097,-0.64035726,-1.960374,-0.017938614
182,288914664,0.9160045,-0.101082295,-0.36614868,0.12905578,-0.24419104,-0.49923804,-0.8998699
183,288931331,0.9187274,-0.10083845,-0.35859093,0.13109644,0.7528209,0.8343877,-0.38499832
184,288947998,0.92109454,-0.10227676,-0.3517716,0.13184544,1.1190279,0.44738963,0.6192503
185,288964665,0.92359805,-0.10385787,-0.34420165,0.13306975,0.9298713,-1.3268414,0.8149214
186,288981332,0.9266748,-0.10389748,-0.33468103,0.13590446,0.11521422,-2.0712698,0.12392235
187,288997999,0.9298301,-0.10249041,-0.32465822,0.1396816,-0.37297204,0.17616095,-0.8155565
188,289014666,0.9321937,-0.10203399,-0.3166429,0.14262998,0.25896838,1.2904474,-0.5463686
189,289031333,0.9342182,-0.10290737,-0.3094461,0.14453849,1.2726846,0.4342117,0.49366283
190,289048000,0.9363866,-0.10318261,-0.30168948,0.14669365,1.6011863,-0.97956127,1.4488735
191,289064667,0.93890095,-0.10187603,-0.29259288,0.14992566,0.96202904,-1.2707406,0.92337894
192,289081334,0.9416317,-0.09998208,-0.28211713,0.15409574,-0.002657793,0.59566075,-0.24014759
193,289098001,0.9441667,-0.09949626,-0.2716665,0.1576357,0.2160179,2.062833,-1.0140839
194,289114668,0.9458982,-0.10124928,-0.26381978,0.1594569,0.23779967,1.8102236,0.15747356
195,289131335,0.947581,-0.10389707,-0.25616366,0.16024362,0.42960307,0.5814928,0.21542263
196,289148002,0.94988966,-0.10352575,-0.24701744,0.16117296,1.1256765,-1.5953133,1.3082218
197,289164669,0.9526508,-0.10090955,-0.23706512,0.16148114,0.40776563,-1.3491987,1.5702324
198,289181336,0.9555429,-0.09907836,-0.2261415,0.16119383,-0.74187905,-0.34379858,-1.4068756
199,289198003,0.958234,-0.098430835,-0.21448721,0.16154361,-1.5848002,-0.97375196,-1.3224592
200,289214670,0.96034384,-0.098364525,-0.20363049,0.16309819,-1.6252382,0.46435046,-0.13965034
201,289231337,0.9617881,-0.098898776,-0.19479571,0.16504422,-0.83674747,1.0056489,0.7760458
202,289248004,0.96285355,-0.09991192,-0.18854876,0.16547625,0.63717127,0.42488298,1.454217
203,289264671,0.96380574,-0.100058354,-0.18417884,0.1647645,1.2553594,0.5762041,1.2284622
204,289281338,0.96457887,-0.09951592,-0.18096666,0.16412565,0.55892813,0.50104463,0.70132065
205,289298005,0.96509814,-0.09856611,-0.17917188,0.1636156,-0.45100567,0.71631473,0.6129494
206,289314672,0.9654793,-0.09802385,-0.17852122,0.16239986,-0.669207,1.4652483,-0.55624104
207,289331339,0.965679,-0.098976664,-0.17765893,0.16157793,-0.83394575,1.1826763,-0.925333
208,289348006,0.9657984,-0.10052575,-0.1764492,0.16123295,-1.2446704,-0.43058822,-0.49143887
209,289364673,0.965974,-0.10098453,-0.17545457,0.1609797,-1.3764338,-1.0891731,0.3450079
210,289381340,0.96616894,-0.10048992,-0.17448288,0.16117534,-0.53274524,-1.0349183,0.43272495
211,289398007,0.96648955,-0.09921375,-0.17295606,0.16168927,-0.72871685,-0.0953561,0.030115128
212,289414674,0.9667674,-0.098348245,-0.1715848,0.16201803,-1.0254022,0.30441436,-0.41422844
213,289431341,0.9669185,-0.09866441,-0.17045972,0.16211018,-0.77338266,0.1849511,-0.5128546
214,289448008,0.9669846,-0.10002994,-0.16896342,0.16244607,0.10644995,-0.4668195,-0.05771923
215,289464675,0.9671419,-0.10083667,-0.16688995,0.16315286,0.76017505,-0.715966,0.4430542
216,289481342,0.967363,-0.100675605,-0.16485149,0.16401221,0.79041624,-0.789413,0.46045685
217,289498009,0.9675719,-0.1000277,-0.1630186,0.16500548,0.709818,-0.54277426,0.14658546
218,289514676,0.9677638,-0.09937115,-0.16124298,0.16601825,0.5882841,-0.22169858,0.106108665
219,289531343,0.96793574,-0.09870068,-0.15959921,0.16700071,0.48634967,-0.13492751,0.42381477
220,289548010,0.96810055,-0.09776586,-0.15810904,0.16801013,0.60992306,0.071141824,0.71260166
221,289564677,0.96829903,-0.09647232,-0.15661459,0.16901186,0.72106844,0.35405055,0.58443356
222,289581344,0.9685396,-0.0953131,-0.15502703,0.16975322,0.70249027,0.35297891,0.29610062
223,289598011,0.9687247,-0.09442532,-0.1536453,0.17044693,0.35731786,0.051593777,-0.062114716
224,289614678,0.96885026,-0.09352378,-0.15241961,0.17132875,-0.016841365,-0.37686083,-0.3576994
225,289631345,0.9689823,-0.0919421,-0.15133038,0.17240149,-0.31994694,-0.38067263,-0.43475628
226,289648012,0.9691172,-0.08993574,-0.15046433,0.17345627,-0.22522138,0.001070124,-0.32310295
227,289664679,0.96925545,-0.08803523,-0.14964607,0.17436294,-0.09212232,0.49260217,-0.056798935
228,289681346,0.9693918,-0.0866918,-0.14874482,0.17504874,-0.16202755,0.6741996,0.28719234
229,289698013,0.9695034,-0.08594963,-0.14767598,0.17570102,-0.1739912,0.55625063,0.52980995
230,289714680,0.96957535,-0.08555957,-0.14650851,0.17646985,-0.44876295,0.23419715,0.40333748
231,289731347,0.9696358,-0.08501237,-0.14529581,0.17740251,-0.5026078,-0.058711767,0.20397663
232,289748014,0.9697535,-0.08428556,-0.14394368,0.17820635,-0.37095708,0.041628953,0.17795944
233,289764681,0.9699058,-0.08363084,-0.14260495,0.17876129,-0.28135857,0.28118354,0.19225407
234,289781348,0.9700405,-0.08360175,-0.14141487,0.17899005,-0.11391595,0.29468092,0.047742844
235,289798015,0.970175,-0.08387748,-0.14027853,0.17902641,-0.06784948,0.057422824,-0.03172779
236,289814682,0.97031075,-0.0839402,-0.13924748,0.17906637,-0.16557929,-0.011639493,-0.077949524
237,289831349,0.97042495,-0.083561204,-0.13846073,0.17923483,-0.11966179,-0.03958487,-0.18338299
238,289848016,0.9705283,-0.08306541,-0.1378518,0.17937507,-0.08931723,0.065733425,-0.24257565
239,289864683,0.9706196,-0.082616076,-0.13736166,0.17946377,0.029665869,0.29662013,-0.16626072
240,289881350,0.97072375,-0.08241709,-0.13703366,0.17924301,0.14824496,0.4876479,-0.10156441
241,289898017,0.9708187,-0.082590595,-0.13684376,0.17879336,-0.014986209,0.48755646,-0.10916805
242,289914684,0.97086126,-0.083208166,-0.13679536,0.17831303,-0.11973712,0.21720932,-0.107450485
243,289931351,0.970867,-0.08401777,-0.13687524,0.17783988,-0.16659325,-0.07104387,-0.023902893
244,289948018,0.9708646,-0.08456159,-0.13706167,0.17745163,-0.082060434,-0.37927562,-0.015486717
245,289964685,0.9708893,-0.0845735,-0.13722728,0.17718315,0.04532474,-0.47117373,-0.015016556
246,289981352,0.97095305,-0.08410064,-0.1372551,0.17703666,0.12422492,-0.27029964,0.03726387
247,289998019,0.9710258,-0.08346687,-0.13731377,0.1768925,0.1291744,-0.1007597,0.048870087
248,290014686,0.97109836,-0.083066806,-0.13742413,0.17659596,0.05053695,0.045054402,-0.027434349
249,290031353,0.9711555,-0.08286176,-0.13758495,0.17625351,-0.05196006,0.075149305,-0.015387535
250,290048020,0.97118086,-0.08274284,-0.13784496,0.17596586,-0.016417697,-0.11747304,0.005866051
251,290064687,0.9712227,-0.082327984,-0.13806468,0.17575757,0.0945718,-0.05727497,0.12263584
252,290081354,0.9713025,-0.08156185,-0.13830197,0.1754872,0.20385678,0.13632357,0.06636047
253,290098021,0.97140175,-0.08083051,-0.13855554,0.17507645,0.1957921,0.18515746,0.12860298
254,290114688,0.9714918,-0.08034797,-0.13887203,0.17454697,0.14790322,0.15972896,0.12210655
255,290131355,0.9715632,-0.08003947,-0.13916902,0.17405425,0.12911059,0.19500293,0.0863266
256,290148022,0.9716018,-0.079742506,-0.13953988,0.1736772,0.12805973,0.18624915,0.0740881
257,290164689,0.9716247,-0.0794559,-0.1400015,0.17330965,0.117812,0.038629577,0.06878567
258,290181356,0.9716761,-0.07916368,-0.14048204,0.17276466,0.079957515,0.10282853,0.09716225
259,290198023,0.97173893,-0.07892291,-0.14104883,0.17205867,0.14315513,0.14451945,0.10780144
260,290214690,0.9718203,-0.07870828,-0.14149807,0.17132793,0.1881104,0.15714118,0.1737175
261,290231357,0.9719106,-0.07831556,-0.14185303,0.17070056,0.016747825,0.24615376,0.14769459
262,290248024,0.9719595,-0.077997625,-0.14234789,0.17015545,-0.13417438,0.29977435,0.015841484
263,290264691,0.9719705,-0.07792928,-0.14307116,0.1695156,-0.17637877,0.2991616,-0.1703968
264,290281358,0.9719371,-0.07822273,-0.14402041,0.16876753,-0.19575712,0.13067718,-0.23497581
265,290298025,0.97188765,-0.07884501,-0.14501564,0.16790758,-0.021665223,0.020195682,-0.17644024
266,290314692,0.97183526,-0.07965363,-0.14590341,0.1670576,0.012823944,0.12973458,0.09040928
267,290331359,0.971772,-0.08061102,-0.14673242,0.16623847,-0.03770172,0.16884466,0.44840622
268,290348026,0.9716916,-0.08176679,-0.147593,0.16537997,-0.0377871,-0.041189805,0.5502262
269,290364693,0.971623,-0.08304937,-0.14829187,0.16451672,-0.2907003,-0.11936061,0.72953606
270,290381360,0.97145784,-0.08483794,-0.14917803,0.16377704,-0.42531654,-0.3044537,0.21455288
271,290398027,0.9711249,-0.0867562,-0.15042228,0.16360942,-0.57047296,-0.71413416,-0.3121624
272,290414694,0.97063005,-0.08755232,-0.15225375,0.16442499,-0.73924434,-1.2511264,-0.18897915
273,290431361,0.96999866,-0.08677181,-0.1545283,0.16643092,-0.7034247,-1.8950515,-0.16252804
274,290448028,0.9692918,-0.086666085,-0.15645097,0.16879112,-0.88853985,-2.9807901,-0.18846989
275,290464695,0.9686244,-0.08594217,-0.1584391,0.17112237,-1.6837772,-1.4603281,0.64812565
276,290481362,0.96789944,-0.08310229,-0.16146776,0.17377545,-1.3771051,0.33209398,0.39753056
277,290498029,0.9670525,-0.08002376,-0.16555288,0.17607649,-1.5726628,0.06322355,-0.11623955
278,290514696,0.9660512,-0.077602856,-0.17111655,0.17733312,-3.4546194,0.6500601,-0.04424572
279,290531363,0.96496314,-0.075692855,-0.17712584,0.17818037,-3.6450286,0.8694232,-0.008019447
280,290548030,0.96391267,-0.07292051,-0.1832156,0.17886353,-1.6122178,2.063482,-0.018047333
281,290564697,0.96297014,-0.07095635,-0.18912692,0.1785771,0.60328615,2.1669035,0.15855789
282,290581364,0.9619847,-0.07056797,-0.19561715,0.17704515,0.76546293,0.43876845,0.3405409
283,290598031,0.9609035,-0.07037768,-0.20265663,0.17506269,0.25926965,-0.42410415,0.4838848
284,290614698,0.9595365,-0.07037628,-0.21078742,0.1729477,-0.01263854,0.16295347,0.5078354
285,290631365,0.957917,-0.070942014,-0.21975318,0.17051773,0.4925233,-0.039407514,0.38101578
286,290648032,0.9560668,-0.07212809,-0.22924164,0.16789143,0.66673535,-0.32620475,0.16092014
287,290664699,0.9538853,-0.074131966,-0.23927724,0.16540603,0.8491724,-0.60474604,0.29375648
288,290681366,0.9513947,-0.077943884,-0.2501631,0.16185404,0.38482538,-0.11732927,-0.16584587
289,290698033,0.9485392,-0.08337765,-0.26206928,0.15699252,0.25885236,-0.7784579,-0.022704124
290,290714700,0.94534373,-0.08618426,-0.27423012,0.1539507,1.9239966,-1.0767882,1.3020172
291,290731367,0.94224143,-0.0857253,-0.2853507,0.15301213,2.5031404,0.4625121,1.3967867
292,290748034,0.9392921,-0.08386673,-0.2960641,0.15181707,1.0953728,0.70034957,0.59011173
293,290764701,0.9361501,-0.08211771,-0.30707908,0.15029238,0.3146506,0.9031061,-0.012746811
294,290781368,0.9328763,-0.08061292,-0.31814402,0.1484375,0.29008695,1.1763301,-0.18574524
295,290798035,0.9294913,-0.07960284,-0.32930925,0.14584407,0.3821077,0.8308273,-0.17580986
296,290814702,0.9259719,-0.0790494,-0.34048256,0.1428442,0.5642837,0.17855813,-0.019378662
297,290831369,0.92230093,-0.07859178,-0.35154185,0.14002964,0.6034284,-0.2393573,0.11047554
298,290848036,0.9185199,-0.07795333,-0.36238816,0.13756853,0.6038641,-0.4767686,0.18355274
299,290864703,0.9146422,-0.077098615,-0.37310538,0.13521728,0.2995353,-0.4277786,0.012998581
300,290881370,0.91064215,-0.07632924,-0.38381794,0.13264327,0.07496535,-0.11708531,-0.26761913
301,290898037,0.90652114,-0.07582676,-0.394467,0.12989007,-0.02488705,-0.07176666,-0.24106312
302,290914704,0.90233475,-0.07580884,-0.4049281,0.12682274,0.17838748,0.004278765,-0.19884396
303,290931371,0.8981729,-0.07589812,-0.41500926,0.12368531,0.29034513,-0.24944074,0.084508896
304,290948038,0.8939694,-0.07576971,-0.42485714,0.12074655,0.53373307,-0.35207614,0.057523727
305,290964705,0.8897559,-0.07459538,-0.43444932,0.11844635,0.8873254,-0.20869511,0.00437355
306,290981372,0.88556457,-0.072719865,-0.44374537,0.11654571,0.8960594,-0.10982231,0.06337643
307,290998039,0.88126606,-0.07093095,-0.4530036,0.11459692,0.6109168,-0.09739756,0.22158909
308,291014706,0.87681633,-0.06926223,-0.46223354,0.11288053,0.67864925,0.23308778,0.29252148
309,291031373,0.8723799,-0.067658186,-0.47118646,0.111196645,0.7652364,0.72518206,0.110173225
310,291048040,0.8678659,-0.066497415,-0.4800706,0.10920063,0.5336506,0.72562015,-0.07710743
311,291064707,0.8631568,-0.066064164,-0.4890009,0.107143104,0.26336354,0.4387109,-0.19607353
312,291081374,0.8583863,-0.06575443,-0.49780726,0.105086006,0.2662768,0.482519,-0.13586235
313,291098041,0.85366595,-0.065446004,-0.5063422,0.10293026,0.34247193,0.524461,0.001046181
314,291114708,0.8489525,-0.06483274,-0.5146909,0.10087422,0.16681309,0.8567033,0.13323212
315,291131375,0.84437835,-0.06382391,-0.5226565,0.09893359,-0.09464298,0.91295063,0.24545765
316,291148042,0.8398522,-0.06325669,-0.53044546,0.096334204,-0.030982472,0.9558384,-0.04612446
317,291164709,0.8350492,-0.06314063,-0.5385317,0.093249634,0.02114656,0.55150414,-0.13846588
318,291181376,0.83019507,-0.063037835,-0.54648244,0.09036061,-0.07809632,0.054505225,-0.041646004
319,291198043,0.8254218,-0.06274865,-0.55412006,0.08773774,0.11734699,-0.40811643,0.019633293
320,291214710,0.8206782,-0.061979257,-0.56154674,0.08553789,0.25524732,-0.86317253,0.21169567
321,291231377,0.81589776,-0.059903245,-0.5688738,0.08432626,0.307793,-0.9612788,0.23846626
322,291248044,0.81126624,-0.05654757,-0.57587224,0.08382293,0.3161537,-0.13384369,0.027733803
323,291264711,0.806691,-0.05299085,-0.5826154,0.083705485,0.26095092,0.2319345,-0.23388481
324,291281378,0.8016763,-0.05059595,-0.5897396,0.08347575,-0.28792983,-0.03509405,-0.2061758
325,291298045,0.79601055,-0.047853716,-0.5975195,0.08398462,-0.0665407,0.31512707,-0.21023655
326,291314712,0.79012066,-0.04381348,-0.6054349,0.085111916,0.48595828,0.3956979,-0.24483013
327,291331379,0.78437483,-0.038839974,-0.6129594,0.08679857,1.1041795,0.40748495,-0.008890152
328,291348046,0.77854246,-0.033767063,-0.6203764,0.08871459,1.0030967,-0.093161315,0.2042551
329,291364713,0.7725901,-0.028401352,-0.62762874,0.09157486,0.28082213,-0.52624094,0.22750092
330,291381380,0.7662019,-0.023832455,-0.6351676,0.0945227,-1.0799203,-1.0066509,0.61691856
331,291398047,0.75920993,-0.02164728,-0.64333946,0.09618693,0.070748106,-1.1218063,-0.017698288
332,291414714,0.7525213,-0.019085627,-0.650889,0.09847093,0.6267308,-0.5274089,-0.43692207
333,291431381,0.74677175,-0.015514808,-0.6571343,0.101347536,0.20220904,0.2131777,0.040940285
334,291448048,0.7417569,-0.012614565,-0.6625702,0.10316996,-0.22343652,0.64862555,0.54333305
335,291464715,0.7372406,-0.011318324,-0.6676167,0.103159264,-1.0555372,0.25573862,0.59914017
336,291481382,0.7330829,-0.011832821,-0.6724073,0.10160487,-1.5634016,-0.4297364,0.25058842
337,291498049,0.7289596,-0.012937428,-0.67707837,0.10010537,-1.6748452,-0.76499116,0.12359905
338,291514716,0.72455376,-0.013723739,-0.6817966,0.099962965,-0.56151414,-0.7196531,0.45592785
339,291531383,0.720446,-0.013693071,-0.6860574,0.10050395,-0.46490383,-0.3365175,0.36886978
340,291548050,0.7167013,-0.013666389,-0.6899469,0.100655004,-0.095256306,0.2933033,0.31519318
341,291564717,0.7133951,-0.014047412,-0.69345653,0.099969506,0.17732489,0.4549479,0.32073402
342,291581384,0.71042764,-0.014473088,-0.6965838,0.099296674,0.29460573,0.29504734,0.503108
343,291598051,0.7076989,-0.014583089,-0.6994094,0.0989027,0.7674514,0.49485478,0.29865646
344,291614718,0.70500755,-0.014793702,-0.70219195,0.098376326,1.1585262,0.3817859,0.25430012
345,291631385,0.7024949,-0.015002151,-0.7047755,0.09784216,1.2793154,0.14922899,0.23579979
346,291648052,0.70031506,-0.015471708,-0.7069969,0.09736838,0.97365505,-0.012558383,0.3158493
347,291664719,0.6981831,-0.01634737,-0.7091905,0.096580274,0.73270184,0.06022772,0.415987
348,291681386,0.6962822,-0.017155161,-0.7111819,0.09551286,0.83111995,0.02676069,0.4190855
349,291698053,0.69454217,-0.017493524,-0.7129956,0.094596,0.60669106,0.11553726,0.2113285
350,291714720,0.6931928,-0.017631363,-0.7143723,0.09408029,0.30534193,0.17158575,0.054930687
351,291731387,0.69227344,-0.018027341,-0.7153251,0.09353225,-0.43426242,0.11084319,0.20655537
352,291748054,0.69172883,-0.01942131,-0.71598077,0.092257306,-1.2031466,-0.10627846,0.5198908
353,291764721,0.69133145,-0.021097768,-0.7165445,0.090472065,-1.1146381,-0.01947738,0.29097843
354,291781388,0.6911833,-0.02166793,-0.7167924,0.08950111,-0.6658263,-0.45195177,0.002225876
355,291798055,0.6916783,-0.02144087,-0.71629953,0.08967789,-0.5110172,-0.5580138,0.121977806
356,291814722,0.6924299,-0.020789538,-0.7154911,0.090481095,-0.5393077,-0.47245413,0.073498726
357,291831389,0.69290495,-0.020135453,-0.71491593,0.09153257,-0.25217268,1.02E-04,0.40662003
358,291848056,0.69305813,-0.019304873,-0.7146158,0.09288628,0.5232237,0.50999564,0.2874565
359,291864723,0.6931664,-0.018563552,-0.714388,0.09397534,1.0305499,0.6675849,0.3070717
360,291881390,0.69324434,-0.017935662,-0.71423715,0.09466555,1.3902712,0.5588281,0.197505
361,291898057,0.6935132,-0.017534457,-0.7139255,0.09512232,1.1718583,0.23021692,0.32526493
362,291914724,0.69371074,-0.017293751,-0.7136796,0.09557061,1.0027927,0.23738602,0.1298685
363,291931391,0.6939868,-0.017529713,-0.71339715,0.09563133,0.75958866,0.15164658,0.2280426
364,291948058,0.6941651,-0.018041402,-0.71326303,0.09524173,0.59142065,0.18108985,0.21077728
365,291964725,0.69438535,-0.018723672,-0.71314704,0.094369195,0.37325993,0.15967692,0.20061016
366,291981392,0.69470525,-0.019330554,-0.7129527,0.09335564,0.20584425,0.19035038,0.21793175
367,291998059,0.69529754,-0.019997366,-0.7125034,0.09222859,0.08903549,0.029988335,0.29553318
368,292014726,0.6961509,-0.020514013,-0.71178323,0.091233045,-0.29359007,-0.22622195,0.2545929
369,292031393,0.6970016,-0.020829618,-0.7110074,0.0907158,-0.4328668,-0.39185765,0.21918964
370,292048060,0.6976974,-0.02059602,-0.7102937,0.091009766,-0.41540197,-0.38681498,0.19159889
371,292064727,0.6982887,-0.019557243,-0.7095967,0.09213382,-0.06398819,-0.21357246,0.0934248
372,292081394,0.69906783,-0.01808085,-0.7086448,0.093838505,0.051788844,-0.006675815,0.13912582
373,292098061,0.6999507,-0.016746016,-0.7075963,0.09540496,9.07E-04,0.094351985,0.24026203
374,292114728,0.70079774,-0.01573354,-0.70663565,0.09647184,-0.087718554,0.0769499,0.2808962
375,292131395,0.70182693,-0.014780435,-0.7055258,0.0972603,-0.13787262,-0.025558084,0.14512539
376,292148062,0.7030804,-0.01383173,-0.7041758,0.09812688,-0.2631664,0.054432407,0.19648552
377,292164729,0.70454437,-0.012900072,-0.70260185,0.09903096,-0.15570359,0.1181009,0.2834797
378,292181396,0.7062574,-0.012129836,-0.7008187,0.099559635,-0.12768044,-0.001721497,0.27180672
379,292198063,0.7080106,-0.011258865,-0.69899064,0.10006012,-0.1939185,0.09906173,0.1543312
380,292214730,0.709816,-0.010701301,-0.6971216,0.10036884,0.003111747,0.15291506,0.23759651
381,292231397,0.7114678,-0.010543957,-0.6954121,0.10054903,0.4180953,0.48477948,0.22137928
382,292248064,0.712987,-0.010506094,-0.69381475,0.10082724,0.8459058,0.65985984,0.17710686
383,292264731,0.7146767,-0.010893884,-0.6921037,0.10058238,0.99009174,0.22082052,0.13142586
384,292281398,0.71635485,-0.011346051,-0.69041497,0.10019992,0.65844995,-0.10284802,0.21672726
385,292298065,0.7179493,-0.011692109,-0.6888137,0.09976734,0.52822953,-0.05699044,0.25447655
386,292314732,0.7195459,-0.011827614,-0.6871933,0.099423155,0.4170497,0.037448067,0.25950432
387,292331399,0.72121596,-0.011963229,-0.68546665,0.09922604,0.58854717,0.20844567,0.14658737
388,292348066,0.7227579,-0.012383704,-0.6838818,0.09888951,0.8782164,0.16904171,0.18658924
389,292364733,0.72424155,-0.012829324,-0.6823899,0.09828247,0.87941974,0.4243338,0.119992256
390,292381400,0.7260232,-0.013357334,-0.6805886,0.09755387,0.6665152,0.5739373,0.20710373
391,292398067,0.72827965,-0.014401666,-0.67835426,0.09613953,0.21136414,0.6702916,0.3492279
392,292414734,0.73084164,-0.016205506,-0.67587876,0.09381648,-0.046212196,0.3540837,0.38169956
393,292431401,0.73324007,-0.018607134,-0.67357314,0.09120159,-0.04815229,-0.19689763,0.24523354
394,292448068,0.73563355,-0.0206722,-0.671144,0.08937361,-0.04638877,-0.34199673,-0.029810905
395,292464735,0.73774785,-0.022152372,-0.6688801,0.0885592,0.020861357,0.06249823,0.027469635
396,292481402,0.7399014,-0.023142084,-0.66649354,0.088332504,-0.24132963,0.4433304,0.31903362
397,292498069,0.74225885,-0.024501234,-0.66392326,0.08753919,-0.35078794,0.36101255,0.27705956
398,292514736,0.74480104,-0.026128737,-0.66116107,0.086373955,-0.40377036,-0.08375285,0.22152328
399,292531403,0.74752843,-0.0274245,-0.65810966,0.08571176,-0.271199,-0.4321484,0.12686062
400,292548070,0.7501624,-0.028337905,-0.65505433,0.08580735,-0.3243638,-0.55524576,0.11956215
401,292564737,0.75249755,-0.029069541,-0.6523078,0.08603844,-0.43420208,-0.3709814,0.19431591
402,292581404,0.7549701,-0.02907474,-0.649391,0.086441055,-0.74418324,-0.13253663,0.19602871
403,292598071,0.75817543,-0.0288327,-0.64562726,0.086659595,-1.2631267,-0.023103137,0.48623562
404,292614738,0.7612286,-0.030174328,-0.6420728,0.0858431,-1.7282996,-0.4646993,0.8710966
405,292631405,0.7632408,-0.03249629,-0.6397414,0.0845223,0.13858339,-0.3773985,0.03719139
406,292648072,0.76508474,-0.032306466,-0.6373972,0.085627146,0.9157111,-0.35897166,-0.6568041
407,292664739,0.767439,-0.03160553,-0.6343201,0.087647006,1.0619646,-0.048250705,-0.0446949
408,292681406,0.7708032,-0.031432327,-0.63010275,0.08860384,0.52818525,0.2908207,0.63795185
409,292698073,0.77550274,-0.03210192,-0.6243663,0.08796349,-0.9530959,-0.02843191,0.9701328
410,292714740,0.7797929,-0.034512088,-0.6190362,0.08678725,-1.1514914,-0.7447348,0.8115082
411,292731407,0.78180677,-0.037259467,-0.61648875,0.08565616,-0.31204823,-1.3547217,-0.7515249
412,292748074,0.7825297,-0.03651139,-0.6152823,0.08802075,0.8622906,-0.20510818,-0.8321152
413,292764741,0.7838082,-0.034139045,-0.61321837,0.091914214,2.3194141,1.3476806,0.24546528
414,292781408,0.7861976,-0.033536162,-0.60998845,0.0932123,1.6435181,1.833992,0.56377697
415,292798075,0.7892367,-0.035590753,-0.606149,0.09180318,0.5225728,0.62566495,0.37492466
416,292814742,0.7923125,-0.038382806,-0.60227555,0.08965285,-0.7094842,-1.2598494,0.4107027
417,292831409,0.79493296,-0.039260115,-0.59878045,0.089488044,-1.314257,-2.1740742,0.452981
418,292848076,0.7975744,-0.037035014,-0.5950357,0.091878764,-1.1546693,-1.5007105,0.16717815
419,292864743,0.7998888,-0.034827527,-0.5915931,0.09480602,-0.35868958,-0.43423378,-0.18595123
420,292881410,0.8021595,-0.034762047,-0.5882357,0.09652045,-0.050347187,0.2078743,-0.059235573
421,292898077,0.8044519,-0.03669539,-0.58494496,0.096725725,-0.051979724,0.4070207,0.043265343
422,292914744,0.80727774,-0.039375484,-0.5809458,0.09622876,-0.44790834,-0.5529114,0.28919506
423,292931411,0.8105162,-0.04141533,-0.5763044,0.096058704,-1.5960908,-0.9227566,0.5801611
424,292948078,0.81298894,-0.043519054,-0.5726614,0.096020125,-1.3280957,-0.38368747,-0.049137115
425,292964745,0.81499004,-0.04423362,-0.5695256,0.097368866,-0.042996295,1.050365,-0.53161526
426,292981412,0.81727463,-0.046230726,-0.56601363,0.09776967,0.34948665,0.509069,0.010714531
427,292998079,0.8196079,-0.04950318,-0.5624248,0.097346984,-0.53293043,-0.8493271,0.51515675
428,293014746,0.8218311,-0.052594613,-0.55880284,0.09783864,-0.34282684,-1.9719663,0.5314121
429,293031413,0.82434624,-0.052367564,-0.55459577,0.10069957,-0.66224205,-1.8196261,0.4204054
430,293048080,0.8268567,-0.04907717,-0.55029494,0.10526493,0.12121331,-0.3951911,-0.30814552
431,293064747,0.82950616,-0.04494672,-0.5456908,0.11012152,0.91048986,1.2722698,-0.4298563
432,293081414,0.83226293,-0.04328544,-0.5410006,0.11308816,0.6619752,1.1392685,0.012638092
433,293098081,0.8345477,-0.04504384,-0.5370924,0.11418669,-0.18358639,-0.2839735,0.17700863
434,293114748,0.83639896,-0.047098033,-0.533611,0.116118684,0.12926649,-1.520383,-0.20085335
435,293131415,0.83871263,-0.04594397,-0.52925533,0.11976975,0.19012414,-1.629138,0.58509064
436,293148082,0.8414397,-0.041679937,-0.52408004,0.124851696,-0.39888927,-0.4124102,0.917861
437,293164749,0.8441125,-0.03721447,-0.51893556,0.12961826,-0.5582236,0.7821073,0.6602144
438,293181416,0.8465775,-0.03595237,-0.5142064,0.13270926,-1.0279287,0.35422298,-0.5034456
439,293198083,0.848833,-0.036692485,-0.5096267,0.13573033,-0.5289383,0.54802215,-1.4912634
440,293214750,0.8514113,-0.03627842,-0.5044541,0.13897659,-0.67435735,-0.19969352,-0.46301556
441,293231417,0.8545482,-0.033528753,-0.49820986,0.14288393,-0.38632694,0.48847684,0.72238827
442,293248084,0.8582506,-0.030354405,-0.49109033,0.14601596,-0.61115146,0.3375844,0.932333
443,293264751,0.8621302,-0.028377408,-0.48354134,0.14872661,-0.82132185,-0.094962664,-0.5595131
444,293281418,0.865424,-0.02878158,-0.47682244,0.15119216,-0.5613975,-1.2658583,-1.0738211
445,293298085,0.86909527,-0.027696477,-0.46879187,0.15539072,-0.53251445,0.122754045,-0.67891026
446,293314752,0.8731845,-0.024844404,-0.45963004,0.16024248,0.35500383,2.4141479,0.5044794
447,293331419,0.8776846,-0.023663936,-0.4501184,0.16281591,1.4601994,2.0730312,0.30486012
448,293348086,0.88239646,-0.02479635,-0.44018838,0.16432224,1.5444689,-0.2256456,-0.5356121
449,293364753,0.8865947,-0.026515692,-0.43056327,0.1669373,0.2263585,-3.7563405,-0.2963667
450,293381420,0.89007807,-0.025086332,-0.4213757,0.1719887,0.42232817,-3.3312628,-0.08982754
451,293398087,0.8939066,-0.019923093,-0.41062522,0.17868115,1.296176,1.6227186,0.22497082
452,293414754,0.89861345,-0.015547052,-0.39803964,0.18390954,2.3550308,3.9298427,0.22476482
453,293431421,0.9035496,-0.014783373,-0.38522282,0.18705335,0.8402158,2.6126132,-0.084303856
454,293448088,0.90790784,-0.017005902,-0.37406084,0.18841071,0.2928878,-0.9071655,-0.22120571
455,293464755,0.911677,-0.018388862,-0.36328492,0.19114634,0.19089481,-1.8042728,-0.14023876
456,293481422,0.9152724,-0.017622402,-0.35173154,0.19559318,0.6435461,1.2153779,-0.27226353
457,293498089,0.9192791,-0.016820928,-0.33920792,0.1989648,1.6504308,4.657879,0.13095379
458,293514756,0.92337096,-0.018964553,-0.32728976,0.19978483,1.9279302,3.531098,0.5375862
459,293531423,0.92703915,-0.02278394,-0.3167072,0.19945389,1.4095938,-0.7313348,1.2426796
460,293548090,0.9304689,-0.02531086,-0.30553433,0.2006036,1.1479675,-1.8149755,0.13537407
461,293564757,0.93358713,-0.025565159,-0.29357904,0.20390941,0.19600767,0.0927164,-0.018914223
462,293581424,0.93671024,-0.025421396,-0.28150916,0.20660587,1.152735,2.7201157,0.38358212
463,293598091,0.94006664,-0.026902458,-0.26977974,0.20682262,1.7054152,1.2451832,0.81056213
464,293614758,0.94318753,-0.028571274,-0.25864655,0.20661247,0.06756819,-0.9635676,0.49738216
465,293631425,0.9459118,-0.029611286,-0.2480658,0.20698628,-0.70888484,-1.7144811,0.089756966
466,293648092,0.94831663,-0.029621137,-0.2378368,0.2079848,-1.5614593,0.29298714,-0.12270355
467,293664759,0.95048046,-0.031025685,-0.22858222,0.20827979,-0.8940059,1.4210329,0.07889366
468,293681426,0.9526444,-0.034020837,-0.21997906,0.2071867,-0.71250767,1.1707156,-0.022249222
469,293698093,0.9546561,-0.037809476,-0.21181433,0.20577349,-0.7792987,0.63075894,0.110681534
470,293714760,0.95634,-0.0418489,-0.20425087,0.2048173,-0.4161364,-0.013661447,0.38261795
471,293731427,0.9576471,-0.046361517,-0.19818565,0.20369372,0.05052175,-0.2978092,0.8406887
472,293748094,0.9585521,-0.051579215,-0.19425018,0.20196609,0.34858567,-1.1461986,0.7434559
473,293764761,0.9591817,-0.05505679,-0.19145197,0.20072629,0.6362437,-1.9379946,0.9425049
474,293781428,0.9596644,-0.056206245,-0.18903832,0.2003891,0.7556421,-1.2729778,0.6714525
475,293798095,0.96004385,-0.05606281,-0.18701087,0.2005135,0.53042644,-0.63527924,0.38619614
476,293814762,0.96030265,-0.05592248,-0.18558928,0.20063417,0.0667489,-0.18386064,0.07277107
477,293831429,0.9604617,-0.056066174,-0.18439846,0.20093086,0.07278353,-0.3050781,0.150424
478,293848096,0.9605353,-0.05583219,-0.18311623,0.20181441,-0.096503615,-0.613764,-0.041083336
479,293864763,0.9605818,-0.05505251,-0.18143383,0.2033217,-0.61307704,-0.40885955,-0.24882126
480,293881430,0.96057945,-0.054147396,-0.1796557,0.20514637,-0.728833,-0.038051404,-0.42249107
481,293898097,0.9606164,-0.05343859,-0.17785916,0.20671839,-0.70766526,0.32602364,-0.3532219
482,293914764,0.9607511,-0.052954644,-0.1761074,0.20771433,-0.79370046,0.47900242,-0.24769783
483,293931431,0.96097296,-0.05299403,-0.17421928,0.2082696,-0.73445004,0.6109854,0.024638176
484,293948098,0.96121806,-0.05360636,-0.17217061,0.20868549,-0.45010066,0.74797446,0.18589306
485,293964765,0.9614096,-0.054440178,-0.17021641,0.20918947,-0.13024446,0.7643435,0.12986374
486,293981432,0.9615864,-0.055255543,-0.16843,0.20960826,0.14319213,0.5933364,-0.06517887
487,293998099,0.96177125,-0.05602496,-0.1668739,0.20980018,0.15827768,0.2644625,-0.17501926
488,294014766,0.96197313,-0.056791812,-0.16543487,0.2098086,-0.019894889,0.16774222,0.001889229
489,294031433,0.96221644,-0.05775911,-0.16400984,0.20954758,0.007803843,0.30326742,0.37160778
490,294048100,0.9624475,-0.059107747,-0.16281202,0.2090432,0.19081882,0.11171988,0.4198885
491,294064767,0.9626238,-0.06050456,-0.1618349,0.20859155,0.2532745,-0.29986817,0.28495502
492,294081434,0.9627637,-0.06131662,-0.16093071,0.20840661,0.34555596,-0.47615233,0.16567326
493,294098101,0.9628848,-0.06128094,-0.16024569,0.20838585,0.3357567,-0.5334942,-0.015413284
494,294114768,0.96299386,-0.060849175,-0.15968663,0.20843759,0.2289089,-0.48295835,-0.008901596
495,294131435,0.96312475,-0.0601729,-0.15900506,0.2085499,0.07347273,-0.24102531,0.2538185
496,294148102,0.96321934,-0.059588723,-0.15839876,0.20874265,0.024594247,-0.234738,0.26398468
497,294164769,0.96327144,-0.05907139,-0.15781148,0.20909387,-0.07142815,-0.24415489,0.046401978
498,294181436,0.963306,-0.058418784,-0.15715636,0.2096104,-0.31770188,-0.18955587,-0.10683727
499,294198103,0.96330875,-0.057828635,-0.15668783,0.21011147,-0.47848335,0.04358888,-0.1200676
500,294214770,0.96332866,-0.05763468,-0.15635544,0.2103215,-0.34218314,0.18998168,-0.06548214
501,294231437,0.96336776,-0.0576963,-0.1559197,0.21044922,-0.26909205,0.07834506,0.035777092
502,294248104,0.9633883,-0.057816513,-0.15541634,0.21069382,-0.2231407,-0.15600824,0.024920464
503,294264771,0.9633928,-0.057644956,-0.15480752,0.2111682,-0.14559399,-0.20320457,0.095098495
504,294281438,0.963422,-0.056926742,-0.15411127,0.21173823,-0.019991335,-0.11548043,0.15849209
505,294298105,0.963483,-0.05600151,-0.15350027,0.21215133,0.026455551,0.112772286,0.17696571
506,294314772,0.96359783,-0.05540453,-0.15299349,0.21215166,0.14987248,0.42570117,0.21823311
507,294331439,0.96374416,-0.055257805,-0.15263852,0.21178123,0.27546665,0.44985995,0.07967472
508,294348106,0.96386766,-0.055301074,-0.1522848,0.21146193,0.23098756,0.17103767,-0.027377129
509,294364773,0.96394795,-0.055396374,-0.1518575,0.21137825,0.24451591,0.08331236,-0.018782616
510,294381440,0.9640005,-0.055393323,-0.15147467,0.21141432,0.27886325,0.086938076,0.11645985
511,294398107,0.96408325,-0.055327106,-0.15112658,0.21130282,0.3721685,0.17969601,0.13153172
512,294414774,0.9642047,-0.055268086,-0.15070185,0.2110675,0.3003907,0.14470877,0.081926346
513,294431441,0.9643052,-0.055229142,-0.15032978,0.21088396,0.14312518,-0.12967473,-0.011014938
514,294448108,0.9643887,-0.055043228,-0.14995761,0.21081573,0.030337078,-0.14600392,0.077510834
515,294464775,0.96447325,-0.05454277,-0.14956564,0.21083765,-0.004284408,-0.005029321,0.14779568
516,294481442,0.96459514,-0.054063864,-0.14921099,0.21065389,-0.001650308,0.2453607,0.2622366
517,294498109,0.9647661,-0.05386945,-0.14894463,0.21010907,-0.034084048,0.4077381,0.09496784
518,294514776,0.9649455,-0.05408545,-0.14870282,0.20940006,-0.13623337,0.31162792,-0.018708229
519,294531443,0.96508384,-0.054535877,-0.14851642,0.20877694,-0.16828448,0.04756652,-0.07243061
520,294548110,0.96517694,-0.05496282,-0.14841056,0.20830959,-0.07395843,-0.1143356,-6.60E-04
521,294564777,0.9652659,-0.055044517,-0.14826457,0.20797911,-0.004096657,-0.106534824,0.043628693
522,294581444,0.96539193,-0.054787297,-0.14803277,0.2076273,-0.09156253,0.027183646,0.05704403
523,294598111,0.96553975,-0.054605138,-0.14783221,0.20712972,-0.21750762,0.1795381,0.10786915
524,294614778,0.96569186,-0.054727457,-0.147708,0.20647554,-0.2247159,0.2920855,0.15532112
525,294631445,0.96582794,-0.055154234,-0.14783856,0.2056309,-0.2608479,0.266037,0.07026291
526,294648112,0.96592146,-0.056065414,-0.14820518,0.20467956,-0.19943324,-0.114088,-0.17324162
527,294664779,0.9659419,-0.057045437,-0.14856486,0.20405002,-0.24514063,-0.4573272,-0.14613056
528,294681446,0.9659018,-0.057666887,-0.1489339,0.20379622,-0.20301726,-0.49684745,0.046369553
529,294698113,0.9658696,-0.05797436,-0.14915797,0.20369788,-0.021319335,-0.34002003,0.2686119
530,294714780,0.96584564,-0.058213703,-0.14936121,0.20359424,0.018391987,-0.20233499,0.33703136
531,294731447,0.965763,-0.058829483,-0.14990656,0.20340756,-0.11569444,-0.34650192,0.01570034
532,294748114,0.96561646,-0.05977351,-0.15048368,0.20340317,-0.096177176,-0.57890654,-0.22041988
533,294764781,0.9654141,-0.06005977,-0.15098156,0.20390931,0.07657632,-0.7093711,-0.23608685
534,294781448,0.9651581,-0.060067847,-0.15156683,0.20468307,0.10456987,-1.2382618,-0.11502361
535,294798115,0.964928,-0.05975584,-0.15194465,0.20557709,-0.30925208,-1.200404,0.38022614
536,294814782,0.96464825,-0.059183847,-0.15237303,0.20673548,-0.38142484,-0.69196945,0.43668365
537,294831449,0.9641988,-0.05924853,-0.15335725,0.20808093,0.021884264,-0.98344785,0.13709259
538,294848116,0.96365803,-0.059551768,-0.15440664,0.20971741,0.28663903,-1.6807034,-0.09311962
539,294864783,0.96303344,-0.058943786,-0.15499516,0.21230811,0.015758893,-2.2607033,-0.1698227
540,294881450,0.9623309,-0.056495294,-0.15500684,0.21611638,-0.10314833,-2.190589,0.11215973
541,294898117,0.9616353,-0.05224997,-0.15451658,0.22058566,0.061841678,-1.0274473,0.38201046
542,294914784,0.96098244,-0.047111996,-0.15371366,0.22510286,0.13181286,0.44684392,0.09642506
543,294931451,0.9602992,-0.042548135,-0.15298158,0.22938517,-0.11661286,1.06039,-0.1854744
544,294948118,0.959472,-0.038290255,-0.1531095,0.23347482,-0.42045492,0.9907177,-0.084189415
545,294964785,0.9586116,-0.034572493,-0.15362243,0.23722251,-0.30466202,1.0242873,-0.38568783
546,294981452,0.9578164,-0.031673584,-0.15395519,0.2405997,-0.2621437,1.294545,-0.24228191
547,294998119,0.9570811,-0.02989569,-0.15446606,0.24340971,-0.4920518,1.4628202,-0.23326969
548,295014786,0.9563898,-0.02900776,-0.15525682,0.24571986,-0.5743067,1.460971,-0.21303082
549,295031453,0.95578295,-0.02904277,-0.15636173,0.24737084,-0.133551,1.3075557,0.08614731
550,295048120,0.95530576,-0.029505212,-0.15763988,0.24834618,0.15374641,1.0451816,0.12720108
551,295064787,0.95491713,-0.029468765,-0.1587545,0.24913447,0.1286744,0.83654493,0.09423351
552,295081454,0.9545647,-0.028598726,-0.15988815,0.24986005,0.3693716,0.6475304,0.28121853
553,295098121,0.9542776,-0.027369441,-0.16138133,0.2501349,0.47251263,0.6681759,0.5319271
554,295114788,0.95402676,-0.026086746,-0.16315834,0.25007516,0.6641569,1.3320361,0.2076273
555,295131455,0.953874,-0.025537444,-0.16483043,0.24961776,0.9372684,1.0783457,0.04573536
556,295148122,0.95369446,-0.02541713,-0.16666077,0.24910055,0.8062165,-0.015126435,0.33823013
557,295164789,0.95333964,-0.024542995,-0.16894563,0.24900708,0.65997475,-0.58170235,0.6158371
558,295181456,0.9526596,-0.023470964,-0.17304124,0.24890053,0.77107096,-1.0092798,0.68510056
559,295198123,0.95190716,-0.022095056,-0.17715654,0.24901018,0.8581486,-0.779175,0.43847942
560,295214790,0.9512322,-0.019574044,-0.18055117,0.24936189,0.012977721,-0.34675008,-0.21641254
561,295231457,0.9504332,-0.01656527,-0.18436733,0.24983393,-1.6046517,-0.18201827,0.055351257
562,295248124,0.94941294,-0.014876262,-0.19016933,0.24946986,-2.7511723,0.86939085,0.44387245
563,295264791,0.9484264,-0.013281751,-0.19592194,0.24886023,-2.725876,0.83225375,0.020104408
564,295281458,0.9474855,-0.012101817,-0.20144519,0.24809368,-2.5059178,1.2452219,-0.32934856
565,295298125,0.946538,-0.011927062,-0.20759985,0.24664111,-2.1372378,1.5782104,0.124180794
566,295314792,0.94556403,-0.013444309,-0.2151683,0.2437962,-0.93517643,1.4935377,0.18023682
567,295331459,0.94451386,-0.015659902,-0.22360645,0.24011339,-0.1738457,-0.015034306,0.40152264
568,295348126,0.9432005,-0.016838843,-0.23215602,0.23706315,0.11142277,-1.1075983,0.58826256
569,295364793,0.9415512,-0.017371658,-0.2409055,0.23484045,0.43856394,-1.141113,0.26058102
570,295381460,0.9395669,-0.017736858,-0.25045934,0.2327561,0.84152585,-1.1847008,0.18146706
571,295398127,0.9373616,-0.01802269,-0.26058635,0.23049785,0.7868331,-0.87045836,0.3776121
572,295414794,0.9351015,-0.017806418,-0.27050626,0.22825548,0.6571386,-0.8796225,0.30924702
573,295431461,0.9325246,-0.016582305,-0.28020504,0.22718751,-0.24855758,-0.06936677,-0.049196243
574,295448128,0.9296792,-0.015330955,-0.29035574,0.22618853,0.02664252,0.56966746,0.11801052
575,295464795,0.92664564,-0.014514944,-0.30144647,0.22417206,0.6184903,0.945564,0.4629345
576,295481462,0.9235837,-0.013374861,-0.31233126,0.2219673,0.86367506,0.834277,0.6723776
577,295498129,0.9205185,-0.011835135,-0.32241088,0.22036977,0.8299901,0.77344227,0.33896446
578,295514796,0.9174413,-0.010255983,-0.3321716,0.21877939,0.47032222,0.76175034,-0.06422615
579,295531463,0.91432875,-0.009417808,-0.3419661,0.21674746,0.36384422,0.68494123,0.040039062
580,295548130,0.91107243,-0.009078307,-0.3519943,0.21440709,0.34297013,0.49508327,0.22244072
581,295564797,0.9076529,-0.008644865,-0.36210865,0.2120725,0.25919658,0.525215,0.22174263
582,295581464,0.90403426,-0.008568842,-0.3725312,0.20946428,0.6943933,0.36392897,0.033826828
583,295598131,0.900232,-0.00840124,-0.38302496,0.20690459,0.7364989,-0.040534962,-0.031719208
584,295614798,0.8962701,-0.008189194,-0.39356315,0.20432048,0.54748446,0.119064175,-0.01661396
585,295631465,0.8921442,-0.008418992,-0.40422198,0.20154028,0.6872514,0.6933657,0.15721512
586,295648132,0.8881224,-0.009337162,-0.4145179,0.1983237,0.9822793,1.1641431,0.5514908
587,295664799,0.88398075,-0.010762213,-0.4249138,0.19472171,1.678053,0.8322767,0.10856533
588,295681466,0.8798973,-0.011845364,-0.43493128,0.19100104,1.1124276,-0.041456953,-0.033164978
589,295698133,0.87562823,-0.013319004,-0.44502,0.18724565,0.3006104,-0.14796089,-0.194067
590,295714800,0.8711443,-0.015214201,-0.45521864,0.18346141,0.560155,-0.041505575,0.014110565
591,295731467,0.8666195,-0.017275933,-0.46531975,0.17932053,0.68136674,0.25762114,0.1822033
592,295748134,0.8622079,-0.01854887,-0.47488585,0.17533627,0.31311437,0.38631365,0.21118069
593,295764801,0.857894,-0.019801496,-0.48403376,0.17129825,-0.19444822,0.21692541,0.005832672
594,295781468,0.8535628,-0.021439191,-0.4930056,0.16710018,-0.98160744,-0.034423273,-0.25076008
595,295798135,0.8491825,-0.023023311,-0.5018267,0.16289513,-0.6165998,0.62258625,-0.83169365
596,295814802,0.845032,-0.024466649,-0.51009333,0.15853307,-0.036827784,0.37955707,-0.4070654
597,295831469,0.8411851,-0.026112158,-0.5176145,0.1542957,-0.3273942,0.044618424,0.46520805
598,295848136,0.83746797,-0.027027166,-0.5246878,0.15041862,-0.5519854,-0.24930936,0.14516735
599,295864803,0.83398885,-0.027494766,-0.5312563,0.14655754,-0.5440998,-0.60269,-0.023402214
600,295881470,0.83029443,-0.027732603,-0.5378856,0.14327365,0.13057448,-0.22081126,-0.521101
601,295898137,0.826616,-0.027014846,-0.5442497,0.14062141,0.45164904,-0.71134984,0.034897804
602,295914804,0.82290214,-0.02658103,-0.5505933,0.13776274,0.41036978,-0.9252182,0.005307198
603,295931471,0.81912005,-0.025708158,-0.55677915,0.13558947,0.45997536,-0.8299699,0.3862648
604,295948138,0.8147043,-0.02506993,-0.56359035,0.13416629,0.8430806,-1.0086385,0.48329544
605,295964805,0.8092219,-0.020564472,-0.571322,0.13540387,2.1448371,0.42686895,0.12816048
606,295981472,0.80425817,-0.012623219,-0.57791674,0.13794161,2.6719682,0.7361692,0.88985443
607,295998139,0.7992944,-0.007368282,-0.58460593,0.13898264,2.2129624,1.4565479,0.3826723
608,296014806,0.7945062,-0.003612877,-0.59123147,0.13855805,0.91286,0.8239533,0.09162617
609,296031473,0.7894466,-0.001704707,-0.59840584,0.13670366,0.51242536,-0.059626494,-0.17952728
610,296048140,0.7839316,0.00133891,-0.6056573,0.13651054,0.799074,0.005839754,-0.2728138
611,296064807,0.77865165,0.006301473,-0.6120479,0.13807766,1.0014087,-0.07155457,-0.37587833
612,296081474,0.77336,0.010928341,-0.61838096,0.13930601,0.119106926,0.50902253,-0.6058655
613,296098141,0.76791763,0.015163676,-0.6249778,0.13957545,0.001255696,0.2880592,-0.5994234
614,296114808,0.7629187,0.016611056,-0.6313485,0.13814719,-0.43802908,-1.5402739,-0.046795845
615,296131475,0.75845593,0.016673803,-0.6369541,0.13697578,-0.63819075,-1.9955829,0.22694492
616,296148142,0.7543954,0.017216085,-0.6418236,0.13660166,-0.8545593,-1.9069672,0.1508522
617,296164809,0.75091857,0.018014232,-0.645919,0.1363514,-1.3452101,-1.2354926,0.43811798
618,296181476,0.7476172,0.01855678,-0.64970344,0.13644052,-1.9204108,-1.1681765,0.70100784
619,296198143,0.7438801,0.020139566,-0.6537325,0.13739403,-1.759603,-0.7345532,0.3731928
620,296214810,0.74027604,0.0237209,-0.65716434,0.13989317,-1.0254086,-0.32001197,0.2721367
621,296231477,0.73741376,0.026938193,-0.6597521,0.14222857,-0.9587342,-0.47173727,0.6181679
622,296248144,0.73518825,0.02950111,-0.6618101,0.14367288,-0.94557154,-0.4571658,0.5456476
623,296264811,0.733313,0.03130952,-0.6636458,0.14440425,-1.4081401,-0.7121365,0.2897892
624,296281478,0.7305893,0.03282373,-0.6663619,0.1453621,0.22527781,0.42375648,-0.114172935
625,296298145,0.7278714,0.03512061,-0.6687941,0.14727767,0.7351703,0.6974411,-0.27867603
626,296314812,0.72559804,0.036566854,-0.6709496,0.14833577,0.7777075,0.9160968,-0.07216835
627,296331479,0.72397995,0.036659528,-0.67284274,0.14764264,0.16630034,0.3594854,0.3657961
628,296348146,0.7226528,0.035067014,-0.67484003,0.14539875,-0.48733917,-0.023818435,0.64223576
629,296364813,0.7213186,0.033159606,-0.6769406,0.14268108,-0.2197651,0.06130541,0.352417
630,296381480,0.7200635,0.031682674,-0.67884076,0.14030796,0.18811521,-0.25099766,0.14463806
631,296398147,0.7191598,0.03081959,-0.68011653,0.1389506,0.25578555,-0.46525177,0.28744793
632,296414814,0.71864593,0.030290168,-0.68085855,0.1380899,-0.09497021,-0.41912735,0.3878212
633,296431481,0.71807194,0.029650599,-0.68175083,0.1368056,-0.30981264,-0.117624894,0.18298054
634,296448148,0.7167534,0.029666921,-0.6833176,0.13589737,-0.07498144,0.49688718,0.11991215
635,296464815,0.71524024,0.029956598,-0.6849774,0.13544954,0.9698786,0.6124996,0.05971527
636,296481482,0.71396285,0.0302565,-0.6863671,0.13508618,1.2450633,-0.25724965,0.17706871
637,296498149,0.7130582,0.03164293,-0.68708503,0.13589521,0.64331144,-0.8672017,0.4017601
638,296514816,0.71204984,0.033519424,-0.6877335,0.13744374,-0.122342944,-0.6198269,0.5408478
639,296531483,0.7104982,0.035863962,-0.6889429,0.13881733,0.028167997,0.615176,0.0632782
640,296548150,0.7091142,0.0375939,-0.6901272,0.13955247,0.3696162,1.0282905,-0.012825966
641,296564817,0.7082235,0.03802694,-0.6910997,0.13914354,0.39788792,0.7906364,0.11584473
642,296581484,0.70796007,0.038019843,-0.691567,0.1381618,0.003246302,0.015119366,0.24521732
643,296598151,0.7082632,0.038039055,-0.69140756,0.13739868,-0.8332871,-0.09492743,0.51754475
644,296614818,0.7084013,0.037464794,-0.69155276,0.13610682,-0.9947945,0.18675312,0.3184471
645,296631485,0.70803326,0.036806427,-0.6922547,0.13462639,-0.3079034,0.66518116,-0.019919395
646,296648152,0.7080773,0.035459425,-0.6925605,0.13317618,0.268891,0.43644553,0.22419167
647,296664819,0.70853305,0.033614296,-0.69254136,0.13131624,0.07929212,0.117819354,0.4280939
648,296681486,0.70876485,0.03217575,-0.6927168,0.12948687,0.32642055,0.21577896,0.36951733
649,296698153,0.70896536,0.031451818,-0.6927663,0.12829846,0.60051984,0.32103842,0.17831898
650,296714820,0.7090645,0.030759968,-0.6928285,0.12757984,1.0646745,0.43561804,-0.008841515
651,296731487,0.7091167,0.030289004,-0.69284594,0.12730756,1.0810624,0.060864996,0.08145523
652,296748154,0.7092479,0.03032712,-0.69268197,0.12746039,0.76063514,0.052519497,0.2337637
653,296764821,0.709546,0.030324185,-0.6923895,0.12739037,0.15491861,-0.047731902,0.37620354
654,296781488,0.70987546,0.03007088,-0.6921364,0.12699045,-0.20412679,0.006404205,0.35992336
655,296798155,0.7100695,0.029901536,-0.69197446,0.12682728,-0.2894752,0.11956724,0.16986465
656,296814822,0.71042097,0.029972421,-0.69154394,0.12719098,-0.16667585,0.1962203,0.19364166
657,296831489,0.71136296,0.030011524,-0.6904948,0.12761611,-0.24299255,0.110314146,0.23063946
658,296848156,0.71287715,0.029465687,-0.6889909,0.1274224,-0.50353134,-0.07302702,0.31137943
659,296864823,0.7146481,0.028367814,-0.6873249,0.12674673,-0.85770774,-0.21906474,0.37661457
660,296881490,0.7162543,0.027126981,-0.6858379,0.12600581,-0.46729407,-0.06260264,0.2787857
661,296898157,0.7179484,0.0264632,-0.6840944,0.12598301,0.1908367,0.07543977,0.07973194
662,296914824,0.71975386,0.026012324,-0.6821052,0.12656033,0.70126075,0.20362031,0.13312149
663,296931491,0.7217379,0.026041333,-0.679833,0.12747698,1.0591743,0.5364176,0.23727608
664,296948158,0.7235556,0.026431642,-0.6776312,0.1288086,1.4383322,0.5415679,0.37693977
665,296964825,0.72537845,0.026462428,-0.6755465,0.129499,1.4967827,0.45001796,0.13233471
666,296981492,0.7271386,0.026119769,-0.6736446,0.12960403,1.2145823,0.15245897,0.05392933
667,296998159,0.7287838,0.025097962,-0.6719294,0.12946893,1.4742749,0.39530897,0.3585825
668,297014826,0.73090565,0.02457998,-0.6695703,0.1298284,1.2493185,0.59851575,0.41525555
669,297031493,0.73383236,0.024023566,-0.66638863,0.12979336,0.7328972,0.23688565,0.22012615
670,297048160,0.73762906,0.023241486,-0.6622986,0.12934753,0.14725481,-0.43374512,0.19268799
671,297064827,0.74212366,0.022615146,-0.6572783,0.1293579,-0.9466234,-1.1490512,0.20895481
672,297081494,0.74619913,0.021866336,-0.65254664,0.12999633,-1.5587391,-0.5664672,0.2493248
673,297098161,0.7496059,0.021069981,-0.6485698,0.13042898,-1.0867803,0.34635094,0.4121418
674,297114828,0.752866,0.019776462,-0.64493537,0.12987477,-0.47205982,0.45387968,0.42336464
675,297131495,0.7569024,0.018298082,-0.640465,0.12874727,0.07739047,-0.15027943,0.17185593
676,297148162,0.76186675,0.016523901,-0.6348012,0.12775339,-0.6210102,-0.9778501,0.33885288
677,297164829,0.765788,0.013880351,-0.6302401,0.12720472,-0.60500175,-1.0426793,0.36075783
678,297181496,0.76875883,0.012442234,-0.62654,0.127712,0.36036727,-0.70215386,-0.3570156
679,297198163,0.7719592,0.012013563,-0.62232196,0.1290636,1.0092415,-0.6397655,-0.19488525
680,297214830,0.77631855,0.011149773,-0.61668485,0.13004819,0.42296878,-1.1055778,0.526186
681,297231497,0.78073007,0.009579372,-0.61102027,0.13049999,-1.1026667,-1.4031636,0.73680305
682,297248164,0.7837114,0.00755943,-0.60714775,0.13083687,-0.7875631,-0.83904016,0.05271721
683,297264831,0.785638,0.006539841,-0.60432523,0.13239633,0.07741148,-0.6647256,-0.20355892
684,297281498,0.7871008,0.006486069,-0.6018469,0.13497427,0.079045355,-0.3185691,0.09502411
685,297298165,0.7890897,0.007277169,-0.59871143,0.13724652,-0.46545008,0.88155764,0.291111
686,297314832,0.79173553,0.00694977,-0.5951368,0.13757327,-0.8721113,1.7666231,0.37431622
687,297331499,0.7943721,0.004456514,-0.5920053,0.13597906,-1.122538,1.2426399,-0.014802933
688,297348166,0.7967582,6.47E-04,-0.58932287,0.1337244,-1.543538,-0.2406536,-0.07149696
689,297364833,0.7987101,-0.002531463,-0.5869196,0.13262142,-0.97824603,-1.0607606,0.007744789
690,297381500,0.80088574,-0.004707983,-0.5840544,0.13208981,-0.7183152,-1.1674043,0.065945625
691,297398167,0.80367273,-0.00644043,-0.5801634,0.13223647,-0.6568067,-0.7515001,0.09106636
692,297414834,0.80665404,-0.008423919,-0.5758239,0.13293833,-0.30420783,-0.5408178,0.23453045
693,297431501,0.8092773,-0.009963003,-0.5718261,0.13413993,0.7842627,-0.7762113,-0.065924644
694,297448168,0.8123524,-0.010377515,-0.5669336,0.13627048,0.7927821,-0.69382703,0.054876328
695,297464835,0.8147713,-0.010870704,-0.562919,0.13841718,0.8422782,0.13729073,0.03388977
696,297481502,0.8172273,-0.010394779,-0.55869436,0.14106567,1.189919,1.223146,0.25988007
697,297498169,0.8199856,-0.010821725,-0.55413944,0.14298022,0.73162854,0.9025347,0.6544895
698,297514836,0.8226002,-0.011949186,-0.5499516,0.14403795,0.5282063,0.68211216,0.20508003
699,297531503,0.82515407,-0.012442821,-0.5456192,0.14585355,1.0175517,0.9426545,-0.37581635
700,297548170,0.82779604,-0.01244646,-0.5412344,0.1472133,0.73398167,1.2714309,-0.32160282
701,297564837,0.8302542,-0.013015441,-0.5371977,0.14810358,0.26323077,1.1029171,0.46772003
702,297581504,0.8328737,-0.013887437,-0.532874,0.1489343,0.021590011,1.0218619,0.8048773
703,297598171,0.8353961,-0.013880825,-0.52871394,0.14963181,0.48003563,0.7882739,0.3512354
704,297614838,0.8379084,-0.013790942,-0.5245755,0.15015845,0.49308792,-0.76802003,0.23940945
705,297631505,0.84068245,-0.014924997,-0.51987636,0.150885,0.93525153,-0.3433014,-0.5335684
706,297648172,0.84333533,-0.016855558,-0.5152529,0.15173534,0.88641125,-0.51698935,-0.15061569
707,297664839,0.84605575,-0.019155614,-0.51034284,0.15290673,-0.07742713,-0.76299155,0.4429779
708,297681506,0.8485425,-0.020703554,-0.5056735,0.15443079,-0.7948523,-0.91310877,0.64180756
709,297698173,0.8510151,-0.02173011,-0.50098467,0.15595897,-1.3343188,-1.2578032,0.014456749
710,297714840,0.8537711,-0.022840466,-0.49550194,0.1582354,-0.6943555,-2.2220247,-0.3308134
711,297731507,0.8571491,-0.022796093,-0.48851606,0.16166426,-1.3888673,-2.655113,0.06555271
712,297748174,0.8607811,-0.020340595,-0.48035496,0.16705929,-0.9460311,-1.2788091,-0.15285969
713,297764841,0.86476594,-0.015708104,-0.4709898,0.1735205,-0.8773532,-0.33340678,0.046964645
714,297781508,0.86884594,-0.010816529,-0.46141276,0.1791524,-0.96139,0.8620218,-0.40137196
715,297798175,0.8728277,-0.008178797,-0.45226955,0.18320704,-0.71884423,0.42892918,-1.0368433
716,297814842,0.87676114,-0.007519465,-0.44327602,0.1864073,-1.400996,-0.063048266,-0.52564716
717,297831509,0.88075125,-0.007822016,-0.43402794,0.18932353,-1.5526283,-0.28719392,-0.21419525
718,297848176,0.88504845,-0.007756459,-0.42361575,0.19283795,-1.5201051,0.826284,-0.8477402
719,297864843,0.8893151,-0.006514769,-0.41261294,0.19706455,-0.550343,2.8729715,-1.078042
720,297881510,0.8934624,-0.008436113,-0.40280738,0.19851315,0.5625718,3.0014825,-0.08332825
721,297898177,0.8975907,-0.013004508,-0.39354452,0.19822207,1.0231923,0.6298133,0.4796133
722,297914844,0.90193385,-0.017505668,-0.3830274,0.19876227,0.7142408,-2.1564372,0.084070206
723,297931511,0.90629256,-0.019074915,-0.37072584,0.20208895,-0.10171359,-1.5852244,-0.72054195
724,297948178,0.9099237,-0.018017594,-0.35918456,0.20666023,0.5978567,1.1677725,-0.3387251
725,297964845,0.9134333,-0.018135333,-0.3489436,0.20870233,2.2246678,3.1264703,1.124754
726,297981512,0.91712815,-0.020119363,-0.33913165,0.20849116,2.51904,0.7467131,1.4261351
727,297998179,0.92100346,-0.022366434,-0.32812092,0.20879771,2.1169174,-1.2473977,0.5176916
728,298014846,0.9248444,-0.02355884,-0.31527174,0.21146864,0.8189284,-1.517022,-0.3723669
729,298031513,0.92770517,-0.023210527,-0.30366045,0.21592225,-0.09112109,0.42512834,-0.052067757
730,298048180,0.9302478,-0.023686219,-0.2940404,0.21823418,0.9138868,2.0951393,0.6211376
731,298064847,0.9328747,-0.025699712,-0.28489164,0.2189258,2.1037302,0.31445226,0.9361553
732,298081514,0.93541,-0.02741782,-0.27470484,0.22091031,1.7052673,-0.9511748,0.6870613
733,298098181,0.93798065,-0.028020928,-0.26281297,0.22437514,0.3640282,-0.9964114,-0.22776318
734,298114848,0.94050795,-0.027049221,-0.25077212,0.22767149,-0.8496094,1.6292864,-0.2369051
735,298131515,0.9430299,-0.027395407,-0.23992649,0.22888233,0.86663127,2.000385,0.46324635
736,298148182,0.9455767,-0.029465921,-0.22997777,0.22832933,0.50652194,0.6041229,0.59028053
737,298164849,0.94783366,-0.032102168,-0.22033164,0.22812778,-0.014078634,-0.06441247,0.1508522
738,298181516,0.9495686,-0.035656672,-0.21132705,0.22890301,-0.2144989,-0.8549007,0.16285515
739,298198183,0.9509172,-0.039070047,-0.20339829,0.22992828,-0.22829635,-1.6512575,0.578372
740,298214850,0.9519913,-0.0407871,-0.1967834,0.23093931,0.038763627,-0.9390383,0.95737743
741,298231517,0.9528136,-0.041746363,-0.19156164,0.23176548,-0.009741365,0.506457,0.75626373
742,298248184,0.95345557,-0.043161124,-0.1876755,0.23204525,-0.2054254,0.9602723,0.5605297
743,298264851,0.9540006,-0.045056608,-0.18507318,0.2315348,-0.5948689,1.3763477,0.34232998
744,298281518,0.95445067,-0.047169697,-0.18352693,0.23048717,-0.7597394,1.3550444,0.25154114
745,298298185,0.95483375,-0.04905439,-0.18275224,0.2291182,-0.77450234,1.0639018,0.20204258
746,298314852,0.95519626,-0.050919306,-0.18248245,0.22740932,-0.6793497,0.49281192,-0.041378975
747,298331519,0.95555335,-0.052566748,-0.18208794,0.22584519,-0.61988735,-0.037092198,-0.09205246
748,298348186,0.9558572,-0.053720575,-0.1813749,0.22485965,-0.5556278,-0.3638321,-0.087607384
749,298364853,0.9561403,-0.054381806,-0.18042254,0.22426301,-0.6085711,-0.29898456,-0.05324936
750,298381520,0.95641047,-0.05511672,-0.17955804,0.22362436,-0.45387658,-0.2589053,-0.16225624
751,298398187,0.95663804,-0.056393538,-0.17870337,0.22301616,-0.22152413,-0.35587007,-0.18185711
752,298414854,0.9568164,-0.057845216,-0.17765503,0.2227163,9.07E-04,-0.492853,-0.13971138
753,298431521,0.9569686,-0.059006337,-0.1763141,0.22282358,0.13260566,-0.5746284,0.002711296
754,298448188,0.95711523,-0.059627537,-0.17477506,0.22324052,0.21878655,-0.4827281,0.2534485
755,298464855,0.9573026,-0.059931435,-0.173156,0.22361715,0.30347717,-0.24183962,0.3463087
756,298481522,0.9574914,-0.060270496,-0.17170084,0.22384016,0.34685847,-0.22937699,0.26093292
757,298498189,0.9576604,-0.060602453,-0.17033944,0.22406723,0.42517126,-0.30892956,0.028202057
758,298514856,0.957827,-0.06080083,-0.16889709,0.22439283,0.49162948,-0.27835196,-0.16238213
759,298531523,0.9579623,-0.06061737,-0.16748865,0.22492011,0.33279145,-0.29178858,-0.08201504
760,298548190,0.95806384,-0.06016689,-0.16623233,0.22553945,0.2705908,-0.22605531,0.22815132
761,298564857,0.9581851,-0.059877396,-0.16519669,0.22586155,0.36618844,-0.13083102,0.40494156
762,298581524,0.95823944,-0.05979883,-0.16446033,0.22618954,0.2599592,-0.14942786,0.289793
763,298598191,0.95827377,-0.059840385,-0.16373575,0.22655804,0.2504591,-0.24747024,0.09997368
764,298614858,0.95832795,-0.059506416,-0.16293645,0.22699237,0.058321904,-0.32862377,0.13572502
765,298631525,0.9584157,-0.058713436,-0.16224828,0.22732139,0.030067187,-0.29199335,0.018780708
766,298648192,0.9585761,-0.057848,-0.16142556,0.2274528,-0.07957475,-0.23774558,0.0247221
767,298664859,0.95878845,-0.056990843,-0.1604283,0.22748005,-0.1723979,-0.14867444,0.17857742
768,298681526,0.95897514,-0.05596898,-0.15937635,0.22768603,-0.18489271,-0.061562676,0.09268284
769,298698193,0.9591157,-0.054963157,-0.15843026,0.22799948,-0.24817894,-0.09239109,-0.11536503
770,298714860,0.959223,-0.05392154,-0.15762578,0.22835417,-0.41767496,-0.040733784,-0.17936897
771,298731527,0.9593041,-0.053000756,-0.15698566,0.22866909,-0.5171238,-0.026518807,-0.13376904
772,298748194,0.9593831,-0.052479815,-0.1564197,0.22884579,-0.4822575,0.043529063,0.040350914
773,298764861,0.9594812,-0.052166022,-0.15573862,0.22897047,-0.32797375,0.20493598,0.33982086
774,298781528,0.9595742,-0.051802497,-0.15509066,0.22910279,-0.10585674,0.25115916,0.31918335
775,298798195,0.9596501,-0.051325627,-0.15457796,0.22923887,-0.045629833,0.09627583,0.011710167
776,298814862,0.95972466,-0.05084144,-0.15412906,0.22933684,-0.13585798,0.050477102,-0.15896797
777,298831529,0.95977956,-0.05030438,-0.15372601,0.22949597,-0.11619947,0.06735398,-0.06802845
778,298848196,0.9598353,-0.049770985,-0.15334508,0.22963415,-0.020632481,0.17065254,0.113931656
779,298864863,0.9599021,-0.049358185,-0.15293886,0.2297146,0.14999619,0.21942168,0.20288181
780,298881530,0.95994353,-0.049042616,-0.15259367,0.2298386,0.14049923,0.15815486,0.03877163
781,298898197,0.9599569,-0.04870793,-0.15232001,0.23003623,0.052282587,0.072731815,-0.050634384
782,298914864,0.95996785,-0.04840509,-0.15212144,0.23018502,0.06971559,0.12991886,0.015444756
783,298931531,0.9600061,-0.048187084,-0.15192865,0.23019926,0.19129223,0.15061414,0.18445015
784,298948198,0.9600477,-0.048132416,-0.151787,0.23013033,0.16317776,0.055504162,0.19753456
785,298964865,0.96007234,-0.04810189,-0.15164284,0.23012888,0.08162972,-0.06789955,0.12932777
786,298981532,0.96006685,-0.047890335,-0.15150872,0.23028418,0.065965265,-0.19904004,0.041163445
787,298998199,0.960031,-0.047478672,-0.15136825,0.23061138,0.0801342,-0.21341227,-0.00212574
788,299014866,0.9599937,-0.046919342,-0.15116213,0.23101543,0.02097099,-0.086746775,0.07723045
789,299031533,0.95996416,-0.046420947,-0.15096349,0.23136881,-0.066166095,0.10727566,0.12361431
790,299048200,0.9599421,-0.046291247,-0.15083706,0.2315686,-0.10687842,0.14828008,0.06663704
791,299064867,0.9599117,-0.046499975,-0.15075429,0.2317071,-0.09080594,0.11086522,0.05538082
792,299081534,0.9598567,-0.046597872,-0.15072092,0.23193665,-0.07829066,-0.013030834,0.003501892
793,299098201,0.95981544,-0.046547048,-0.1507463,0.23210119,-0.091620535,-0.043510232,-0.028481483
794,299114868,0.95981526,-0.046484392,-0.1507501,0.2321116,-0.12852085,0.038288355,0.03627205
795,299131535,0.95982647,-0.046540834,-0.15079127,0.23202734,-0.094461046,0.049434863,0.0696125
796,299148202,0.9598405,-0.04668337,-0.15078159,0.2319472,-0.045345303,0.010428332,0.07084465
797,299164869,0.95983744,-0.046822518,-0.15076698,0.23194101,-0.029473647,-0.09568788,0.03556156
798,299181536,0.9598248,-0.046996795,-0.15077372,0.2319538,-0.011091942,-0.12859944,0.035143852
799,299198203,0.9598219,-0.047027167,-0.15073946,0.23198205,0.074226305,-0.04199543,0.07355404
800,299214870,0.9598344,-0.046858445,-0.15072834,0.23197185,0.11856222,-0.029827105,0.114813805
801,299231537,0.959875,-0.046696737,-0.15077528,0.2318053,0.116201036,-0.011437186,0.060566902
802,299248204,0.9599147,-0.046738252,-0.15084843,0.23158523,0.12134384,-0.017359497,0.07071972
803,299264871,0.95994097,-0.046803404,-0.15094131,0.23140267,0.20376045,-0.055670653,0.09046364
804,299281538,0.95995694,-0.046763033,-0.15105759,0.23126885,0.24874914,-0.13785586,0.103505135
805,299298205,0.9599754,-0.046513475,-0.15117152,0.23116787,0.24181643,-0.16461997,0.09826088
806,299314872,0.95998055,-0.046097144,-0.1513042,0.231143,0.17174903,-0.1746756,0.042625427
807,299331539,0.9599646,-0.04564041,-0.15139593,0.23123978,0.09058924,-0.12603907,0.03822899
808,299348206,0.9599265,-0.045068696,-0.15133491,0.23155035,0.038773797,-0.03948317,0.058746338
809,299364873,0.95986724,-0.044461213,-0.1513063,0.23193122,-0.039869346,0.114166535,0.089484215
810,299381540,0.95979005,-0.04408886,-0.15144822,0.2322292,-0.116429016,0.11942691,0.0309124
811,299398207,0.95972204,-0.043818884,-0.15160693,0.23245738,-0.21799184,0.10409568,-0.040964127
812,299414874,0.9595927,-0.043405157,-0.15193717,0.2328531,-0.40999988,-0.056743402,0.07683849
813,299431541,0.95942146,-0.04278785,-0.15242414,0.2333545,-0.4700959,0.030022427,0.033834457
814,299448208,0.9591343,-0.04161049,-0.15343109,0.23408666,-0.44077918,-0.23176964,0.14341927
815,299464875,0.9587468,-0.04046621,-0.15495542,0.23486927,-0.5893403,-0.61094815,0.2135191
816,299481542,0.95826447,-0.039669767,-0.15700084,0.23561445,-0.90522206,-0.6651921,-0.011631012
817,299498209,0.95770043,-0.03869404,-0.15927258,0.2365429,-1.2648978,-0.06746294,-0.23060036
818,299514876,0.95705295,-0.038050357,-0.16239521,0.23714457,-1.301486,-0.31865484,0.061977386
819,299531543,0.9564283,-0.037585597,-0.16649437,0.23689587,-1.6010792,0.03613654,0.23568153
820,299548210,0.9557307,-0.03686452,-0.17149813,0.23625392,-1.2030932,0.31880045,-0.21124554
821,299564877,0.9548609,-0.03655157,-0.17735846,0.23549116,-1.3020972,-1.7096642,0.053512573
822,299581544,0.95385027,-0.03449287,-0.18222533,0.23618034,-2.2411647,-0.6586168,-0.1589737
823,299598211,0.95285326,-0.032332394,-0.1864219,0.23723377,-2.0468895,1.8846594,-0.3502655
824,299614878,0.95189613,-0.03246983,-0.1915365,0.23698257,-0.67268294,2.2852802,0.17630672
825,299631545,0.95081574,-0.03446534,-0.1981308,0.2356129,0.15851662,0.92946553,0.071707726
826,299648212,0.94957346,-0.03578539,-0.20443173,0.23504263,0.3137134,-0.12452061,0.343359
827,299664879,0.94831663,-0.036167055,-0.21050015,0.23470187,0.3347728,0.6887697,0.61496353
828,299681546,0.9471334,-0.037224066,-0.2172026,0.23320258,0.43187508,0.3706969,0.4504881
829,299698213,0.94576615,-0.03883932,-0.2246744,0.23140232,0.44331425,-0.7818525,0.24985886
830,299714880,0.94400394,-0.04013906,-0.23307025,0.23006785,0.36331293,-1.3081591,0.4444704
831,299731547,0.94203424,-0.0405137,-0.24156883,0.22930828,0.77142656,-0.4683404,0.5040436
832,299748214,0.9399435,-0.04076088,-0.2504621,0.22830065,1.1203263,0.16862321,0.54463387
833,299764881,0.9376776,-0.040856034,-0.25978124,0.22718394,1.0708399,-0.33513382,0.7633343
834,299781548,0.9352772,-0.040344805,-0.2688273,0.22664548,0.4527474,-0.45466983,0.38084412
835,299798215,0.9326338,-0.039381843,-0.27779278,0.22689629,0.1031519,-0.5221492,0.0942049
836,299814882,0.92975825,-0.03796929,-0.2870839,0.22737251,0.29041752,0.35362303,0.30580807
837,299831549,0.9268461,-0.036616642,-0.29659826,0.22727199,0.644547,1.6620023,0.2955742
838,299848216,0.92385155,-0.035368767,-0.30658752,0.22640477,0.7823148,0.92878586,0.6208868
839,299864883,0.92061824,-0.03387753,-0.31702876,0.22542195,0.49638203,0.16182388,0.48115444
840,299881550,0.91722137,-0.031840615,-0.3273632,0.22479327,0.28383285,-0.35789433,0.2778864
841,299898217,0.91384774,-0.029384691,-0.33716443,0.22438048,0.1529099,-0.42134807,-0.105731964
842,299914884,0.9104562,-0.027595192,-0.34682506,0.2236697,-0.07367792,0.008868072,-0.30702686
843,299931551,0.90688026,-0.026722204,-0.35682228,0.22257462,0.0415486,-0.08230286,-0.2782526
844,299948218,0.9031203,-0.026197625,-0.3669455,0.22146358,0.0845259,-0.22190669,-0.124970436
845,299964885,0.8992375,-0.025283717,-0.37703907,0.22041258,-0.002121138,-0.23789166,-0.048282623
846,299981552,0.8953333,-0.02374379,-0.38681322,0.21953979,-0.1107719,0.021283938,-0.1173563
847,299998219,0.89137805,-0.022065278,-0.39651775,0.21849406,0.115356825,0.37655193,-0.03268242
848,300014886,0.8873762,-0.0206528,-0.40631312,0.21691997,0.26042053,0.31236577,0.018273354
849,300031553,0.8832531,-0.020062132,-0.41637892,0.21470399,0.1461312,0.2657907,0.061203957
850,300048220,0.8790958,-0.019604834,-0.4263211,0.21228279,0.22248949,0.49502522,0.046006203
851,300064887,0.8748986,-0.019351076,-0.43619657,0.20956683,0.03296503,0.4521646,0.107806206
852,300081554,0.8705305,-0.019565586,-0.44613144,0.20680478,-0.034772582,0.4854399,-0.04389286
853,300098221,0.8660282,-0.020370582,-0.45619583,0.2036497,0.21072824,0.7862414,-0.20346642
854,300114888,0.8614333,-0.021915179,-0.46636128,0.19991787,0.5454456,0.73778605,-0.24349499
855,300131555,0.85678816,-0.023755137,-0.47639665,0.19596884,0.76839465,0.3134038,0.12982273
856,300148222,0.8519849,-0.025496792,-0.48642126,0.19202587,0.84916776,0.061546303,0.41068554
857,300164889,0.84707963,-0.026491845,-0.49618277,0.1885853,0.8006587,0.06494894,0.45285988
858,300181556,0.8421566,-0.026870718,-0.50564367,0.18542466,0.8022457,0.44605893,0.34446812
859,300198223,0.8373659,-0.02648144,-0.51459044,0.18254144,0.9099972,1.0564233,0.21528625
860,300214890,0.8328379,-0.026039679,-0.523065,0.1792032,1.1078249,1.0183394,0.1653471
861,300231557,0.82824916,-0.026551913,-0.53166705,0.17503133,0.7657317,0.3551793,0.033280373
862,300248224,0.8236386,-0.02754391,-0.5401237,0.17068923,0.33226183,0.07482757,0.18401718
863,300264891,0.81894803,-0.028124185,-0.5483462,0.1669054,0.45962936,0.097895116,0.048491478
864,300281558,0.8143377,-0.027066633,-0.55613035,0.16385427,0.7774335,-0.04570048,0.048238754
865,300298225,0.8095392,-0.025146833,-0.56388664,0.16141121,0.51493406,-0.26838878,-0.039150238
866,300314892,0.80461496,-0.022427365,-0.5713548,0.16016504,0.81779146,-0.10164746,0.16032505
867,300331559,0.7996502,-0.01911058,-0.5786169,0.15938722,1.0698036,-0.6351075,0.09144974
868,300348226,0.7948328,-0.015052102,-0.58541685,0.15908813,0.5477641,-1.0441469,0.1696167
869,300364893,0.7899606,-0.010404773,-0.59190667,0.15971316,0.43331742,-1.1563798,0.03240776
870,300381560,0.7849456,-0.005622192,-0.5983343,0.16072442,-0.10287005,-1.2042334,-0.093951225
871,300398227,0.7798336,-1.66E-04,-0.6045287,0.16251794,0.28383195,-0.54549885,-0.35111904
872,300414894,0.7748586,0.005562555,-0.6102324,0.16488585,0.095125325,-0.5134781,-0.12041187
873,300431561,0.76989996,0.010871643,-0.6157773,0.16721845,-0.5546729,-0.45019087,0.24143696
874,300448228,0.76465833,0.016561484,-0.621539,0.16947097,-0.34423274,-0.03775186,-0.3157444
875,300464895,0.75970703,0.022033047,-0.6268542,0.17152591,-0.59904915,-0.06475331,-0.054851532
876,300481562,0.75537515,0.02538697,-0.63174695,0.1722417,-0.2671561,-0.41087008,0.22151947
877,300498229,0.7511699,0.027270464,-0.6366558,0.17227088,-0.525251,-0.8740515,0.2677498
878,300514896,0.74671197,0.029216208,-0.64169544,0.17263286,-0.16394138,-0.93305755,0.21112919
879,300531563,0.74224794,0.03216143,-0.64634997,0.17399126,0.20446652,-0.3746847,0.2689228
880,300548230,0.7381538,0.034843024,-0.6505466,0.17524776,-0.17160878,0.17987783,0.28566074
881,300564897,0.7340684,0.03638964,-0.6550596,0.17528272,0.14045778,0.18061803,0.22596455
882,300581564,0.7302984,0.037826616,-0.65928656,0.1748784,0.59800935,0.03464532,0.21314716
883,300598231,0.72702616,0.039543327,-0.6628441,0.17468427,0.28968173,-0.28633827,0.21605873
884,300614898,0.72401655,0.04098306,-0.6660793,0.1745464,0.23841412,-0.102029026,0.23577213
885,300631565,0.72106194,0.042164836,-0.6692143,0.17450361,-0.085101664,-0.30211556,0.21968651
886,300648232,0.7182289,0.042690173,-0.67233366,0.17406902,-0.24068904,-0.19004661,0.4443102
887,300664899,0.715782,0.0425821,-0.67524296,0.17290916,-0.41259956,-0.212441,0.4314766
888,300681566,0.7137864,0.042584118,-0.6776932,0.17156675,-0.13627495,-0.09318761,0.20353794
889,300698233,0.71225005,0.043035246,-0.6794877,0.17073856,-0.49197078,-0.36397672,0.15098286
890,300714900,0.71088886,0.043187436,-0.6810417,0.17018124,-0.59046984,-0.50489694,0.5619354
891,300731567,0.7089762,0.04323116,-0.6832824,0.16916451,-0.12043414,0.08856779,0.39097118
892,300748234,0.70720875,0.043774776,-0.6853163,0.16819227,0.55810785,0.5352009,-0.04087925
893,300764901,0.70622236,0.04380911,-0.68657696,0.16718325,0.6967087,0.29972094,0.02100563
894,300781568,0.7060232,0.043116376,-0.68720496,0.16561773,0.2350413,0.057522904,0.37610435
895,300798235,0.7060482,0.041828506,-0.68777514,0.16346079,-0.2142175,-0.19542532,0.6115322
896,300814902,0.7055568,0.040851414,-0.68885094,0.16128407,-0.06341554,0.15161069,0.25670528
897,300831569,0.70485735,0.04057833,-0.68997055,0.15961732,0.15601875,0.10483168,0.068424225
898,300848236,0.7043771,0.0407082,-0.6907275,0.15842655,-0.13908273,-0.19302553,0.14851284
899,300864903,0.70391,0.040669516,-0.6914773,0.15723655,-0.34151974,-0.27161297,0.2708416
900,300881570,0.70343554,0.040239125,-0.6923194,0.15575887,-0.19364671,-0.09905806,0.2862091
901,300898237,0.70298,0.039921086,-0.6930591,0.15460256,0.22817364,0.34753764,0.008692741
902,300914904,0.7029115,0.03952908,-0.6933479,0.15371819,0.370479,-0.11658321,0.09146595
903,300931571,0.7031734,0.039372202,-0.6932483,0.15300785,-0.006592738,-0.2559976,0.19203568
904,300948238,0.703525,0.03918924,-0.6931079,0.15207185,-0.3990824,-0.16526243,0.41020393
905,300964905,0.70381707,0.03872747,-0.6931488,0.15064609,-0.44899282,0.16636701,0.35717583
906,300981572,0.7040298,0.038151953,-0.6932381,0.14938286,0.11293618,0.36293858,0.20493412
907,300998239,0.7045243,0.03777169,-0.6929571,0.14844811,0.4383469,0.3454133,0.12102795
908,301014906,0.70520383,0.037024617,-0.69254017,0.14735086,0.4680929,-0.083176464,0.31728458
909,301031573,0.7055386,0.03656862,-0.6924248,0.14640202,0.446447,0.105506636,0.26082325
910,301048240,0.7054849,0.03628923,-0.69263864,0.14571783,0.8763608,0.37497264,0.12629318
911,301064907,0.70531684,0.036259227,-0.69286203,0.14547499,1.0092987,0.45476052,0.019350052
912,301081574,0.7052947,0.036034346,-0.6930237,0.14486852,0.8883817,0.42129943,0.11238098
913,301098241,0.7053682,0.035544947,-0.6932097,0.14373615,0.5033574,0.10744346,0.19835949
914,301114908,0.7054648,0.034765452,-0.69342726,0.14239825,0.06317549,-0.15113994,0.22759151
915,301131575,0.7053468,0.034112662,-0.69382167,0.1412134,-0.15752523,-0.11809969,0.10330105
916,301148242,0.70509785,0.033980645,-0.6942291,0.14048444,-0.27089235,-0.24408135,0.111917496
917,301164909,0.70489234,0.033991806,-0.69456184,0.13986705,-0.3278944,-0.055922188,0.12867832
918,301181576,0.70491683,0.03423541,-0.6946304,0.13934293,-0.6301478,-0.08513963,0.18300152
919,301198243,0.70505685,0.033919435,-0.6946307,0.13870843,-0.87832814,-0.4125421,0.40873623
920,301214910,0.7045846,0.033743106,-0.69520676,0.13826519,-0.6656489,-0.2425966,0.059138298
921,301231577,0.70404196,0.034651667,-0.695571,0.1389713,-0.25071716,-0.092189886,-0.025643349
922,301248244,0.7040989,0.035392053,-0.6953274,0.1397128,-0.36942267,0.14274289,0.26066875
923,301264911,0.7043807,0.035584968,-0.69506204,0.1395646,-0.84234345,0.06384078,0.38902855
924,301281578,0.70478266,0.035054784,-0.69487077,0.13861777,-0.759936,-0.2468538,0.27734947
925,301298245,0.7050648,0.03428592,-0.694812,0.13766697,-0.5585137,-0.53503346,0.15621185
926,301314912,0.7050654,0.034023467,-0.69484913,0.13754031,-0.24275966,-0.19705161,0.18916702
927,301331579,0.70507586,0.03419226,-0.6947707,0.13784117,0.048684698,0.091351725,0.17864037
928,301348246,0.7051499,0.034334823,-0.6946422,0.13807513,0.2195988,0.3050524,0.23143864
929,301364913,0.70501703,0.03424646,-0.69479257,0.13801876,0.35841644,0.39936626,0.15571594
930,301381580,0.7046946,0.03439817,-0.69509625,0.13809916,0.80589205,0.3547411,0.032606125
931,301398247,0.7045179,0.03472095,-0.69519097,0.13844204,0.64378613,0.29746506,0.049386024
932,301414914,0.7044015,0.03484022,-0.69526714,0.13862225,0.37978473,0.19008209,0.2279911
933,301431581,0.70425236,0.03474646,-0.6954346,0.13856347,0.009055851,-0.06285314,0.2217989
934,301448248,0.70389515,0.034661572,-0.6958251,0.13843916,-0.13408452,-0.12090489,0.14118767
935,301464915,0.7036436,0.034671254,-0.6960715,0.1384758,-0.12526068,-0.13211103,0.1791563
936,301481582,0.70351905,0.034886338,-0.6961408,0.1387059,-0.3081542,-0.06575008,0.19264889
937,301498249,0.70349705,0.03491404,-0.6961347,0.1388416,-0.38891387,0.00389069,0.2451334
938,301514916,0.7036156,0.034839068,-0.6959882,0.13899393,-0.40690398,0.01932616,0.27839756
939,301531583,0.7037982,0.034625076,-0.6958103,0.13901368,-0.36106953,0.035107765,0.26203823
940,301548250,0.7038754,0.034477748,-0.6957168,0.13912752,-0.11432241,0.28200978,0.18742561
941,301564917,0.70411265,0.034216747,-0.6954824,0.13916335,0.13146451,0.1968119,0.1174078
942,301581584,0.7047218,0.033717807,-0.6949106,0.13905938,0.10444358,-0.097689606,0.2095747
943,301598251,0.705604,0.03298583,-0.69408286,0.13889378,-0.34634987,-0.3050594,0.49382496
944,301614918,0.7063637,0.032336913,-0.6934111,0.13854109,-0.25986198,-0.032403372,0.28789616
945,301631585,0.7071804,0.032128632,-0.6925595,0.13868234,0.11561833,0.15656804,0.11397362
946,301648252,0.70836586,0.03217647,-0.6912172,0.13931654,0.3153084,0.15895946,0.12436867
947,301664919,0.7099223,0.032167364,-0.68949395,0.13993393,0.19516034,0.047288693,0.29108334
948,301681586,0.7116258,0.03205943,-0.687626,0.1404962,0.12548777,-0.010991305,0.36701298
949,301698253,0.71323705,0.031924453,-0.68581843,0.14118999,0.40121558,0.087433755,0.28122997
950,301714920,0.7148696,0.03212434,-0.6838674,0.14234595,0.5345567,0.1720603,0.1882534
951,301731587,0.71662915,0.0322879,-0.6817339,0.14368941,0.7278914,-0.018760629,0.29689503
952,301748254,0.7184058,0.032581083,-0.6795249,0.14520802,0.83142036,0.044431496,0.3738289
953,301764921,0.7202936,0.03329538,-0.6771559,0.14675237,1.051488,0.125714,0.24578953
954,301781588,0.7225626,0.034141596,-0.67433596,0.14837901,1.0520952,0.19482906,0.36745358
955,301798255,0.72550344,0.03482212,-0.670854,0.14964853,0.8395424,0.21222946,0.4398756
956,301814922,0.7292599,0.035501108,-0.66653734,0.15051715,0.14577962,0.059433464,0.48171043
957,301831589,0.7335677,0.035397448,-0.6617641,0.1506699,-0.12196834,-0.030026702,0.56533146
958,301848256,0.7382281,0.034670874,-0.65671074,0.15018609,0.036558673,0.14687006,0.43262005
959,301864923,0.74353445,0.03313574,-0.6510985,0.14878598,0.30974293,-0.067433804,0.4660473
960,301881590,0.74949026,0.031129273,-0.6447865,0.14681101,0.74212825,-0.119544424,0.580143
961,301898257,0.7558383,0.028692394,-0.6380057,0.14436726,0.87911135,-0.5792905,0.52032375
962,301914924,0.7617479,0.025223587,-0.631712,0.14160341,0.75770444,-0.8783957,-0.09427929
963,301931591,0.7675862,0.020633921,-0.62550455,0.13833782,0.04097171,-1.2203066,-0.30424976
964,301948258,0.77355486,0.015717905,-0.6188434,0.13567016,-0.36165202,-1.1378691,0.20575714
965,301964925,0.7789847,0.011525379,-0.6123043,0.1346894,0.348821,-1.3021445,0.44430542
966,301981592,0.7843004,0.008541963,-0.60547054,0.13495627,-0.052576505,-1.7325263,0.4102707
967,301998259,0.7888044,0.007336421,-0.5992346,0.13659963,0.16473083,-0.7274301,-0.11693478
968,302014926,0.79316145,0.007271728,-0.5929465,0.13879558,-0.34937668,0.021408323,-0.24325371
969,302031593,0.79761606,0.006787194,-0.58649695,0.14068398,-0.7577067,0.075575754,-0.005084992
970,302048260,0.8019591,0.004445674,-0.5802566,0.14195725,-0.6445251,-1.3657978,0.28079987
971,302064927,0.8066506,0.001566315,-0.57330626,0.14366646,-0.439228,-2.3767266,0.46733475
972,302081594,0.8124211,7.64E-04,-0.5642407,0.14700979,-1.2080679,-2.1569617,0.63130474
973,302098261,0.8180902,0.001718673,-0.55476,0.15157335,-2.2852895,-0.41080078,0.13042259
974,302114928,0.82234454,0.00241114,-0.5472074,0.15593421,-2.7903636,0.5995127,-0.5790949
975,302131595,0.8254998,0.001829779,-0.54179204,0.1581653,-3.214305,0.7930393,-1.108038
976,302148262,0.8288952,-9.17E-04,-0.53641903,0.15872823,-1.2398102,0.056131147,-1.2992878
977,302164929,0.83263147,-0.00423746,-0.5301951,0.16002405,-0.9507262,-1.0558467,-0.13159275
978,302181596,0.8362602,-0.005985031,-0.523407,0.16335912,-1.5891371,-1.0740641,0.22108078
979,302198263,0.8405238,-0.004765666,-0.5148716,0.168559,-0.8458754,0.015030247,-0.002738953
980,302214930,0.8455871,-0.002533059,-0.50493056,0.17328912,-0.7407577,-0.32747865,-0.23769188
981,302231597,0.8505724,4.49E-04,-0.4946241,0.17855372,-0.2254459,-0.4387124,-0.940156
982,302248264,0.8556646,0.004487006,-0.48350042,0.18453464,0.76565033,0.6451987,-1.3716326
983,302264931,0.8607819,0.008899734,-0.4720802,0.19006217,0.7415357,3.3617587,-0.32151127
984,302281598,0.86575043,0.010946329,-0.46155277,0.1932187,1.9643923,4.7649517,0.68330956
985,302298265,0.87044996,0.008664032,-0.45255107,0.19351308,2.0022957,1.7265816,0.93697166
986,302314932,0.87459373,0.005151582,-0.44421622,0.19426568,2.5697744,-0.79324514,-0.004217148
987,302331599,0.8785445,0.003894646,-0.43528306,0.19667494,2.374205,-1.2619874,0.5063486
988,302348266,0.882313,0.003726776,-0.42613828,0.19981076,2.4401932,0.9885333,0.87734604
989,302364933,0.8859192,0.003135372,-0.41753468,0.20201546,2.7112746,2.4809895,1.0064459
990,302381600,0.88923955,0.001050201,-0.40999946,0.20287976,1.9331537,1.8038235,0.841691
991,302398267,0.89215666,-0.002116643,-0.40289867,0.20428549,0.9341121,0.29342875,0.19290161
992,302414934,0.8947963,-0.005386977,-0.39598113,0.20619774,0.43666965,-0.1298261,-0.30162334
993,302431601,0.89731574,-0.006778702,-0.38861045,0.20920871,1.2927645,1.2419548,0.33707523
994,302448268,0.8999655,-0.007049245,-0.3810692,0.21167608,1.8399372,3.2427425,1.4293251
995,302464935,0.90303797,-0.008423474,-0.37349758,0.21203542,2.0161736,1.2007661,1.3115873
996,302481602,0.9059714,-0.010415874,-0.366253,0.21207051,0.19122405,-1.4169532,0.8640604
997,302498269,0.9085582,-0.012499176,-0.35919803,0.21295618,-0.4764572,-2.1199758,-0.6404209
998,302514936,0.91115713,-0.012887025,-0.35090363,0.2156409,-1.5391558,-1.2217525,-1.6383591
999,302531603,0.91383356,-0.012587614,-0.34251475,0.21781072,-1.6775993,1.6935799,-0.6620846
1000,302548270,0.91665554,-0.015127326,-0.3350161,0.2174536,-0.24934122,2.0307376,-0.14997292
1001,302564937,0.91981053,-0.01993144,-0.3265252,0.21665768,0.22162539,-1.0867245,0.24304771
1002,302581604,0.9229912,-0.023720749,-0.3167213,0.21730207,-0.24736045,-3.52017,-0.04185009
1003,302598271,0.9255294,-0.023778873,-0.3069069,0.22055848,-1.7022644,-2.222134,-1.0240202
1004,302614938,0.927812,-0.022464026,-0.29737413,0.22413607,-1.3488172,0.5870827,-0.6799965
1005,302631605,0.9304618,-0.023082057,-0.28806153,0.22524717,0.81784886,1.0100012,-0.01696682
1006,302648272,0.93354106,-0.024817608,-0.27725053,0.22588728,0.94249916,-0.73510337,0.33828163
1007,302664939,0.93642974,-0.027021369,-0.26566076,0.22759962,0.11921466,-0.7625816,-0.10465336
1008,302681606,0.93885,-0.028479934,-0.2540701,0.23066431,-0.54505646,0.47578263,-0.18820286
1009,302698273,0.9410168,-0.029539905,-0.24308716,0.23351969,-0.10265995,-0.06166686,0.10399723
1010,302714940,0.9434904,-0.02988855,-0.23188166,0.23488584,-0.40944466,0.09970525,0.049826622
1011,302731607,0.9458881,-0.030706882,-0.22057079,0.23602778,-0.6075816,1.0808645,-0.06474686
1012,302748274,0.9481074,-0.032980014,-0.2094831,0.23691647,0.10363379,0.53153217,0.16002369
1013,302764941,0.95008916,-0.03640465,-0.19925505,0.23729849,0.06751589,0.42726627,0.534132
1014,302781608,0.9516335,-0.041472774,-0.19073717,0.23727807,-0.43198147,0.07735037,0.50656605
1015,302798275,0.95277673,-0.04556461,-0.18364964,0.23753089,0.031398207,-0.9159116,0.89535046
1016,302814942,0.9536141,-0.048090745,-0.17816687,0.23784792,0.71244687,-0.664555,1.1695061
1017,302831609,0.9542447,-0.0494457,-0.1747471,0.23757865,0.4270825,-0.02428228,1.3226109
1018,302848276,0.95486283,-0.04949513,-0.17259152,0.23665899,0.029678833,0.7024959,0.83017254
1019,302864943,0.95536923,-0.04966595,-0.17125121,0.23555,-0.32750213,1.4380549,0.09174061
1020,302881610,0.95569295,-0.051115848,-0.17076707,0.2342752,-0.5846414,0.60491884,-0.1347723
1021,302898277,0.95593387,-0.05284688,-0.17046675,0.23312372,-0.87309706,-0.55763507,-0.18928719
1022,302914944,0.9560974,-0.053818494,-0.16976792,0.23274077,-0.9243539,-0.82779574,-0.20818996
1023,302931611,0.9562699,-0.053800944,-0.16854386,0.23292565,-0.7934816,-0.76351833,-0.16552544
1024,302948278,0.9564654,-0.05334709,-0.16707924,0.23328204,-0.9494236,-0.63956296,0.09101391
1025,302964945,0.9566206,-0.05291,-0.16586477,0.23361203,-0.9084262,-0.47509697,-0.053653717
1026,302981612,0.95676845,-0.052536123,-0.16472103,0.23389956,-0.70527446,-0.003505745,-0.112942696
1027,302998279,0.95690525,-0.05253732,-0.16346434,0.2342215,-0.3196708,0.50480616,-0.1406784
1028,303014946,0.95699584,-0.053038538,-0.16206697,0.23470941,0.1116787,0.43612248,-0.13955021
1029,303031613,0.95707524,-0.05370243,-0.1603972,0.23538059,0.2985372,0.11040238,0.033823967
1030,303048280,0.957178,-0.054185886,-0.15854962,0.2361022,0.4112482,0.07151596,0.42737865
1031,303064947,0.9572995,-0.054277442,-0.15695652,0.23665205,0.337082,0.15893188,0.42274952
1032,303081614,0.9574208,-0.054182876,-0.15594654,0.23685092,0.15337962,0.22457004,0.14299774
1033,303098281,0.9575449,-0.05438367,-0.15535189,0.23669359,0.12839814,0.21474303,0.04916191
1034,303114948,0.957705,-0.054901835,-0.15490268,0.23622033,0.32457098,-0.023251886,0.23207092
1035,303131615,0.95780325,-0.055128742,-0.1546509,0.23593354,0.4314295,-0.35888508,0.19470024
1036,303148282,0.95785606,-0.055074822,-0.15434718,0.23593062,0.41397393,-0.6486078,0.102581024
1037,303164949,0.95790833,-0.05486799,-0.15393,0.23603913,0.16068347,-0.69399214,0.13279533
1038,303181616,0.9579467,-0.054486405,-0.15349309,0.23625602,-0.05627218,-0.68362755,0.20315742
1039,303198283,0.9579695,-0.053878333,-0.15313333,0.23653622,-0.19800365,-0.5769867,0.10549259
1040,303214950,0.95797306,-0.053114526,-0.15274635,0.23694503,-0.29131895,-0.47356617,-0.09975338
1041,303231617,0.95796496,-0.052112088,-0.1522144,0.2375427,-0.27230126,-0.4825581,-0.17055607
1042,303248284,0.9579642,-0.05086522,-0.15145922,0.2382973,-0.52202535,-0.29451576,-0.09333801
1043,303264951,0.9579281,-0.04974622,-0.15067875,0.23917112,-0.7033929,-0.018004918,0.021471024
1044,303281618,0.9579091,-0.04903033,-0.14993492,0.23986128,-0.54461426,0.39021257,0.24100494
1045,303298285,0.9579224,-0.04874139,-0.14941631,0.24019171,-0.3135669,0.55747086,0.20934105
1046,303314952,0.95793813,-0.048770647,-0.14914192,0.24029274,-0.23500666,0.403222,0.011108398
1047,303331619,0.95800126,-0.048772357,-0.14877602,0.24026705,-0.24669069,0.34219584,-0.06485748
1048,303348286,0.9580736,-0.04854773,-0.14848942,0.24020182,-0.21131171,0.23480299,-0.07669258
1049,303364953,0.958148,-0.048316244,-0.14832851,0.24005117,-0.13174814,0.21261992,-0.003394127
1050,303381620,0.95823807,-0.048290797,-0.14814511,0.23980986,-0.015972571,0.41880962,0.14923573
1051,303398287,0.9583436,-0.048565377,-0.14805269,0.23938942,0.07132656,0.5138209,0.19833183
1052,303414954,0.95844144,-0.049332254,-0.14812455,0.23879577,0.09735956,0.2763541,0.061782837
1053,303431621,0.95852923,-0.05022127,-0.14820738,0.23820606,0.030990183,0.015140544,0.07866573
1054,303448288,0.9586008,-0.050850067,-0.14836827,0.23768327,0.13363415,-0.23918954,0.07239914
1055,303464955,0.9586745,-0.051155362,-0.14854375,0.2372105,0.2719007,-0.37320042,-0.004835129
1056,303481622,0.9587752,-0.051378354,-0.1484834,0.2367927,0.28018412,-0.29283428,0.075798035
1057,303498289,0.95887345,-0.051568266,-0.14826989,0.23648736,0.2477754,-0.2715692,0.20253372
1058,303514956,0.95893896,-0.05172834,-0.14811346,0.2362848,0.27877653,-0.42889348,0.09201527
1059,303531623,0.9589545,-0.05179855,-0.14805113,0.23624526,0.207148,-0.553034,-0.027497292
1060,303548290,0.9589449,-0.05156828,-0.14789838,0.23643033,0.22095373,-0.48261386,0.05792141
1061,303564957,0.9589237,-0.051124167,-0.14773971,0.23671216,0.23624347,-0.30691352,0.124176025
1062,303581624,0.95890903,-0.05072476,-0.14749841,0.2370079,0.2501965,-0.113502726,0.18069267
1063,303598291,0.9588856,-0.050377835,-0.14729865,0.23730065,0.31474155,-0.042173654,0.15161228
1064,303614958,0.9588443,-0.050019164,-0.14717922,0.23761739,0.19533055,-0.15802522,0.04318428
1065,303631625,0.9587915,-0.04956352,-0.14705627,0.23800169,0.029748904,-0.06814547,0.06274605
1066,303648292,0.9587307,-0.04913735,-0.14679791,0.2384938,-0.10745888,0.18368755,0.1833849
1067,303664959,0.95867133,-0.048699226,-0.14646535,0.23902602,-0.004009375,0.44884434,0.15587711
1068,303681626,0.9586194,-0.048331507,-0.14589436,0.2396576,0.2733561,0.30061382,-0.060014725
1069,303698293,0.95856196,-0.04769147,-0.14531533,0.24036603,0.12149013,-0.1031726,-0.29020882
1070,303714960,0.95845014,-0.046982147,-0.1453884,0.2409073,-0.45785683,-0.2000304,-0.08950615
1071,303731627,0.958295,-0.04629242,-0.14584668,0.24138078,-0.3631702,0.022794718,0.110515594
1072,303748294,0.9581732,-0.04582475,-0.14639352,0.24162179,-0.23324974,0.18725765,0.39243412
1073,303764961,0.9581018,-0.045757517,-0.14709146,0.24149418,-0.37437806,0.4268431,0.31111908
1074,303781628,0.9580646,-0.045724567,-0.1478907,0.24115904,-0.2926627,0.19977486,-0.003325462
1075,303798295,0.9579753,-0.045367442,-0.14886963,0.24097867,-0.5412233,-0.02324004,0.3541336
1076,303814962,0.9577743,-0.044488754,-0.15033434,0.24103239,-0.69557804,-0.72926253,-0.18969631
1077,303831629,0.95750266,-0.043845847,-0.15183587,0.2412883,-1.2157958,-0.6683422,-0.31651688
1078,303848296,0.9571783,-0.04381615,-0.15342352,0.24157675,-1.1619613,0.28236035,-0.14245415
1079,303864963,0.9567727,-0.043537036,-0.15551619,0.24189508,-0.8450886,0.24965246,0.4450159
1080,303881630,0.95616525,-0.042466674,-0.15925883,0.24205264,-1.2712677,-0.63390154,0.33222294
1081,303898297,0.95542336,-0.04170786,-0.16395743,0.24197713,-2.3491457,-1.0216234,0.123550415
1082,303914964,0.95444274,-0.041622188,-0.16991943,0.24174714,-2.8069801,-0.63364,-0.25976562
1083,303931631,0.9534357,-0.03978794,-0.17499733,0.24240667,-1.565733,0.4519885,0.011278153
1084,303948298,0.95258003,-0.038645588,-0.18111308,0.24146175,-0.21274868,1.9735554,0.06959629
1085,303964965,0.9520171,-0.038714997,-0.18764248,0.23866855,0.8656142,0.12159127,0.587965
1086,303981632,0.95137125,-0.03788821,-0.19345096,0.23673189,-0.4626755,-1.3153496,0.45488262
1087,303998299,0.95019263,-0.03756859,-0.20054922,0.23560703,-1.26698,-1.2722158,0.3662796
1088,304014966,0.94879067,-0.038532805,-0.20903578,0.23371662,-0.74025893,-0.46748704,-0.03159237
1089,304031633,0.94727147,-0.03971694,-0.21805443,0.23142919,0.7139547,-0.33297372,0.13758278
1090,304048300,0.9455741,-0.040395584,-0.22736716,0.2292817,1.096557,-1.2506617,0.67761517
1091,304064967,0.94359016,-0.040198945,-0.23697096,0.22775954,0.822158,-0.46871358,0.66921806
1092,304081634,0.9413417,-0.0398106,-0.24682225,0.2266665,0.36506057,0.020862475,0.56357
1093,304098301,0.9391098,-0.039471723,-0.25643125,0.22531211,-0.5674722,0.11270454,-0.1157856
1094,304114968,0.93683875,-0.038914144,-0.26650003,0.22316968,-0.022330957,0.6756329,-0.17461014
1095,304131635,0.9343266,-0.038730763,-0.27720833,0.2206746,0.47141498,1.3508631,0.2634096
1096,304148302,0.9318027,-0.03845764,-0.2881138,0.21740119,1.1157682,0.90649194,0.3999548
1097,304164969,0.9291477,-0.036846563,-0.29905167,0.21425004,1.2189263,0.27111846,0.8985052
1098,304181636,0.9263335,-0.034792453,-0.30999246,0.21120717,1.1741842,0.06590229,0.29421425
1099,304198303,0.9234154,-0.03308469,-0.32050934,0.20854554,0.80627245,-0.4723757,-0.090724945
1100,304214970,0.9203425,-0.03180472,-0.33069718,0.20641181,0.718707,-0.3348041,-0.36608505
1101,304231637,0.91719896,-0.030723143,-0.3405255,0.20457877,0.739985,-0.010336217,-0.060201645
1102,304248304,0.9139528,-0.029964855,-0.35038894,0.2025532,0.5861909,0.12486758,0.19811058
1103,304264971,0.91057926,-0.029249705,-0.36035892,0.20034827,0.51105523,-0.57227206,0.11553383
1104,304281638,0.90696913,-0.028041013,-0.37046224,0.19846043,0.18619077,-1.1852424,-0.3660221
1105,304298305,0.9032969,-0.025990842,-0.38004556,0.19736359,-0.082984775,-0.343533,-0.17131042
1106,304314972,0.89963996,-0.023898188,-0.3892281,0.19643387,0.2099037,0.6530971,-0.023924828
1107,304331639,0.89600676,-0.02208166,-0.3983745,0.19491044,0.1156465,0.8128336,0.222929
1108,304348306,0.8923785,-0.02066515,-0.40745193,0.19293667,-0.07825546,0.276478,0.15722466
1109,304364973,0.88882697,-0.01902091,-0.4160139,0.1912199,-0.7870238,0.09594527,0.08719826
1110,304381640,0.8854556,-0.01727035,-0.42377713,0.18997602,-0.40534723,0.9409129,-0.6123667
1111,304398307,0.8822612,-0.016124662,-0.43109784,0.18846183,-0.06311201,1.5130496,-0.5005827
1112,304414974,0.8790278,-0.015726663,-0.4386723,0.18611158,0.21937282,1.1761123,-0.003762245
1113,304431641,0.87571746,-0.01614356,-0.4465124,0.1830105,-0.042066034,0.08999201,0.2786312
1114,304448308,0.8724913,-0.016349668,-0.4540882,0.17973165,-0.1404504,-0.58057433,-0.057183266
1115,304464975,0.8692507,-0.015823066,-0.46128693,0.17713065,0.2419986,-0.47953677,-0.21626282
1116,304481642,0.866016,-0.014653281,-0.46809822,0.17519641,0.99159735,-0.16059677,0.08117485
1117,304498309,0.8627117,-0.013315866,-0.4748407,0.17345136,1.0123506,-0.67937905,0.5874243
1118,304514976,0.8592593,-0.011687992,-0.48150894,0.1723194,0.82240164,-0.5377657,0.4862051
1119,304531643,0.85579336,-0.009716004,-0.4879578,0.17154741,0.49238116,-0.7515112,0.5575218
1120,304548310,0.8521383,-0.007745102,-0.4944271,0.17131883,0.70896703,0.5850864,-0.36463547
1121,304564977,0.84844786,-0.004939289,-0.5007854,0.17127167,0.83426523,1.4645267,0.013105392
1122,304581644,0.84491354,-0.002646809,-0.507053,0.17035069,0.7520156,2.4099774,0.4672718
1123,304598311,0.84141177,-0.001758829,-0.51356244,0.16818084,0.40764785,1.101367,0.54547215
1124,304614978,0.83788615,-0.002473443,-0.5202923,0.16505988,-0.38949233,-0.21370502,0.4365282
1125,304631645,0.8344491,-0.003220986,-0.52664244,0.16229697,-0.07699038,0.42715308,-0.10138035
1126,304648312,0.83097404,-0.003359129,-0.53280705,0.15998596,-0.002271339,1.0718082,-0.26455784
1127,304664979,0.8273596,-0.00369935,-0.53927046,0.15702803,-0.11792454,0.7127327,-0.17562866
1128,304681646,0.8238324,-0.004777419,-0.54568833,0.15332915,0.5363466,0.20817873,-0.16250992
1129,304698313,0.8207095,-0.006157695,-0.55139756,0.14955582,-0.033052202,-1.560986,0.8501072
1130,304714980,0.81721413,-0.007423978,-0.55741763,0.14628659,0.36489028,-0.9083438,-0.18262577
1131,304731647,0.8131772,-0.005208648,-0.56356835,0.14530808,1.4158039,-0.051543538,-0.3896351
1132,304748314,0.8086807,-0.001300599,-0.5699264,0.14569116,1.3958218,0.9243474,-0.04932499
1133,304764981,0.80478144,0.001913301,-0.5755512,0.14516228,0.9799188,1.0311775,0.94476223
1134,304781648,0.80074614,0.00246616,-0.58179414,0.14255872,0.124623224,-0.22724739,0.32485867
1135,304798315,0.7971409,0.003889226,-0.58739984,0.13971706,-1.8503572,-1.0296836,0.115060806
1136,304814982,0.79291666,0.004421185,-0.59366024,0.13725655,-0.40878597,-0.7538404,-0.77848625
1137,304831649,0.78838784,0.006401938,-0.59976155,0.1367413,0.45133525,-0.77264386,-0.49487114
1138,304848316,0.7839964,0.009705092,-0.6053418,0.13720381,-0.22272128,-1.2338617,0.34379864
1139,304864983,0.7799664,0.014684514,-0.610054,0.13884959,-0.64151573,-1.2080075,0.23646545
1140,304881650,0.77587163,0.01925923,-0.61479664,0.14030512,-1.429824,-1.1972394,-0.10456753
1141,304898317,0.77068377,0.02283999,-0.6207668,0.14206228,0.07586745,0.19821203,-0.7938843
1142,304914984,0.7650985,0.026440673,-0.62689656,0.14468503,1.7730366,0.94883096,-0.091796875
1143,304931651,0.7597264,0.02967057,-0.63282514,0.14654726,2.6455302,0.5462736,0.8732939
1144,304948318,0.7543767,0.03298803,-0.63879806,0.14755622,2.5479958,-0.08169599,0.5701294
1145,304964985,0.74947524,0.03639494,-0.64420617,0.14821917,0.75969326,-1.2300074,0.4147005
1146,304981652,0.744749,0.039096735,-0.6494577,0.14843556,-0.3167733,-0.8629638,0.058772087
1147,304998319,0.7401449,0.04245876,-0.6543251,0.14916298,-0.94708383,0.30501094,-0.19989872
1148,305014986,0.73639107,0.044826902,-0.65839934,0.14912161,-0.79175085,0.8591242,0.18232155
1149,305031653,0.73384124,0.046573307,-0.66139805,0.14788094,-1.2178439,0.6773749,0.4186678
1150,305048320,0.7321884,0.046903394,-0.66364604,0.14588523,-2.5676966,0.12809724,0.38325882
1151,305064987,0.7297388,0.045187734,-0.6671469,0.14269753,-1.7098609,0.436221,-0.29825592
1152,305081654,0.72660875,0.043535154,-0.67098993,0.14115724,-0.08141236,-0.32646337,0.46812916
1153,305098321,0.72437394,0.04284705,-0.6735009,0.14089532,0.6560065,-1.2510386,0.62085915
1154,305114988,0.7229759,0.043681413,-0.67481405,0.14153484,-0.41472203,-1.0347416,0.5461035
1155,305131655,0.7214168,0.043427616,-0.6765994,0.14104459,-1.8314155,-1.0029804,0.7442045
1156,305148322,0.7187861,0.042213105,-0.6799023,0.13894528,-1.1264745,-0.45808488,0.19846725
1157,305164989,0.7163321,0.043812532,-0.6822254,0.13973472,0.5416841,0.52495974,-0.065096855
1158,305181656,0.71567047,0.04588609,-0.68236685,0.14175393,0.79146206,0.17811418,0.11062527
1159,305198323,0.7164489,0.047260586,-0.6812911,0.14254157,-0.55587894,0.25344056,0.15365028
1160,305214990,0.7173617,0.046923254,-0.6805712,0.1414983,-1.4298079,-0.0950086,0.56704235
1161,305231657,0.717411,0.045190886,-0.6811824,0.13884653,-0.97127914,-0.72903323,0.43068504
1162,305248324,0.7157835,0.045562718,-0.682825,0.13905595,0.8591297,0.42333528,-0.05739975
1163,305264991,0.71404165,0.04727604,-0.68397903,0.14174207,2.1938972,1.0761993,-0.071619034
1164,305281658,0.7125832,0.048018187,-0.6851498,0.14317006,1.7806973,1.0161813,0.21667004
1165,305298325,0.71137947,0.04848016,-0.6864143,0.14294337,1.2782795,0.55592704,0.07025242
1166,305314992,0.71089184,0.048602413,-0.6870002,0.14251322,0.6009924,0.19231072,0.04035759
1167,305331659,0.7110602,0.04830154,-0.68690556,0.14223027,-0.03418273,-0.15940768,0.30133438
1168,305348326,0.7120005,0.04777558,-0.6860965,0.14160821,-1.342818,-0.9884185,0.5189438
1169,305364993,0.7124819,0.04641105,-0.6859725,0.14023452,-1.9793521,-1.4205241,0.66794777
1170,305381660,0.7116069,0.045895454,-0.6870924,0.13936184,-0.72526604,-0.37891504,-0.027292252
1171,305398327,0.70978063,0.047462516,-0.68846196,0.14137667,1.2309462,1.3129283,-0.2812128
1172,305414994,0.7081752,0.04855827,-0.6895813,0.14358336,2.430195,2.1474504,-0.08038139
1173,305431661,0.7073579,0.048511263,-0.69040483,0.14366989,1.9553146,1.2255646,0.14245701
1174,305448328,0.70734274,0.047913484,-0.6906461,0.1427833,0.37278786,-0.23352239,0.60187626
1175,305464995,0.70716757,0.0467189,-0.691201,0.14135489,-0.31532538,-0.88014406,0.48475838
1176,305481662,0.70680416,0.04682482,-0.69157386,0.14131394,-0.12178372,-0.5018066,-0.012644768
1177,305498329,0.70703167,0.046940707,-0.69117385,0.14209154,-0.054530904,-0.56827945,0.19506645
1178,305514996,0.7078656,0.046723906,-0.69028753,0.14232016,-0.64292383,-0.55144316,0.25170994
1179,305531663,0.7088334,0.045824885,-0.6894582,0.14181402,-1.2784668,-0.782052,0.5661783
1180,305548330,0.70917135,0.04461213,-0.6894381,0.140604,-0.9126561,-0.40136075,0.31963825
1181,305564997,0.7090239,0.04457938,-0.6895756,0.14068308,-0.13388292,0.66230625,0.14097404
1182,305581664,0.7093272,0.044346873,-0.6891881,0.14112572,0.3401742,0.69259787,0.32411575
1183,305598331,0.71009165,0.04381708,-0.68845946,0.14100376,0.10961746,0.0367709,0.14227772
1184,305614998,0.71085465,0.04341333,-0.6877028,0.14097627,-0.30841032,-0.48869947,0.16676235
1185,305631665,0.711512,0.04275842,-0.68706304,0.1409795,-0.4208807,-0.96903217,0.3938284
1186,305648332,0.71187836,0.04263123,-0.6866212,0.1413207,-0.09070603,-0.7609368,0.13855839
1187,305664999,0.7126655,0.04332102,-0.6854599,0.14277373,-0.06129664,-0.57637966,0.17511654
1188,305681666,0.7140496,0.0440184,-0.6837007,0.14407443,-0.28808764,-0.23027763,0.17132759
1189,305698333,0.71539426,0.04387287,-0.6822238,0.14444894,-0.46858776,0.373814,0.13097858
1190,305715000,0.715903,0.04270088,-0.6818196,0.14418817,0.12855259,1.2932707,0.29585648
1191,305731667,0.71561706,0.041477583,-0.68229157,0.14373173,1.4637046,1.7680631,-0.020119667
1192,305748334,0.71555555,0.040258113,-0.6825701,0.14306073,1.9505453,1.0892582,-0.30784225
1193,305765001,0.7160663,0.0390084,-0.6822541,0.14235607,1.4117851,0.13979453,0.007585526
1194,305781668,0.716936,0.03801502,-0.6815285,0.14172219,0.33071557,-0.52009004,0.29658604
1195,305798335,0.717824,0.03724499,-0.6807005,0.14141043,-0.70957047,-0.9467101,0.41384697
1196,305815002,0.7185264,0.03631836,-0.6800681,0.14112657,-1.2083553,-1.437398,0.4810953
1197,305831669,0.71894765,0.036323644,-0.67952245,0.14160784,-1.1339653,-1.3110768,0.31651592
1198,305848336,0.7191173,0.037019767,-0.6790392,0.14287855,-0.78802264,-0.49910137,-0.041563988
1199,305865003,0.7194846,0.038135413,-0.6782067,0.14467922,-0.46412867,0.2626192,0.01688099
1200,305881670,0.7202425,0.038297065,-0.6772258,0.1454582,-0.7843414,0.099556915,0.29934406
1201,305898337,0.7205628,0.037533015,-0.6769573,0.1453208,-0.36183128,0.14209796,0.32195854
1202,305915004,0.72042197,0.03773021,-0.67694443,0.14602607,0.2126614,0.4077123,0.020992279
1203,305931671,0.7204252,0.03801119,-0.67664874,0.14730205,0.47127616,0.35408366,0.2226677
1204,305948338,0.720317,0.03831273,-0.67650336,0.14841656,0.62140536,-0.09240794,0.40546036
1205,305965005,0.7201278,0.039180342,-0.67634743,0.14981203,0.34003025,-0.5655663,0.32206059
1206,305981672,0.72024715,0.04070392,-0.675688,0.15179425,-0.090107016,-0.47218028,0.15297604
1207,305998339,0.7206772,0.042101353,-0.67473257,0.15361263,-0.27736437,-0.2101255,0.40798855
1208,306015006,0.7212839,0.042525087,-0.673877,0.15440114,0.004071065,-0.12853481,0.2932577
1209,306031673,0.7221277,0.04249461,-0.67288953,0.15477197,0.41751504,0.27599803,0.14850044
1210,306048340,0.7236631,0.041951176,-0.6712354,0.15493146,0.47074288,0.4696899,0.23985863
1211,306065007,0.72598183,0.04080539,-0.66885304,0.15469258,0.12990752,0.40388584,0.31075668
1212,306081674,0.7284254,0.039038904,-0.6664962,0.15383103,0.063270256,-0.019561406,0.52208614
1213,306098341,0.7307125,0.037664358,-0.66424924,0.15304427,0.7150041,-0.43661597,0.24445629
1214,306115008,0.7336505,0.037223138,-0.66088086,0.15367688,0.6976188,-0.8906915,0.4372816
1215,306131675,0.73725754,0.03739372,-0.65652686,0.15502954,0.01787433,-0.84930986,0.56993675
1216,306148342,0.7413609,0.037368137,-0.6516651,0.15597785,-0.39326927,-0.16205852,0.6150112
1217,306165009,0.745439,0.037643377,-0.64687,0.15643407,0.19119254,0.43502793,0.26682472
1218,306181676,0.7501179,0.03712844,-0.64170724,0.15545157,0.2428674,0.5336634,0.024666786
1219,306198343,0.7555531,0.034066472,-0.6362858,0.15207933,-0.2626912,0.16641833,0.24223423
1220,306215010,0.7610288,0.028722465,-0.6310922,0.14745064,-0.5373037,-0.5008348,0.35754395
1221,306231677,0.76652884,0.022765303,-0.6256688,0.14304855,-0.8078062,-1.0594293,0.79522324
1222,306248344,0.7708113,0.017513573,-0.62111497,0.14059886,1.0928764,-0.62882006,-0.208395
1223,306265011,0.7749218,0.015189434,-0.61590034,0.14121287,1.1274167,-0.15091732,-0.25804806
1224,306281678,0.77999556,0.012590769,-0.60948724,0.14135998,-0.14006573,-0.23241447,0.35444736
1225,306298345,0.7858433,0.007858496,-0.60248315,0.139325,-1.7679065,-1.6560023,0.68650246
1226,306315012,0.7907356,0.003084356,-0.5963822,0.13807562,-1.9409349,-1.9258274,-0.017267227
1227,306331679,0.7941352,0.002871233,-0.5912655,0.1405526,0.28012833,-0.7022446,-0.8013191
1228,306348346,0.79813355,0.00513217,-0.5847831,0.14489292,-0.5192944,-0.8136345,-0.6582794
1229,306365013,0.8021013,0.003955179,-0.5786687,0.14754249,-1.2512553,-1.4182715,-0.2683258
1230,306381680,0.80639946,9.17E-05,-0.57233804,0.14885467,-2.6124141,-1.5986122,0.2703247
1231,306398347,0.8100361,-0.002343783,-0.5665026,0.15139188,-0.61918366,-1.3608491,-0.59524727
1232,306415014,0.814267,-1.26E-04,-0.55885935,0.15701662,2.6324997,0.84813565,-1.8084469
1233,306431681,0.8200293,0.004605953,-0.54847956,0.16343099,0.35433242,0.118040025,-0.13192081
1234,306448348,0.82485616,0.004238972,-0.5402242,0.16661721,-1.0763932,1.6065266,0.90861034
1235,306465015,0.82919616,0.001062245,-0.5330823,0.16812147,-0.17300707,2.0823722,0.15447044
1236,306481682,0.8329397,-0.002026127,-0.52664125,0.16989706,1.0143067,0.3865872,0.21690845
1237,306498349,0.8370973,-0.002842055,-0.5187165,0.17378739,2.52167,-0.39743623,-0.58678436
1238,306515016,0.8404814,1.50E-04,-0.51129586,0.1793784,0.7792216,0.40947694,0.15777588
1239,306531683,0.84367275,0.002389227,-0.504749,0.18288791,1.5020839,2.8451831,1.3507109
1240,306548350,0.84744537,0.00392432,-0.4973758,0.18559992,1.9368689,2.6376102,1.7466002
1241,306565017,0.85174686,0.004832145,-0.4885925,0.18918374,1.6652788,-0.044555087,0.38442898
1242,306581684,0.8554953,0.005979279,-0.48012653,0.19385462,0.7601908,-1.4693946,-0.3479166
1243,306598351,0.85883874,0.008089627,-0.47210687,0.19863176,0.1311194,0.58563,-0.055538177
1244,306615018,0.86270523,0.00953837,-0.4633853,0.20231633,0.6090862,2.4847233,0.5061846
1245,306631685,0.8671208,0.008309178,-0.45433852,0.20400503,1.0054663,1.6980892,0.23226738
1246,306648352,0.8719037,0.006505971,-0.4441935,0.20601594,0.27095088,0.4113419,-0.31452847
1247,306665019,0.87642497,0.004134081,-0.43404794,0.20850283,-0.94140816,-1.0410658,-0.8082018
1248,306681686,0.880311,0.002639954,-0.4242569,0.21227513,-0.8465406,-0.9304199,-0.6662502
1249,306698353,0.8843677,0.00117321,-0.41404033,0.2155742,0.27608657,-0.13328457,0.21247864
1250,306715020,0.88875204,-0.001539758,-0.4034796,0.21755596,0.5939356,-0.121956125,0.18532753
1251,306731687,0.8931208,-0.004892323,-0.39258263,0.21954337,-0.41702846,-0.7194063,-0.19907284
1252,306748354,0.8969761,-0.006782266,-0.38180506,0.22275944,-1.7872627,-1.406627,-0.315732
1253,306765021,0.90043837,-0.007324913,-0.37130708,0.22648853,-1.8140092,0.008975369,-0.87754536
1254,306781688,0.9043293,-0.008193324,-0.35984573,0.22943713,-0.50369805,1.5317804,-0.5740118
1255,306798355,0.9086514,-0.010620713,-0.34741035,0.23141913,0.8384378,0.7029349,-0.06453705
1256,306815022,0.9129321,-0.013331171,-0.33426392,0.2337817,0.6953126,-1.6718159,0.014816284
1257,306831689,0.9161901,-0.015673755,-0.32255754,0.23730913,0.05528906,-2.8157306,0.062815666
1258,306848356,0.9185835,-0.015817052,-0.31187358,0.24227698,-0.95647365,0.53896666,0.08401394
1259,306865023,0.92126024,-0.016942827,-0.3011543,0.24557573,1.0670022,2.9073596,0.3956871
1260,306881690,0.9242997,-0.019691829,-0.2901303,0.24721584,1.63954,1.2850497,0.66556454
1261,306898357,0.9274124,-0.022458548,-0.27826038,0.2489619,1.0892053,0.6841752,0.17449379
1262,306915024,0.9302222,-0.026234753,-0.2663122,0.2511679,0.9518134,0.080658644,0.059568405
1263,306931691,0.9325096,-0.02793776,-0.25521994,0.25400165,0.4150003,0.2845678,1.1668253
1264,306948358,0.9345219,-0.028553328,-0.24523354,0.25636476,1.6454726,0.69159883,1.1977129
1265,306965025,0.9367532,-0.02884593,-0.23546585,0.25734505,0.525331,0.6795233,0.72597885
1266,306981692,0.9387988,-0.030087747,-0.22662725,0.25768295,-0.5213822,1.4016298,-0.05155468
1267,306998359,0.94064385,-0.033807945,-0.21871063,0.25733426,0.006898057,1.0486734,-0.12268162
1268,307015026,0.9422704,-0.03969062,-0.21161993,0.25647077,0.5680057,0.015554742,0.19486523
1269,307031693,0.9436255,-0.04531972,-0.20515832,0.2558048,0.30463585,-1.2731453,0.6028681
1270,307048360,0.9446618,-0.049223877,-0.19972943,0.2555548,0.14728476,-1.4820148,0.7742138
1271,307065027,0.9453666,-0.052593995,-0.1956059,0.25546652,0.22906613,-0.8794478,0.47560406
1272,307081694,0.94589627,-0.054521423,-0.19184223,0.25595552,0.039956518,-0.72575116,0.83241844
1273,307098361,0.9463177,-0.054809228,-0.18842296,0.25687432,-0.31074357,-0.28054613,0.60198975
1274,307115028,0.9467502,-0.05415509,-0.18547972,0.25756028,-0.78029627,0.27832013,0.5173807
1275,307131695,0.94721186,-0.053453535,-0.18349932,0.2574279,-0.79845285,0.78006625,0.20301437
1276,307148362,0.9476795,-0.053356078,-0.18202254,0.25677454,-0.51577157,0.9892983,-0.09495926
1277,307165029,0.9481128,-0.05352784,-0.18050751,0.25620854,-0.30679813,0.6900094,-0.3665657
1278,307181696,0.94848764,-0.05395596,-0.1788221,0.25591302,-0.5630429,0.2343389,-0.6090746
1279,307198363,0.94877374,-0.05455503,-0.17710444,0.25592038,-0.8995622,-0.17182945,-0.6141033
1280,307215030,0.94895536,-0.05521683,-0.1754192,0.25626552,-0.8147507,-0.29217222,-0.1931982
1281,307231697,0.9491383,-0.055822413,-0.17369173,0.2566334,-0.42274,-0.024285521,0.24259663
1282,307248364,0.94937336,-0.0564006,-0.17203417,0.25675356,-0.312494,0.060684577,0.123417854
1283,307265031,0.94961303,-0.057349563,-0.17042968,0.25672734,-0.39244795,-0.1834173,-0.009039879
1284,307281698,0.94982487,-0.058159888,-0.16890574,0.2567682,-0.4454726,-0.3787731,-0.09432411
1285,307298365,0.9499838,-0.058639985,-0.16748874,0.2569995,-0.51776874,-0.5664143,-0.001634598
1286,307315032,0.9502115,-0.059115577,-0.16597554,0.25703043,-0.21853599,-0.12698649,0.34874535
1287,307331699,0.9504317,-0.0598866,-0.164638,0.2568972,0.23490888,-0.10246381,0.38800907
1288,307348366,0.9505651,-0.06099186,-0.16356029,0.25683284,0.38851872,-0.93706274,0.11113453
1289,307365033,0.9506216,-0.061422728,-0.1623852,0.2572661,-0.09647523,-1.4285343,0.009412766
1290,307381700,0.95062643,-0.060976673,-0.1612767,0.2580505,-0.33684117,-0.95863855,0.05796814
1291,307398367,0.95061946,-0.06012116,-0.16047864,0.25877327,-0.07355901,-0.16740265,0.02585888
