sep=,
DeviceTag:,tibiaLeft,,,,,,,,,,,,,,,,,
FirmwareVersion:,1.6.0,,,,,,,,,,,,,,,,,
AppVersion:,2020.4,,,,,,,,,,,,,,,,,
SyncStatus:,Synced,,,,,,,,,,,,,,,,,
OutputRate:,60Hz,,,,,,,,,,,,,,,,,
FilterProfile:,General,,,,,,,,,,,,,,,,,
Measurement Mode:,Sensor fusion Mode - Complete (Quaternion),,,,,,,,,,,,,,,,,
StartTime:,2021-03-19 14:39:42.178 +0800,,,,,,,,,,,,,,,,,
© Xsens Technologies B. V. 2005-2021,,,,,,,,,,,,,,,,,,,

PacketCounter,SampleTimeFine,Quat_W,Quat_X,Quat_Y,Quat_Z,FreeAcc_X,FreeAcc_Y,FreeAcc_Z
1, 285897937, 0.5637629, -0.4136876, -0.6716259, -0.24485411, 0.058727134, -0.07319826, 0.025298119
2, 285914604, 0.5638601, -0.4136914, -0.6715506, -0.24482985, -1.6092932E-4, -0.086951904, -0.024892807
3, 285931271, 0.5639694, -0.4136831, -0.67148435, -0.24477397, -0.053553257, -0.03948155, -0.031931877
4, 285947938, 0.564087, -0.4136466, -0.6714261, -0.24472459, -0.033499226, 0.0059610903, -0.017922401
5, 285964605, 0.5641278, -0.41372544, -0.671333, -0.24475254, -0.016364278, 0.03090022, -0.05995655
6, 285981272, 0.5641293, -0.41385666, -0.67122847, -0.2448141, -0.036796045, 0.0313953, -0.032759666
7, 285997939, 0.56407124, -0.41406494, -0.6710932, -0.24496645, -0.016664678, 0.039826434, -0.03641224
8, 286014606, 0.5640551, -0.41416454, -0.67104083, -0.24497874, -0.0815706, 0.012571934, -0.020342827
9, 286031273, 0.56410736, -0.41411546, -0.67106813, -0.24486633, -0.09222234, -0.018886175, -0.027247429
10, 286047940, 0.5642198, -0.4139523, -0.67115486, -0.24464563, -0.040523794, -0.041115656, -0.020778656
11, 286064607, 0.564348, -0.41376656, -0.6712443, -0.24441873, -0.046568923, -0.05252443, -0.027669907
12, 286081274, 0.5644779, -0.41358277, -0.6713312, -0.24419087, -0.049502756, -0.05119341, -0.011668205
13, 286097941, 0.5645926, -0.4134356, -0.6714043, -0.24397415, -0.038503237, -0.04079916, 0.0013751984
14, 286114608, 0.5646811, -0.4133135, -0.67147285, -0.24378717, -0.027735723, -0.020592025, -0.025603294
15, 286131275, 0.5647658, -0.41321006, -0.6715215, -0.24363266, 0.007822953, -0.023946954, -0.035108566
16, 286147942, 0.56482613, -0.41313013, -0.67155564, -0.24353336, -0.008801046, -0.05940371, -0.05959797
17, 286164609, 0.5649294, -0.413006, -0.6716002, -0.24338144, -0.00426418, -0.07628587, 0.014813423
18, 286181276, 0.56503415, -0.41285548, -0.6716552, -0.24324241, 0.043152753, -0.031503256, -8.172989E-4
19, 286197943, 0.5650803, -0.412843, -0.6716361, -0.24320899, 0.038854152, -0.04067444, -0.04956627
20, 286214610, 0.5650914, -0.41288477, -0.67159075, -0.24323751, -0.002898963, -0.03189038, -0.020335197
21, 286231277, 0.56508064, -0.4129534, -0.6715311, -0.24331076, -0.018782688, -0.060461372, -0.029478073
22, 286247944, 0.5651226, -0.41290283, -0.67154104, -0.24327174, -0.04285101, -0.027397323, -0.006164551
23, 286264611, 0.56511605, -0.41294602, -0.6715032, -0.24331836, -0.034374952, -0.033580363, 0.014961243
24, 286281278, 0.5651035, -0.4129714, -0.6714881, -0.24334548, -0.08109408, -0.020115942, -0.054676056
25, 286297945, 0.5650825, -0.4129962, -0.67148817, -0.24335192, -0.07642176, 0.01583187, -0.055516243
26, 286314612, 0.56502587, -0.4131048, -0.67144567, -0.24341646, -0.019391984, 0.047501195, -0.019290924
27, 286331279, 0.56490976, -0.4132734, -0.6713939, -0.243543, -0.073304206, 0.010770866, -0.013888359
28, 286347946, 0.5647639, -0.41345215, -0.67134106, -0.24372357, -0.12120638, -0.08133569, -0.021603584
29, 286364613, 0.56466055, -0.4135233, -0.6713319, -0.24386713, -0.057726692, -0.16591568, -0.025314331
30, 286381280, 0.5645963, -0.41355762, -0.6713216, -0.24398659, 0.073424004, -0.14326689, -0.0011825562
31, 286397947, 0.5645611, -0.41359907, -0.6712734, -0.24412942, 0.1297819, -0.07802435, 0.022821426
32, 286414614, 0.5644603, -0.41378298, -0.6711406, -0.24441633, 0.15684463, 0.03980587, -0.06444168
33, 286431281, 0.5642241, -0.41417196, -0.6709311, -0.24487755, -0.017059403, 0.07653911, -0.04114151
34, 286447948, 0.56397355, -0.41451177, -0.6707774, -0.24530032, -0.15548903, -0.010731304, -0.0032196045
35, 286464615, 0.5638527, -0.4146651, -0.6707121, -0.24549708, -0.10085173, -0.044098884, -0.033338547
36, 286481282, 0.56388706, -0.41460648, -0.6707373, -0.2454487, -0.10422588, -0.1393791, 0.052241325
37, 286497949, 0.56413704, -0.41421983, -0.6708882, -0.24511467, -0.07552414, -0.1305376, 0.045319557
38, 286514616, 0.56450063, -0.4136633, -0.671111, -0.24460721, 0.017282916, -0.047223594, -0.019622803
39, 286531283, 0.5649253, -0.41304424, -0.6713487, -0.24401996, 0.12257987, 0.104767226, -0.056591034
40, 286547950, 0.56522244, -0.41266674, -0.671496, -0.24356456, 0.073917076, 0.16618747, -0.051419258
41, 286564617, 0.5654294, -0.41242036, -0.6716032, -0.2432058, -0.036100026, 0.15913877, -0.062280655
42, 286581284, 0.5654909, -0.41237706, -0.671649, -0.24300997, -0.035046384, 0.12566435, -0.08318806
43, 286597951, 0.56549054, -0.4123875, -0.6716945, -0.24286668, 0.037766986, 0.05818042, -0.067564964
44, 286614618, 0.56537485, -0.41260555, -0.6716539, -0.2428785, 0.06674544, -0.010550259, -0.034116745
45, 286631285, 0.5651804, -0.412963, -0.6715347, -0.24305247, 0.08299036, -0.08813675, 0.0012292862
46, 286647952, 0.5649663, -0.4133985, -0.6713546, -0.24330793, 0.008197114, -0.15631737, -0.0059080124
47, 286664619, 0.5648552, -0.41365638, -0.67122906, -0.24347341, -0.020208253, -0.17475092, -0.0011463165
48, 286681286, 0.5648645, -0.4136617, -0.67123055, -0.2434384, -0.060090117, -0.10016756, 0.0011606216
49, 286697953, 0.56492037, -0.4136615, -0.67122257, -0.24333127, -0.11289952, 0.021966854, -0.01981163
50, 286714620, 0.56503457, -0.41359797, -0.6712509, -0.24309604, -0.15081917, 0.06716229, -0.033712387
51, 286731287, 0.56511605, -0.41357926, -0.671279, -0.24286093, -0.10981639, 0.052286834, -0.004433632
52, 286747954, 0.56520927, -0.41347668, -0.671362, -0.24258897, -0.029593116, -0.049990907, -0.02548027
53, 286764621, 0.5652679, -0.41339663, -0.6714459, -0.24235651, 0.058739204, -0.032203745, -0.032503128
54, 286781288, 0.5653002, -0.41338217, -0.6714821, -0.24220496, 0.110636234, -0.08868368, 0.011177063
55, 286797955, 0.56530714, -0.41341928, -0.6714727, -0.24215204, 0.08311374, -0.1647125, 0.016557693
56, 286814622, 0.5652498, -0.4136042, -0.67135304, -0.242302, 0.01707639, -0.19536999, -0.007962227
57, 286831289, 0.56523633, -0.4137076, -0.6712465, -0.2424514, -0.021188581, -0.18173951, -0.0242033
58, 286847956, 0.5651982, -0.4139945, -0.6709886, -0.24276474, -0.028158162, -0.15236096, -0.032250404
59, 286864623, 0.5652293, -0.4140529, -0.6708636, -0.24293801, -0.042530492, -0.08979521, 0.02640152
60, 286881290, 0.5652082, -0.41420746, -0.67069066, -0.24320076, -0.056152266, -0.011818024, -0.013785362
61, 286897957, 0.56520694, -0.41429383, -0.6705726, -0.24338195, -0.06814552, -0.013379262, -0.012722015
62, 286914624, 0.565254, -0.4142802, -0.67050976, -0.2434695, -0.10385664, 0.026513778, -0.04317856
63, 286931291, 0.56533706, -0.41419467, -0.6704975, -0.24345577, -0.07486879, 0.079001546, -0.04876709
64, 286947958, 0.56539434, -0.4141628, -0.67046404, -0.243469, -0.039836716, 0.05410444, -0.04205513
65, 286964625, 0.5654329, -0.41414112, -0.6704471, -0.24346323, -0.04209196, 0.059913095, -0.055315018
66, 286981292, 0.565433, -0.414155, -0.67044026, -0.24345772, -0.044464327, 0.0070310473, -0.048235893
67, 286997959, 0.56539214, -0.4141864, -0.67044896, -0.24347544, -0.013046004, -0.016971786, 0.00683403
68, 287014626, 0.56532496, -0.41424188, -0.6704515, -0.24353006, -0.004115768, -0.032585952, -0.006459236
69, 287031293, 0.56527865, -0.41427004, -0.6704537, -0.24358329, 0.03718764, -0.08977867, -0.003124237
70, 287047960, 0.5651739, -0.41454622, -0.67026985, -0.2438626, 0.06770744, -0.09591656, -0.0063552856
71, 287064627, 0.5651694, -0.41458887, -0.6702184, -0.24394198, 0.06381116, -0.069946595, -0.028169632
72, 287081294, 0.5651615, -0.41468227, -0.6701251, -0.24405745, -0.015604334, -0.07334689, -0.0044202805
73, 287097961, 0.5651793, -0.41470915, -0.6700705, -0.24412048, -0.077266194, -0.0091432445, -0.015709877
74, 287114628, 0.56519324, -0.4147442, -0.6700207, -0.24416573, -0.05977854, 0.051893674, -0.030386925
75, 287131295, 0.565197, -0.41475376, -0.67000836, -0.24417467, -0.04230966, 0.04871733, -0.009400368
76, 287147962, 0.5651685, -0.41484135, -0.6699594, -0.24422584, -0.05409103, 0.044360615, -0.03388405
77, 287164629, 0.5651166, -0.41501674, -0.66985923, -0.24432303, -0.016954798, 0.034598913, -0.04278183
78, 287181296, 0.5651169, -0.41503555, -0.6698677, -0.24426717, -0.04378261, 0.019147014, -0.040759087
79, 287197963, 0.5650832, -0.4150895, -0.6698758, -0.24423097, -0.05530426, 0.04293997, -0.014665604
80, 287214630, 0.5649979, -0.41517392, -0.66990536, -0.24420343, -0.055525087, 3.2185864E-5, -0.038949966
81, 287231297, 0.56489533, -0.41528574, -0.669927, -0.24419186, -0.046121005, -0.03516887, -0.020661354
82, 287247964, 0.5647581, -0.41547394, -0.66990995, -0.24423607, -0.005145268, 0.0020750943, -0.020505905
83, 287264631, 0.5645848, -0.41574478, -0.66984504, -0.24435368, 0.013615515, -0.0066649327, -0.026060104
84, 287281298, 0.56442165, -0.41599587, -0.6697896, -0.24445498, 0.034815717, -0.0049318136, -0.009165764
85, 287297965, 0.56429267, -0.4161797, -0.66976917, -0.24449621, 0.05861985, -0.041964557, 0.0073604584
86, 287314632, 0.5641895, -0.41634008, -0.6697444, -0.24452901, 0.031234594, -0.15282899, -0.017662048
87, 287331299, 0.56412005, -0.41651157, -0.669678, -0.2445786, -0.035180714, -0.17407301, -0.004404068
88, 287347966, 0.5641075, -0.41660598, -0.66961545, -0.24461843, 0.009998629, -0.14465468, 0.014267921
89, 287364633, 0.5641159, -0.41667825, -0.6695531, -0.24464646, 0.023101851, -0.061730254, -0.010201454
90, 287381300, 0.56408954, -0.41682547, -0.6694501, -0.24473809, -0.010128266, -0.030027848, -0.0012760162
91, 287397967, 0.5640432, -0.4169658, -0.669355, -0.2448664, -0.062046748, -0.026000367, -0.05992794
92, 287414634, 0.56402135, -0.4170511, -0.66929436, -0.24493682, -0.062005177, -0.018944064, -0.030228615
93, 287431301, 0.56398517, -0.41715413, -0.66922694, -0.24502899, -0.001844429, -0.023348164, 0.0045404434
94, 287447968, 0.5639517, -0.41722736, -0.6691799, -0.24511003, 0.012719675, -0.03170017, -0.006426811
95, 287464635, 0.56391674, -0.41731814, -0.669114, -0.24521542, -0.012922625, -0.06828522, -0.01466465
96, 287481302, 0.56392074, -0.41738802, -0.6690345, -0.2453042, 0.02295791, -0.08924537, -0.009861946
97, 287497969, 0.564035, -0.4172654, -0.66904396, -0.2452243, 0.032169774, -0.10963735, -0.0060892105
98, 287514636, 0.56413203, -0.41725323, -0.66895616, -0.24526112, 0.054916687, -0.07643204, -0.024050713
99, 287531303, 0.5642368, -0.41727158, -0.6688364, -0.24531592, 0.021833193, -0.086126246, -0.010261536
100, 287547970, 0.56437796, -0.4172187, -0.66873825, -0.24534881, -0.05176292, -0.0858482, -0.0073862076
101, 287564637, 0.56452954, -0.41714975, -0.66864586, -0.24536934, -0.032295834, -0.076168075, -0.01591587
102, 287581304, 0.5646502, -0.41715342, -0.6685, -0.24548273, 0.0034912725, -0.090271965, -0.0079422
103, 287597971, 0.5647934, -0.417103, -0.66838115, -0.24556239, 0.028233709, -0.060756408, -0.028909683
104, 287614638, 0.5649159, -0.4171081, -0.6682269, -0.24569146, 0.0061846036, 0.0029535003, -0.02697277
105, 287631305, 0.56498855, -0.41718748, -0.66804314, -0.24588932, -0.025165323, 0.0142507395, -0.018658638
106, 287647972, 0.5651002, -0.41717562, -0.6679043, -0.24603018, -0.038354374, -0.045806523, -0.008397102
107, 287664639, 0.5652146, -0.41719425, -0.6677397, -0.24618275, -0.0075533967, -0.074320294, -0.019282341
108, 287681306, 0.5653175, -0.41729742, -0.66751206, -0.24638863, 0.034365118, -0.06787306, -0.045484543
109, 287697973, 0.5654536, -0.41732422, -0.6673191, -0.24655347, -0.013203357, -0.056444846, -0.033207893
110, 287714640, 0.56556267, -0.41739005, -0.66710114, -0.24678206, -0.037429925, -0.03907476, -0.008782387
111, 287731307, 0.5657089, -0.41735518, -0.6669376, -0.24694759, -0.038746864, -0.025975559, -0.006419182
112, 287747974, 0.56580997, -0.41745996, -0.6666831, -0.24722625, 0.023963718, -0.025981817, -0.0267725
113, 287764641, 0.5659245, -0.41755217, -0.6664247, -0.24750488, 0.06021193, -0.10184658, -0.042583466
114, 287781308, 0.5660743, -0.4176192, -0.6661562, -0.24777156, 0.049007896, -0.114171535, 0.0074329376
115, 287797975, 0.56633574, -0.41750458, -0.6659502, -0.24792136, 0.08045483, -0.09192127, 0.021878242
116, 287814642, 0.56658554, -0.41748494, -0.66566473, -0.24814977, 0.09492931, -0.060807817, -0.035079002
117, 287831309, 0.5668554, -0.4175449, -0.6652856, -0.2484493, 0.1627219, -0.15099977, -0.024482727
118, 287847976, 0.5672337, -0.417544, -0.66486436, -0.2487149, 0.1646897, -0.15968727, 0.051343918
119, 287864643, 0.56764233, -0.41762108, -0.6642983, -0.24916567, 0.24180995, -0.30728406, 0.027227402
120, 287881310, 0.5681132, -0.41776758, -0.6635933, -0.24972473, 0.32528043, -0.50376225, 0.18383789
121, 287897977, 0.56871665, -0.41777268, -0.6628233, -0.25038645, 0.31746283, -0.56618, 0.11608219
122, 287914644, 0.56953174, -0.41758743, -0.66201586, -0.25097895, 0.3340189, -0.51581514, -0.044911385
123, 287931311, 0.5705108, -0.41741216, -0.6610367, -0.25162652, 0.49100074, -0.43281227, 0.03446865
124, 287947978, 0.5716169, -0.4173315, -0.65982044, -0.25244087, 0.40317422, -0.54579586, 0.05928421
125, 287964645, 0.57292473, -0.41717565, -0.6584474, -0.25331715, 0.2780651, -0.33646345, 0.10031605
126, 287981312, 0.57415664, -0.4172999, -0.65680194, -0.2545919, 0.38535085, 0.08621923, 0.023940086
127, 287997979, 0.5748387, -0.41826478, -0.65477616, -0.25667858, 0.15719464, 0.4519405, -0.32981873
128, 288014646, 0.5750967, -0.4196977, -0.6527734, -0.25885415, -0.38609314, 0.42994237, -0.18736649
129, 288031313, 0.5753295, -0.42089286, -0.6510415, -0.26075086, -0.45452255, 0.2153163, 0.0057430267
130, 288047980, 0.5756421, -0.42183432, -0.6495548, -0.26224318, -0.21462786, 0.52011925, -0.28961563
131, 288064647, 0.5757786, -0.42302, -0.64813757, -0.26353663, -0.17372589, 1.0447146, -0.25483513
132, 288081314, 0.5755547, -0.4246124, -0.64674675, -0.264878, -0.4140837, 1.2155902, -0.16396618
133, 288097981, 0.57489896, -0.42657515, -0.64546216, -0.26627848, -0.7012051, 1.2204595, -0.281497
134, 288114648, 0.57423323, -0.42826542, -0.6446095, -0.26706633, -0.9628565, 1.034414, -0.23215675
135, 288131315, 0.57397515, -0.42909268, -0.6444548, -0.26666623, -0.9351485, 1.109592, -0.13485813
136, 288147982, 0.57376784, -0.42952582, -0.644809, -0.26555613, -0.64862925, 1.2014221, -0.098976135
137, 288164649, 0.57326037, -0.43006724, -0.64539295, -0.26435488, -0.5914066, 1.0571964, -0.11065388
138, 288181316, 0.5723438, -0.43083516, -0.6460645, -0.2634487, -0.80871594, -0.14990813, 0.11841965
139, 288197983, 0.57163924, -0.4308169, -0.6471413, -0.26236287, -0.8995324, -0.82799125, 0.047620773
140, 288214650, 0.5711815, -0.43026203, -0.64849466, -0.2609247, -0.67634284, -0.95871615, -0.033709526
141, 288231317, 0.57066786, -0.42975897, -0.6498089, -0.25960466, -0.53844005, -0.5716342, 0.11452198
142, 288247984, 0.56982917, -0.42977136, -0.6508074, -0.25892437, -0.021927739, -0.34469298, 0.070189476
143, 288264651, 0.5687478, -0.43046805, -0.6510446, -0.25954723, 0.29369512, -1.9519033, 0.42751598
144, 288281318, 0.56820667, -0.43030608, -0.65148324, -0.25990033, 0.40751442, -1.6183225, -0.31119633
145, 288297985, 0.56880033, -0.42896876, -0.6521905, -0.2590374, 1.4353164, -0.83801174, 0.4174652
146, 288314652, 0.5701084, -0.42743692, -0.6524956, -0.25792325, 2.4730005, 0.009960407, 0.35200882
147, 288331319, 0.5706579, -0.42783353, -0.651558, -0.25842026, 1.9087492, 0.04896331, -0.1619072
148, 288347986, 0.5707433, -0.42888606, -0.6502658, -0.25973824, -0.3396552, -0.08618168, -0.21879005
149, 288364653, 0.5714982, -0.42882884, -0.64943445, -0.26025257, -1.2303246, -0.76045525, 0.41445446
150, 288381320, 0.5728913, -0.42738003, -0.64931583, -0.25986856, -0.82252276, -0.4627478, 0.043808937
151, 288397987, 0.57398486, -0.42642677, -0.64903843, -0.25971442, 0.1741376, 0.13294148, -0.15107155
152, 288414654, 0.574248, -0.42668474, -0.6483896, -0.26032907, -0.3792085, 1.0707353, -0.25561047
153, 288431321, 0.5735479, -0.4279671, -0.6476802, -0.26153022, -1.6994405, 1.6969949, -0.52143
154, 288447988, 0.57208556, -0.42926002, -0.64762884, -0.26273844, -3.3115542, 0.9697329, 0.17502403
155, 288464655, 0.5711025, -0.42816457, -0.64923143, -0.26270932, -3.5538263, 0.040202383, 0.24324703
156, 288481322, 0.571342, -0.42463747, -0.6522277, -0.26048234, -2.2260761, 0.20779933, -0.7686434
157, 288497989, 0.5718136, -0.42056972, -0.655713, -0.25727683, 0.42157763, 1.5404505, -0.34773922
158, 288514656, 0.570687, -0.4191006, -0.65839386, -0.25532243, 1.085323, 2.455621, -0.22517586
159, 288531323, 0.5678823, -0.42034024, -0.6603561, -0.25446892, -0.06756707, 2.2532117, -0.3957348
160, 288547990, 0.56481427, -0.42163855, -0.66254574, -0.25345546, -0.7803857, 1.1141334, -0.2229271
161, 288564657, 0.56267405, -0.4209377, -0.6654225, -0.25183946, -1.5733515, -1.1759568, -0.31490612
162, 288581324, 0.5616987, -0.41804087, -0.66918874, -0.24884479, -0.6799293, -1.6175505, -0.49628448
163, 288597991, 0.5607185, -0.41508412, -0.67303413, -0.24561305, 0.27039972, -1.1853573, 0.17081738
164, 288614658, 0.5593095, -0.4127394, -0.67686266, -0.24223317, 0.5290082, 0.237354, 0.46207142
165, 288631325, 0.55782855, -0.4108672, -0.68049306, -0.23863216, 1.1663085, 1.9455967, -0.4282093
166, 288647992, 0.5562323, -0.41085646, -0.6823752, -0.23699723, 2.2301254, -0.05117832, -0.26281166
167, 288664659, 0.55448353, -0.411553, -0.68323475, -0.23740943, 1.4786127, -2.3220923, 0.20152092
168, 288681326, 0.5529935, -0.41148892, -0.6844351, -0.23753832, 0.24246775, -2.65301, 0.34860802
169, 288697993, 0.55271834, -0.40985894, -0.6863133, -0.23556985, -1.1008344, -1.5432222, 0.5555153
170, 288714660, 0.55357087, -0.4064283, -0.6890368, -0.23152603, 0.0041653872, -0.108916745, 0.5566387
171, 288731327, 0.5541585, -0.40387973, -0.6910949, -0.22842564, 2.2480183, 0.63381034, -0.020056725
172, 288747994, 0.5543339, -0.40319493, -0.6918265, -0.22698984, 3.4152343, 0.43175775, 0.0875864
173, 288764661, 0.5540874, -0.4042677, -0.6913655, -0.22708894, 1.6219854, -0.0042448463, -0.090470314
174, 288781328, 0.55336887, -0.40580934, -0.69087726, -0.22757646, -1.0336189, -0.34825912, -0.24654007
175, 288797995, 0.5531175, -0.40566146, -0.6914882, -0.22659369, -1.9683186, -0.39451534, 0.2668724
176, 288814662, 0.55400187, -0.4034832, -0.6930072, -0.22366305, -0.2889097, -0.28027898, 0.26490593
177, 288831329, 0.5552758, -0.40150264, -0.69411075, -0.2206254, 1.1280388, 0.43605244, -0.1445837
178, 288847996, 0.5556335, -0.40172875, -0.6939982, -0.21966489, 1.0175139, 0.572546, -0.33036423
179, 288864663, 0.55456537, -0.4038788, -0.6934001, -0.2203096, -1.2458075, -0.06343499, -0.20081425
180, 288881330, 0.55336416, -0.40510628, -0.693706, -0.2201134, -2.6768215, -0.3284058, 0.00975132
181, 288897997, 0.5535068, -0.40374565, -0.69507915, -0.21791117, -1.1344197, -0.27265182, 0.42743015
182, 288914664, 0.55444163, -0.4012493, -0.6965142, -0.21555093, 0.8418535, -0.51859474, 0.016817093
183, 288931331, 0.5550297, -0.40005708, -0.6969799, -0.2147475, 1.3253319, -0.51927245, -0.40712166
184, 288947998, 0.55465794, -0.40053067, -0.69682354, -0.21533155, -0.6723712, -0.34277478, -0.09049606
185, 288964665, 0.55401057, -0.40030646, -0.69745344, -0.21537521, -2.423783, -0.73648214, 0.38787365
186, 288981332, 0.5542806, -0.39767703, -0.69914466, -0.2140645, -1.4391979, -0.73500806, 0.51611996
187, 288997999, 0.5555504, -0.39397323, -0.70078385, -0.21225406, 1.3475478, -0.3026553, -0.12048435
188, 289014666, 0.5567188, -0.39195782, -0.7011197, -0.21181458, 1.940613, -0.15777154, -0.3405857
189, 289031333, 0.55694604, -0.39189497, -0.700551, -0.21321015, 0.6315441, -0.51662874, 0.2525816
190, 289048000, 0.5566593, -0.3915112, -0.7005636, -0.21461807, -1.5767069, -1.5331838, 0.6153517
191, 289064667, 0.5574616, -0.38855127, -0.7017474, -0.21404652, -1.1972824, -1.5065303, 0.82869434
192, 289081334, 0.55923903, -0.38420832, -0.7033517, -0.21197425, 1.2417307, -0.3800792, 0.32654762
193, 289098001, 0.56055665, -0.3816455, -0.70420206, -0.21029319, 2.442816, 0.79690284, -0.5256548
194, 289114668, 0.56114155, -0.38127136, -0.7040425, -0.2099462, 1.279086, 0.429974, -0.15765095
195, 289131335, 0.56234974, -0.37944233, -0.7041949, -0.20951557, 0.6650141, -0.03721245, 0.5252991
196, 289148002, 0.56375104, -0.377477, -0.7042155, -0.20922968, 0.53190494, -0.2197566, 0.15211487
197, 289164669, 0.5639065, -0.37643686, -0.704635, -0.20927258, -1.7787735, -0.12676805, 0.64097023
198, 289181336, 0.5638644, -0.37487212, -0.7057845, -0.20831893, -1.9878509, -0.09464142, -0.36634064
199, 289198003, 0.5645821, -0.37292156, -0.7066718, -0.20686282, -0.8135038, 0.14653543, -1.0246143
200, 289214670, 0.5652214, -0.3713774, -0.70714855, -0.20626464, 0.64323074, 0.31627285, -0.2772236
201, 289231337, 0.5658148, -0.37028491, -0.7071751, -0.2065118, 1.4618973, 0.0838102, 0.7468519
202, 289248004, 0.5667895, -0.3689906, -0.7069254, -0.20700945, 1.5130605, -0.6829531, 0.75701046
203, 289264671, 0.5676986, -0.3675569, -0.70678455, -0.20754933, 1.1690881, -0.85643035, 0.038121223
204, 289281338, 0.56863916, -0.3660825, -0.7066261, -0.20811883, 0.8573523, -0.37199607, 0.038895607
205, 289298005, 0.5699013, -0.3652564, -0.70597917, -0.20831311, 1.0013642, 0.47371045, -0.22097015
206, 289314672, 0.570765, -0.36588803, -0.704861, -0.20862694, 0.74169934, 0.96735936, -0.6299696
207, 289331339, 0.5709633, -0.36734572, -0.70366985, -0.20954159, -0.31178895, 0.7416591, -0.62933064
208, 289348006, 0.57125676, -0.36805713, -0.7027914, -0.2104394, -0.6776522, 0.68413806, -0.5313635
209, 289364673, 0.5716947, -0.36772376, -0.70239073, -0.2111691, -1.3405064, 0.29327023, 0.05669117
210, 289381340, 0.572531, -0.36605972, -0.7025449, -0.21128197, -1.4314078, 0.2129247, 0.36039257
211, 289398007, 0.57357395, -0.36372405, -0.7031376, -0.21051374, -0.4910441, 0.63545597, -0.21590233
212, 289414674, 0.57415307, -0.36219755, -0.70377314, -0.20944065, -0.2064075, 0.74883276, -0.5887394
213, 289431341, 0.5743096, -0.3616457, -0.7041801, -0.20859559, -0.5326323, 0.31875315, -0.16303825
214, 289448008, 0.574406, -0.36167866, -0.70417273, -0.2082975, -0.40210384, -0.06957199, 0.17590141
215, 289464675, 0.57437116, -0.36165687, -0.70419234, -0.20836511, -0.28430894, -0.6038162, 0.16695023
216, 289481342, 0.5743154, -0.3610211, -0.7045987, -0.20824741, -0.40364608, -0.9903792, 0.034103394
217, 289498009, 0.574549, -0.3596132, -0.7053094, -0.20763262, -0.272163, -1.0379655, -0.069963455
218, 289514676, 0.5750495, -0.35783255, -0.70606995, -0.2067365, -0.00749886, -0.7427223, -0.03358555
219, 289531343, 0.57563823, -0.35601532, -0.70671564, -0.20602836, 0.26283425, -0.46307057, 0.30125713
220, 289548010, 0.5763418, -0.35436442, -0.7070598, -0.2057262, 0.46505803, -0.30331087, 0.70877075
221, 289564677, 0.5770701, -0.35290268, -0.70717853, -0.20578925, 0.5235559, -0.25781906, 0.50625134
222, 289581344, 0.57758904, -0.35156545, -0.7073853, -0.2059119, 0.30652702, -0.44126442, 0.10390568
223, 289598011, 0.57791305, -0.35007372, -0.7079153, -0.20572212, -0.083664924, -0.54170555, -0.4103861
224, 289614678, 0.57813567, -0.34821668, -0.7088238, -0.20511995, -0.13712877, -0.37583256, -0.79199696
225, 289631345, 0.57831514, -0.34616625, -0.7099288, -0.2042608, 0.15742867, -0.016988661, -0.8805895
226, 289648012, 0.578428, -0.34422198, -0.711015, -0.20344743, 0.30059588, 0.28549802, -0.5190058
227, 289664679, 0.57861865, -0.34266597, -0.7117207, -0.20306352, 0.13176803, 0.39170578, 0.18428993
228, 289681346, 0.5790259, -0.34114152, -0.71213055, -0.20303264, -0.06283441, 0.5994795, 0.5092411
229, 289698013, 0.5795593, -0.33965236, -0.7123795, -0.20313367, -0.43534958, 0.5348476, 0.7560053
230, 289714680, 0.5804183, -0.33762124, -0.71275795, -0.20273949, -0.55833983, 0.42309996, 0.58205986
231, 289731347, 0.5815067, -0.33524853, -0.7132084, -0.20197293, -0.069245204, 0.44274732, 0.16231632
232, 289748014, 0.5824949, -0.33313265, -0.7135851, -0.20129469, 0.17728287, 0.4713162, -0.022381783
233, 289764681, 0.5832408, -0.33147398, -0.71389186, -0.20078406, 0.14939025, 0.41578004, 0.020129204
234, 289781348, 0.58389103, -0.33028346, -0.71392494, -0.20073806, 0.10581237, 0.33345306, 0.035048485
235, 289798015, 0.584364, -0.32936135, -0.7139221, -0.2008876, -0.030434454, 0.11393865, -0.24032402
236, 289814682, 0.5847914, -0.3283258, -0.71405977, -0.20084989, -0.12189994, -0.015322819, -0.4105425
237, 289831349, 0.5853241, -0.3271279, -0.71427345, -0.20049295, -0.045748632, -0.06611703, -0.4492445
238, 289848016, 0.585932, -0.3258517, -0.71451867, -0.19992068, 0.17143533, 0.024082515, -0.40651417
239, 289864683, 0.586517, -0.3248584, -0.7146375, -0.19939668, 0.45294678, 0.10491855, -0.2870903
240, 289881350, 0.5869126, -0.3244045, -0.71457195, -0.19920582, 0.39137343, 0.17329496, -0.2370348
241, 289898017, 0.5871566, -0.32443607, -0.7143481, -0.19923897, 0.23401895, 0.15577824, -0.1763277
242, 289914684, 0.58730334, -0.32474396, -0.71404564, -0.1993881, 0.07860548, 0.1304121, -0.24948215
243, 289931351, 0.5872973, -0.3252298, -0.7137766, -0.1995775, -0.0934901, 0.054024197, -0.23449898
244, 289948018, 0.58718574, -0.32565233, -0.71361035, -0.19981094, -0.20225732, -0.048656758, -0.25225353
245, 289964685, 0.58706176, -0.32588357, -0.7135457, -0.20002933, -0.29397497, -0.1407157, -0.17060757
246, 289981352, 0.58704585, -0.32574314, -0.71360224, -0.20010336, -0.24046552, -0.10108776, -0.05308819
247, 289998019, 0.587099, -0.32548067, -0.71366984, -0.20013309, -0.07574139, 0.030876974, -0.076075554
248, 290014686, 0.5870534, -0.32541028, -0.7136748, -0.20036346, -0.01699816, 0.07806246, -0.100091934
249, 290031353, 0.58686435, -0.3256758, -0.71358186, -0.20081641, -0.05123498, -0.01996306, -0.14944458
250, 290048020, 0.5867092, -0.32587034, -0.71352494, -0.20115648, -0.048319478, -0.0519481, -0.09054947
251, 290064687, 0.5866235, -0.32606244, -0.71340007, -0.2015371, 0.18879335, 0.008085805, -0.047027588
252, 290081354, 0.5864407, -0.3265426, -0.7131833, -0.2020585, 0.21925235, 0.1144678, -0.038912773
253, 290098021, 0.58615106, -0.32741484, -0.7128243, -0.20275305, 0.1726061, -0.02503211, 0.046855927
254, 290114688, 0.58590907, -0.32829443, -0.7124331, -0.20340426, 0.06679685, -0.09256063, 0.09969044
255, 290131355, 0.5857828, -0.32904598, -0.71201736, -0.2040081, 0.09948561, -0.14511847, 0.047623634
256, 290148022, 0.5857106, -0.3296765, -0.71161413, -0.20460369, 0.10425896, -0.13036516, -0.079319954
257, 290164689, 0.585594, -0.33015266, -0.7113089, -0.20523015, 0.14066565, -0.073640145, -0.121507645
258, 290181356, 0.58546174, -0.3304177, -0.71113074, -0.20579761, 0.16788416, -0.018173391, -0.026953697
259, 290198023, 0.58534575, -0.33047324, -0.71105796, -0.20628889, 0.079209864, -0.036105055, 0.0442276
260, 290214690, 0.5853195, -0.33037674, -0.71099967, -0.2067184, 0.020382147, 0.024063405, 0.19277287
261, 290231357, 0.5854021, -0.33026144, -0.71088356, -0.20706822, 0.013025888, 0.02551054, 0.09194279
262, 290248024, 0.58547896, -0.33039066, -0.71063054, -0.20751265, 0.15401205, 0.15647493, -0.15288544
263, 290264691, 0.58528036, -0.33105013, -0.7102913, -0.20818199, 0.18991852, 0.18331124, -0.47927952
264, 290281358, 0.5847784, -0.3321842, -0.7099368, -0.20899424, 0.14884533, 0.105634235, -0.46730137
265, 290298025, 0.5842191, -0.3333928, -0.7095941, -0.20979619, -0.13910732, -0.042444553, -0.21027374
266, 290314692, 0.58384734, -0.3342944, -0.70933944, -0.21025643, -0.29268888, -0.14482768, 0.15843391
267, 290331359, 0.58369863, -0.33527982, -0.7089169, -0.21052495, -0.1935211, 0.04534698, 0.42360497
268, 290348026, 0.5832808, -0.33654335, -0.708578, -0.21080819, -0.18841517, 0.09683006, 0.21668053
269, 290364693, 0.5824031, -0.33778244, -0.7087459, -0.21068849, -0.52324474, -0.0866182, 0.3284397
270, 290381360, 0.58129025, -0.33835143, -0.7096538, -0.20979087, -1.0287626, -0.3170156, 0.13971996
271, 290398027, 0.5803704, -0.3382026, -0.7109024, -0.2083452, -1.2849768, -0.14254047, -0.4133606
272, 290414694, 0.5796324, -0.33816424, -0.71187824, -0.20712663, -1.2982316, -0.04128843, -0.6982403
273, 290431361, 0.57879955, -0.33807054, -0.7128022, -0.20642945, -2.358637, -0.07835738, -0.65515804
274, 290448028, 0.57808113, -0.33698362, -0.7139768, -0.20616041, -2.0948122, 0.23626123, -0.1379633
275, 290464695, 0.57724303, -0.33531886, -0.7154557, -0.2060965, -0.36679012, 1.3484693, 0.15579128
276, 290481362, 0.5753874, -0.33519265, -0.71678436, -0.2068723, -0.522289, 1.5081205, -0.7018547
277, 290498029, 0.57364106, -0.33538482, -0.71813446, -0.20672843, -1.1039944, 2.0028124, -0.87214184
278, 290514696, 0.57208645, -0.33560568, -0.71955055, -0.20575163, -0.88234466, 2.7014465, -0.42826462
279, 290531363, 0.57036644, -0.3360116, -0.72105247, -0.20460322, 1.0625565, 2.6974032, 0.111605644
280, 290548030, 0.5680067, -0.33731636, -0.72258955, -0.20359541, 2.0094888, 1.5196991, -0.16413212
281, 290564697, 0.564938, -0.33982986, -0.72407925, -0.20265888, 1.1349081, 0.2092431, -0.13537884
282, 290581364, 0.5615349, -0.34257212, -0.7257166, -0.20164123, 0.28345063, -0.9558073, 0.05084133
283, 290598031, 0.55855817, -0.3445816, -0.7274567, -0.20020963, 0.31032985, -1.1635371, 0.2869606
284, 290614698, 0.5558725, -0.34688675, -0.7288255, -0.19871983, 1.1046127, -0.98809856, 0.20242405
285, 290631365, 0.5529572, -0.35011563, -0.72974366, -0.19781965, 0.7471687, -1.0520595, 0.1448574
286, 290648032, 0.5501047, -0.3533727, -0.73049706, -0.19719903, 0.15383369, -1.3594841, 0.34614372
287, 290664699, 0.5474887, -0.35620853, -0.7311593, -0.1969228, 0.014682566, -1.7468206, 0.5194607
288, 290681366, 0.5448947, -0.3586914, -0.73187, -0.19697036, -0.17565906, -2.1428156, 0.31527424
289, 290698033, 0.542647, -0.3605726, -0.73261696, -0.19696446, 0.37875947, -1.6295019, 0.5123644
290, 290714700, 0.5410483, -0.36181778, -0.733311, -0.19649503, 0.46078536, -0.97496486, 0.56168747
291, 290731367, 0.53995967, -0.3624444, -0.734023, -0.19567434, 0.6707769, -0.27071017, 0.38480568
292, 290748034, 0.5386442, -0.36335528, -0.7345586, -0.1956014, 1.0068271, -0.023335423, 0.25196934
293, 290764701, 0.53737116, -0.36472607, -0.73475057, -0.19583021, 1.2125484, -0.064244665, 0.15639591
294, 290781368, 0.5364378, -0.36616424, -0.73470026, -0.19589458, 1.1626265, -0.04715475, 0.1605196
295, 290798035, 0.5356426, -0.36767644, -0.73445904, -0.19614165, 0.93926895, -0.09873204, 0.22467041
296, 290814702, 0.5347523, -0.36929277, -0.73412114, -0.19679871, 0.31809178, -0.55522275, 0.14782238
297, 290831369, 0.5341339, -0.3705223, -0.73383, -0.19725218, -0.25848222, -0.7875889, 0.22530651
298, 290848036, 0.5338721, -0.37137413, -0.73352903, -0.19747888, -0.5889951, -0.58169, 0.17207813
299, 290864703, 0.53359276, -0.37205815, -0.73330814, -0.19776592, -0.2016145, -0.13458051, -0.07731056
300, 290881370, 0.5331069, -0.37321603, -0.732842, -0.19862038, -0.025300326, 0.0037701048, -0.09168053
301, 290898037, 0.5324602, -0.37472564, -0.73221207, -0.19983262, 0.04049876, -0.011830764, -0.026320457
302, 290914704, 0.53176206, -0.3760853, -0.73170114, -0.20100528, -0.12960666, -0.1618683, 0.073200226
303, 290931371, 0.5312791, -0.37688917, -0.73144895, -0.20169353, -0.48211768, -0.50062567, 0.32908154
304, 290948038, 0.5312574, -0.376731, -0.7315055, -0.20184109, -0.20444708, -0.59894675, 0.18513107
305, 290964705, 0.53154725, -0.37612018, -0.7315958, -0.2018902, 0.095503286, -0.37390733, -0.31955147
306, 290981372, 0.5320226, -0.3756449, -0.73145247, -0.20204182, 0.28947118, -0.42907873, -0.1567688
307, 290998039, 0.5323964, -0.37547338, -0.7310888, -0.20269124, 0.18069056, -0.62365603, 0.39006424
308, 291014706, 0.53276753, -0.37533176, -0.73064554, -0.20357472, 0.46702763, -0.5862566, 0.38061047
309, 291031373, 0.53324944, -0.37536582, -0.7300196, -0.20449351, 0.6853665, -0.42305103, 0.15338993
310, 291048040, 0.5337024, -0.37568521, -0.7292054, -0.20562777, 0.34555954, -0.10129116, -0.14316654
311, 291064707, 0.5344163, -0.37624308, -0.72800165, -0.20701407, 0.45023578, 0.18234053, -0.13620758
312, 291081374, 0.53503096, -0.37709844, -0.7266315, -0.20867719, 0.48757675, 0.17807008, 0.012587547
313, 291098041, 0.53567654, -0.37793884, -0.72527146, -0.21022598, 0.48152468, -0.16170156, 0.061686516
314, 291114708, 0.5367044, -0.37826377, -0.72408754, -0.21109939, 0.4924015, -0.1380635, 0.03067875
315, 291131375, 0.53806144, -0.37833354, -0.7229696, -0.21135114, 0.5242541, 0.31798193, 0.011599541
316, 291148042, 0.53930026, -0.3789071, -0.72156817, -0.21195449, 0.53724605, 0.57952017, 0.18573952
317, 291164709, 0.5400288, -0.38023758, -0.71989787, -0.21339238, 0.4086398, 0.2974498, -0.10294151
318, 291181376, 0.54058045, -0.38185152, -0.7181388, -0.21503401, -0.19725376, 0.014520743, -0.3319254
319, 291198043, 0.5415234, -0.38296607, -0.7165357, -0.21602507, -0.40662393, -0.21449332, 0.076272964
320, 291214710, 0.542684, -0.38347515, -0.7151101, -0.21693137, -0.5385509, -0.563319, 0.35577202
321, 291231377, 0.5439998, -0.38341653, -0.7139385, -0.21759796, 0.089609474, -0.36872864, -0.011502266
322, 291248044, 0.5453244, -0.3835613, -0.7126966, -0.21809706, 0.08207485, 0.04027234, -0.14530087
323, 291264711, 0.5467518, -0.3837716, -0.7113366, -0.2185928, -0.3042132, 0.27311617, -0.14881706
324, 291281378, 0.54815054, -0.38383448, -0.71004516, -0.21917714, -0.1313979, 0.36071414, -0.41256428
325, 291298045, 0.5496124, -0.38406107, -0.7086483, -0.21964003, 0.59588486, 0.20889409, -0.18308926
326, 291314712, 0.5510293, -0.38459015, -0.7070864, -0.2201968, 0.5404749, -0.2545551, 0.23449898
327, 291331379, 0.5528282, -0.38452196, -0.70568705, -0.2202962, 0.16533878, -0.38364324, 0.1600666
328, 291348046, 0.55520463, -0.38357562, -0.7045228, -0.21969531, -0.5752457, -0.3628791, 0.1387968
329, 291364713, 0.5579876, -0.38164604, -0.7037422, -0.21850382, -0.95008427, -0.061964944, -0.17430401
330, 291381380, 0.5606969, -0.379443, -0.703226, -0.21706215, -0.48427993, 0.29482085, -0.25278568
331, 291398047, 0.56269205, -0.37827826, -0.7023806, -0.21666929, -0.34072226, 0.033805218, -0.24683475
332, 291414714, 0.5643179, -0.37749064, -0.70147103, -0.21676125, -0.6210446, -0.4035692, -0.33509064
333, 291431381, 0.5664197, -0.37566468, -0.70110595, -0.21562962, -0.61581147, 0.15043762, -0.24227047
334, 291448048, 0.5684445, -0.37382144, -0.70083994, -0.21436617, -0.2666724, 1.0350325, -0.21412277
335, 291464715, 0.56944054, -0.3734149, -0.7002175, -0.21446466, -0.6556453, 1.3901749, -0.47437572
336, 291481382, 0.56950325, -0.37413028, -0.69952637, -0.21530473, -1.3555785, 1.0335644, -0.5730152
337, 291498049, 0.5692742, -0.37478006, -0.6992501, -0.21567744, -1.4833465, 0.5490218, -0.24288177
338, 291514716, 0.5690695, -0.37503123, -0.6993642, -0.21541126, -0.90952563, 0.34681612, 0.027680397
339, 291531383, 0.5687728, -0.3750474, -0.69979686, -0.21476021, -0.37313744, 0.53313214, -0.18326378
340, 291548050, 0.56824917, -0.37530002, -0.70025176, -0.21422178, 0.035403557, 0.62299377, -0.16407108
341, 291564717, 0.5674441, -0.37605414, -0.70050865, -0.21419339, 0.20742181, 0.5196486, 0.0043849945
342, 291581384, 0.5666125, -0.3770383, -0.70058846, -0.21440394, 0.49956888, 0.06891552, 0.21983337
343, 291598051, 0.5659008, -0.37802657, -0.7005385, -0.21470648, 0.40870103, -0.5508609, 0.19587994
344, 291614718, 0.56543267, -0.37876612, -0.700435, -0.21497372, 0.35264266, -1.0409267, 0.1254139
345, 291631385, 0.5652688, -0.37914726, -0.7003155, -0.21512215, 0.21634422, -1.0376421, 0.10096359
346, 291648052, 0.5652143, -0.3795989, -0.7000016, -0.21549037, 0.38206524, -0.65341556, 0.0874567
347, 291664719, 0.5650612, -0.38054746, -0.6993409, -0.21636242, 0.38730505, -0.5761248, 0.15835476
348, 291681386, 0.5649149, -0.3814385, -0.6986164, -0.21751274, 0.3183294, -0.6136101, 0.08862591
349, 291698053, 0.56501687, -0.38181353, -0.6980258, -0.21848394, 0.039990492, -0.509148, -0.06999874
350, 291714720, 0.56537753, -0.38169459, -0.6976132, -0.21907552, -0.20741645, -0.13808005, -0.23644733
351, 291731387, 0.5656771, -0.38150388, -0.6973538, -0.21946007, -0.36058226, 0.8193224, -0.51239204
352, 291748054, 0.56531566, -0.3822775, -0.6969777, -0.2202386, -0.45744297, 1.3248352, -0.4945612
353, 291764721, 0.56441736, -0.38356894, -0.6966609, -0.2212973, -0.6920828, 1.1195818, -0.14477253
354, 291781388, 0.5636151, -0.384744, -0.69647187, -0.22189651, -0.7863921, 0.75329375, -0.16528606
355, 291798055, 0.56299776, -0.38518015, -0.69682914, -0.22158448, -0.8018916, 0.4038138, -0.42764187
356, 291814722, 0.5624517, -0.38513872, -0.6976062, -0.22059639, -0.5327257, 0.3122402, -0.16321945
357, 291831389, 0.5618702, -0.3850876, -0.6983995, -0.21965486, 0.19370168, 0.15692241, 0.21653652
358, 291848056, 0.5611373, -0.38553035, -0.6988329, -0.21937236, 0.7801999, -0.21957108, 0.36250782
359, 291864723, 0.56056696, -0.38607776, -0.69899064, -0.21936603, 0.7339763, -0.83805704, 0.21714973
360, 291881390, 0.56046635, -0.38603926, -0.6991782, -0.21909305, 0.66823757, -1.0730824, 0.22298813
361, 291898057, 0.56078506, -0.38561288, -0.69927114, -0.21873192, 0.6011971, -0.92794555, 0.07011318
362, 291914724, 0.56116074, -0.38533607, -0.69914126, -0.2186709, 0.51010597, -0.7585166, 0.1373272
363, 291931391, 0.5613374, -0.3855493, -0.69870144, -0.2192469, 0.36815712, -0.5811777, 0.14350796
364, 291948058, 0.5615018, -0.38590646, -0.69808435, -0.22016153, 0.22934888, -0.47915545, 0.14490223
365, 291964725, 0.56168747, -0.38621923, -0.6974155, -0.22125632, 0.289015, -0.24829137, -0.052882195
366, 291981392, 0.5619298, -0.38645548, -0.6967408, -0.2223514, 0.1457157, -0.055265144, -0.018248558
367, 291998059, 0.5622479, -0.3865584, -0.6960963, -0.22338495, -0.12440597, 0.11781144, -0.046862602
368, 292014726, 0.56261945, -0.3864921, -0.6955885, -0.22414453, -0.3757941, 0.28525674, -0.14979649
369, 292031393, 0.5630443, -0.38629302, -0.69519603, -0.22463745, -0.35098597, 0.27872044, -0.025530815
370, 292048060, 0.56358963, -0.3858149, -0.6949609, -0.22481863, -0.18108259, 0.17657076, -0.025047302
371, 292064727, 0.5643067, -0.3850657, -0.6948481, -0.22465368, -0.12089458, 0.006697566, -0.050866127
372, 292081394, 0.56518954, -0.3841007, -0.6948202, -0.22417165, -0.12881632, -0.07889449, -0.06684971
373, 292098061, 0.5661627, -0.38297877, -0.694846, -0.22355536, -0.13321418, -0.0022585983, -0.008489609
374, 292114728, 0.5670218, -0.38228533, -0.6946451, -0.22318918, 0.0025851508, 0.18515836, 0.056372643
375, 292131395, 0.5676886, -0.38188797, -0.69434077, -0.22312099, -0.07542758, 0.40379527, -0.20395851
376, 292148062, 0.5680767, -0.38177866, -0.6940733, -0.22315231, -0.08887099, 0.3939968, -0.24108696
377, 292164729, 0.568389, -0.3815582, -0.69395936, -0.22308813, -0.257326, 0.24399456, -0.017569542
378, 292181396, 0.5686997, -0.38109246, -0.69402474, -0.22288963, -0.22693226, 0.13428971, -0.074560165
379, 292198063, 0.569017, -0.38043484, -0.6942566, -0.22248037, -0.2031031, 0.124781474, -0.1469183
380, 292214730, 0.569314, -0.37985647, -0.69445175, -0.22209956, 0.1981277, 0.012726157, 0.034708977
381, 292231397, 0.5695173, -0.3796467, -0.6943803, -0.22216035, 0.6452182, -0.2643805, 0.21311092
382, 292248064, 0.5696752, -0.37975064, -0.69404304, -0.22263141, 0.6800509, -0.45729935, 0.063261986
383, 292264731, 0.5698803, -0.38001123, -0.69349724, -0.2233614, 0.38674736, -0.7602867, -0.0122823715
384, 292281398, 0.57038337, -0.3797833, -0.69303113, -0.22391132, 0.06871235, -0.71054906, 0.088030815
385, 292298065, 0.5712152, -0.37914842, -0.69257855, -0.22426644, 0.11904881, -0.4342564, 0.13328743
386, 292314732, 0.57212687, -0.37854218, -0.691991, -0.2247794, 0.26866794, -0.36231518, 0.098674774
387, 292331399, 0.5729186, -0.37838215, -0.6911122, -0.22573394, 0.45641434, -0.47420475, 0.043058395
388, 292348066, 0.5736773, -0.3785307, -0.6899393, -0.22714172, 0.4743079, -0.7681995, 0.15968227
389, 292364733, 0.5746271, -0.3785196, -0.6886695, -0.22860788, 0.5205923, -0.5135724, -8.773804E-4
390, 292381400, 0.57573247, -0.37867257, -0.68713295, -0.23019223, 0.5883156, 0.097453214, -0.0033512115
391, 292398067, 0.57655424, -0.37947527, -0.6852525, -0.23240827, 0.34129936, 0.2876881, -0.09301472
392, 292414734, 0.57708305, -0.3805692, -0.6833401, -0.23492405, -0.13401926, 0.07526106, 0.035282135
393, 292431401, 0.5778024, -0.38111308, -0.68170273, -0.2370221, -0.5116026, -0.1594481, -0.009633064
394, 292448068, 0.5789305, -0.38095367, -0.6803333, -0.23845592, -0.1386491, -0.20642203, -0.053708076
395, 292464735, 0.5802607, -0.3807715, -0.6788481, -0.2397433, 0.32358864, 0.24634379, 0.055711746
396, 292481402, 0.58134395, -0.38124096, -0.6770829, -0.24135904, 0.21636054, 0.62544113, -0.07489014
397, 292498069, 0.5820487, -0.38208872, -0.67533636, -0.24320595, -0.38052723, 0.59781426, -0.28648758
398, 292514736, 0.58289963, -0.38241938, -0.6740052, -0.24433814, -0.7136764, 0.20785633, 0.01747322
399, 292531403, 0.583974, -0.38214767, -0.67300695, -0.24494933, -0.36551207, 0.22609006, -0.040416718
400, 292548070, 0.58487594, -0.3820443, -0.67206526, -0.24554314, -0.12717664, 0.086551145, -0.16567421
401, 292564737, 0.5856956, -0.38201123, -0.6711801, -0.24606101, -0.3864311, 0.36642826, -0.118159294
402, 292581404, 0.5863639, -0.3819407, -0.6705273, -0.2463589, -0.6462256, 1.0566322, -0.33647442
403, 292598071, 0.5864598, -0.38254806, -0.66993296, -0.24680461, -0.7633468, 1.5589285, -0.18264389
404, 292614738, 0.5858448, -0.3841155, -0.66917974, -0.24787173, -0.4029733, 0.90902174, 0.15949726
405, 292631405, 0.585382, -0.3853011, -0.6685133, -0.24892123, -0.36476576, -0.7778852, 0.11024952
406, 292648072, 0.5854595, -0.38529736, -0.6683742, -0.24911852, -0.22033304, -1.1513112, -0.3589716
407, 292664739, 0.5860473, -0.38458946, -0.6685267, -0.24841991, -0.06958182, -0.4486417, 0.008112907
408, 292681406, 0.5865376, -0.3840169, -0.6686437, -0.24783252, -0.50556886, 0.8777935, -0.044830322
409, 292698073, 0.5861585, -0.38425773, -0.6688214, -0.24787688, -1.1045586, 1.4082097, -0.22217178
410, 292714740, 0.585494, -0.38475594, -0.6689743, -0.24826205, -0.5150328, -0.23982315, 0.47639942
411, 292731407, 0.5853474, -0.3841283, -0.6693665, -0.24852231, 0.105213135, -1.5788741, -0.1421566
412, 292748074, 0.58594203, -0.38273484, -0.669929, -0.24775374, 1.263449, -1.2925242, -0.30297184
413, 292764741, 0.5869807, -0.38146496, -0.6700702, -0.24687076, 1.5532296, -0.6584483, 0.63019276
414, 292781408, 0.58769804, -0.38107333, -0.66960245, -0.24703714, 0.83920914, 0.22700389, -0.030047417
415, 292798075, 0.5880108, -0.3814037, -0.6688287, -0.24787761, -0.53415483, 0.33495852, 0.06209755
416, 292814742, 0.58858556, -0.38064733, -0.66861665, -0.24824846, -1.494715, 0.1501864, 0.21359825
417, 292831409, 0.5893497, -0.37885624, -0.6691039, -0.24786235, -1.4063616, -0.10427349, -0.15055084
418, 292848076, 0.59043276, -0.37636882, -0.6700706, -0.24645893, -1.1724926, 0.07615042, -0.19351864
419, 292864743, 0.5914246, -0.3739272, -0.67107, -0.24507406, -0.55703026, -0.009806184, -0.3258028
420, 292881410, 0.5918369, -0.37240937, -0.671796, -0.24439973, 0.116511494, 0.41259855, -0.17474747
421, 292898077, 0.59139526, -0.3721178, -0.67217636, -0.24486697, -0.20934626, 0.9806104, -0.24037075
422, 292914744, 0.590291, -0.37233907, -0.672711, -0.24572529, -1.3272867, 0.7493434, -0.23924065
423, 292931411, 0.5888912, -0.37233132, -0.67373985, -0.2462765, -1.168743, 0.63587165, -0.17834473
424, 292948078, 0.58717406, -0.37340403, -0.6742946, -0.24723224, 0.55237025, 0.6496101, -0.30591965
425, 292964745, 0.5849206, -0.3756711, -0.67438334, -0.24889185, 0.5211222, 0.22608805, -0.051315308
426, 292981412, 0.58263445, -0.37765172, -0.67467946, -0.25044894, -0.5606152, 0.29029885, -0.09052563
427, 292998079, 0.5805432, -0.37869644, -0.6756408, -0.25113526, -1.9211882, 0.22219802, 0.008785248
428, 293014746, 0.5791097, -0.37764746, -0.6777289, -0.25039682, -1.8979146, -0.17408285, 0.2956171
429, 293031413, 0.5782903, -0.37490138, -0.68059, -0.24865101, -0.69161123, -0.4698886, -0.093512535
430, 293048080, 0.5777852, -0.3719983, -0.683388, -0.24650194, 0.884367, -0.1675071, -0.3457079
431, 293064747, 0.5768384, -0.3703919, -0.6854384, -0.24544345, 1.140942, -0.23917139, -0.0050678253
432, 293081414, 0.575302, -0.37059405, -0.68660134, -0.24549319, -0.33901507, -0.033240847, -0.11965084
433, 293098081, 0.57361835, -0.3705834, -0.68796206, -0.24563989, -1.57871, -0.054450214, -0.15041828
434, 293114748, 0.5725521, -0.36855364, -0.69026273, -0.24472547, -0.9073084, -0.5967302, 0.21477318
435, 293131415, 0.57190543, -0.3650584, -0.6932577, -0.24300411, -0.10741675, -0.47919524, 0.24006939
436, 293148082, 0.5711996, -0.36139637, -0.69652325, -0.24078977, 0.149945, 0.019177187, -0.16831684
437, 293164749, 0.57012403, -0.3592042, -0.6991756, -0.23892473, -0.6798437, 0.44520283, -0.10284519
438, 293181416, 0.5681999, -0.35738254, -0.70222574, -0.23728965, -2.166167, 1.7583953, -0.9972038
439, 293198083, 0.5665916, -0.3553725, -0.705206, -0.23530711, 0.07796445, 1.4082801, -0.5455284
440, 293214750, 0.5648201, -0.35365236, -0.7079158, -0.2340181, 1.7237607, 0.8765874, 0.2929039
441, 293231417, 0.562143, -0.3533457, -0.710284, -0.23375113, 0.9115654, 0.18603553, -0.28315926
442, 293248084, 0.55906874, -0.35343966, -0.71292394, -0.2329433, -1.8258693, -0.029272374, -0.55195427
443, 293264751, 0.5562869, -0.35173148, -0.7168125, -0.23024005, -3.7630749, 0.76816934, -0.9441738
444, 293281418, 0.5545676, -0.34794796, -0.72136503, -0.22587685, -0.54939526, 0.60901815, -0.22616673
445, 293298085, 0.55245787, -0.3443541, -0.7257471, -0.22249195, 2.624626, 0.3518913, 0.3801365
446, 293314752, 0.54949, -0.3433152, -0.7290613, -0.22060344, 2.802548, 0.4697802, -0.12972546
447, 293331419, 0.5457849, -0.3445377, -0.73160887, -0.21945804, -0.64322156, 0.66657007, -0.5409775
448, 293348086, 0.54188716, -0.3452705, -0.73449916, -0.21830833, -2.9628522, -0.6187469, -1.0603399
449, 293364753, 0.53874743, -0.343462, -0.7381777, -0.21651676, -2.4077268, -2.2454987, 0.38619804
450, 293381420, 0.5369829, -0.33824867, -0.7428878, -0.21296908, 0.46900886, -2.061331, 0.84786797
451, 293398087, 0.53612566, -0.33255628, -0.7473003, -0.2086113, 2.7024052, -0.36724898, 0.4760008
452, 293414754, 0.53455997, -0.32978624, -0.7503565, -0.20604087, 1.8661025, 1.1656889, -0.5108309
453, 293431421, 0.5318944, -0.32987276, -0.7523299, -0.20560396, 0.6405678, 0.75152296, -0.59493923
454, 293448088, 0.5285609, -0.33077487, -0.7539846, -0.20668693, -1.0489615, -0.9889657, 0.19779968
455, 293464755, 0.5262958, -0.32882643, -0.7566175, -0.20595337, -0.8884774, -2.1183498, 0.8309717
456, 293481422, 0.526496, -0.32369938, -0.7596602, -0.20233087, 2.8781192, -0.912226, 1.1297035
457, 293498089, 0.52713823, -0.32022488, -0.76145023, -0.19943827, 4.1853623, 1.1878577, -0.010066986
458, 293514756, 0.5262954, -0.32090488, -0.76167464, -0.1997139, 2.0145514, 0.88294077, -0.2130909
459, 293531423, 0.5242273, -0.32331124, -0.761385, -0.20235966, -0.84130186, -1.1711584, 0.6145506
460, 293548090, 0.5230117, -0.3232841, -0.76192486, -0.20351282, -1.0478417, -2.603898, 0.75154686
461, 293564757, 0.524475, -0.31951383, -0.76312834, -0.20117871, 2.0879438, -1.3606468, 1.0170231
462, 293581424, 0.5266699, -0.31679726, -0.7632653, -0.19921075, 3.4072862, 0.45901236, 0.37894344
463, 293598091, 0.52680975, -0.31798705, -0.762295, -0.20065571, 1.0023963, 0.48523232, -4.2915344E-4
464, 293614758, 0.52596015, -0.32015237, -0.76119846, -0.20358239, -0.7820839, -0.2581978, 0.1386652
465, 293631425, 0.525818, -0.3209195, -0.7605611, -0.205119, -0.9394938, -0.7806352, 0.021965027
466, 293648092, 0.52685905, -0.3200108, -0.7603062, -0.20481208, 0.82994586, 0.31416634, 0.14939785
467, 293664759, 0.5273847, -0.3205238, -0.75965965, -0.20505635, 0.87375015, 1.0019549, -0.13647175
468, 293681426, 0.5273809, -0.3227795, -0.7584315, -0.20607147, 0.8312192, 0.8832746, -0.07074928
469, 293698093, 0.52708167, -0.32549152, -0.7571475, -0.20728879, 0.18317111, 0.09017965, 0.046998978
470, 293714760, 0.5271442, -0.32770815, -0.7559341, -0.20806499, 0.20818712, -0.5415537, 0.34794998
471, 293731427, 0.52748793, -0.32944074, -0.7548597, -0.2083577, -0.15690386, -1.2931534, 0.35935593
472, 293748094, 0.52793854, -0.3306387, -0.75402236, -0.20835084, -0.47165236, -1.2387606, 0.2058773
473, 293764761, 0.5285627, -0.33124045, -0.75329983, -0.20842612, -0.24501267, -1.2086455, 0.16399002
474, 293781428, 0.52932864, -0.33119687, -0.7526958, -0.20873405, -0.30280262, -0.9536095, 0.2102871
475, 293798095, 0.5300554, -0.33076137, -0.75224507, -0.20920356, -0.36873648, -0.67305875, -0.021936417
476, 293814762, 0.5309682, -0.32997248, -0.75186837, -0.20948866, -0.21912315, -0.44438365, -0.016766548
477, 293831429, 0.5319142, -0.32898444, -0.7515623, -0.20974118, -0.48551932, -0.23828235, -0.0076885223
478, 293848096, 0.53288203, -0.327397, -0.7515493, -0.20981462, -0.61236316, -0.0971736, -0.1727705
479, 293864763, 0.53385377, -0.32522792, -0.75184125, -0.20967264, -0.5506559, 0.10494716, -0.35934162
480, 293881430, 0.5348871, -0.32294065, -0.7521706, -0.20939286, -0.18439864, 0.39775795, -0.43948364
481, 293898097, 0.53577906, -0.32104144, -0.7523992, -0.20921162, 0.09927909, 0.86079234, -0.54003334
482, 293914764, 0.5362317, -0.31993958, -0.7525254, -0.20928614, 0.046616755, 0.9702917, -0.38573742
483, 293931431, 0.53642005, -0.31942293, -0.7525509, -0.20950046, -0.0012802822, 0.85040826, 0.16384602
484, 293948098, 0.5366678, -0.31903726, -0.75252646, -0.2095411, 0.11069747, 0.46749946, 0.25657463
485, 293964765, 0.5370926, -0.31857133, -0.75251204, -0.20921382, 0.34579465, 0.20770925, 0.018512726
486, 293981432, 0.5375523, -0.3181657, -0.7524778, -0.20877272, 0.4099384, 0.115038544, -0.2856779
487, 293998099, 0.53792864, -0.31793696, -0.75242364, -0.20834702, 0.24668097, 0.056143995, -0.43838024
488, 294014766, 0.5383584, -0.31790712, -0.7521931, -0.2081145, 0.3013889, 0.114656225, -0.07805252
489, 294031433, 0.5387119, -0.31831363, -0.75177044, -0.20810574, 0.18351352, 0.010995161, 0.285038
490, 294048100, 0.5390326, -0.318862, -0.75131184, -0.2080922, -0.07944634, -0.25634935, 0.3182478
491, 294064767, 0.53955454, -0.3190729, -0.75092596, -0.20780827, -0.09893801, -0.42785397, 0.0869112
492, 294081434, 0.54016304, -0.31898865, -0.75063646, -0.20740253, -0.05394083, -0.38088185, -0.15629387
493, 294098101, 0.54076535, -0.3186324, -0.75044286, -0.20708138, -0.19217421, -0.39246932, -0.3640995
494, 294114768, 0.54138917, -0.31798682, -0.7502918, -0.2069901, -0.24701624, -0.25648403, -0.16363335
495, 294131435, 0.541953, -0.31720483, -0.75018764, -0.20709282, -0.29488778, -0.09807938, 0.20848656
496, 294148102, 0.5424508, -0.3163126, -0.75018686, -0.20715736, -0.376352, -0.11446534, 0.17014408
497, 294164769, 0.5430053, -0.31526488, -0.7502599, -0.20703697, -0.2977756, -0.022569891, -0.08420086
498, 294181436, 0.5435028, -0.31430176, -0.7503579, -0.2068401, -0.06776331, 0.13834502, -0.35192108
499, 294198103, 0.5438367, -0.31374687, -0.7503642, -0.20678224, -0.031053102, 0.31244385, -0.3051443
500, 294214770, 0.5439449, -0.31357756, -0.75032, -0.20691483, -0.21985225, 0.34797883, -0.0663681
501, 294231437, 0.54402095, -0.3134436, -0.7503011, -0.20698614, -0.36948076, 0.19804098, 0.024392128
502, 294248104, 0.54415476, -0.31304777, -0.7504055, -0.20685498, -0.37786028, 0.03919881, -0.089419365
503, 294264771, 0.54432696, -0.31232348, -0.75069374, -0.2064507, -0.17423014, 0.07492087, -0.0768671
504, 294281438, 0.5444696, -0.31149653, -0.75105625, -0.20600493, 0.06388671, 0.122802265, -0.06520367
505, 294298105, 0.54455215, -0.31090996, -0.75131613, -0.20572563, 0.34978348, 0.102784894, 0.047449112
506, 294314772, 0.5445365, -0.31081194, -0.7513638, -0.2057401, 0.37030956, 0.082596086, 0.17197514
507, 294331439, 0.5444175, -0.3110514, -0.7512972, -0.20593712, 0.21351343, -0.08299986, 0.049211502
508, 294348106, 0.5443911, -0.31127942, -0.7511785, -0.20609507, 0.10596079, -0.26937202, -0.08274269
509, 294364773, 0.5445406, -0.31139502, -0.75100636, -0.20615289, 0.17262845, -0.26949224, -0.09948444
510, 294381440, 0.54478, -0.31141955, -0.7508279, -0.20613329, 0.19662122, -0.24079308, -0.015331268
511, 294398107, 0.5450176, -0.3113725, -0.75067407, -0.2061362, 0.17384122, -0.16779353, 0.063975334
512, 294414774, 0.5452472, -0.31122088, -0.75056463, -0.20615688, 0.015558289, -0.16348386, -0.00587368
513, 294431441, 0.5455246, -0.31085646, -0.75050956, -0.20617343, -0.026153699, -0.19847257, -0.12613106
514, 294448108, 0.54586685, -0.3103062, -0.7505035, -0.20611829, -0.054252405, -0.13816978, -0.12109947
515, 294464775, 0.546333, -0.30962062, -0.75050277, -0.20591654, 0.13049446, 0.0018842142, 0.057017326
516, 294481442, 0.5467882, -0.3091516, -0.750431, -0.20567496, 0.14768574, 0.17143813, 0.102371216
517, 294498109, 0.5470983, -0.30893925, -0.7503448, -0.2054836, 0.10872609, 0.14206718, 0.029388428
518, 294514776, 0.5473031, -0.30881208, -0.75031984, -0.20522079, -0.013051815, 0.023191815, -0.12108517
519, 294531443, 0.547518, -0.30857658, -0.7503676, -0.20482583, -0.103689, -0.03394234, -0.19873714
520, 294548110, 0.54778457, -0.30806348, -0.75051236, -0.2043548, -0.15320696, -0.00684162, -0.13541126
521, 294564777, 0.5481083, -0.30733824, -0.75071186, -0.20384568, -0.047945764, 0.12042587, -0.09034729
522, 294581444, 0.54841393, -0.30669427, -0.75088006, -0.20337394, 0.032273483, 0.18572865, -0.09626198
523, 294598111, 0.54867536, -0.30631393, -0.7509281, -0.20306349, 0.12461786, 0.2580038, 0.015300751
524, 294614778, 0.54877675, -0.30645657, -0.75084794, -0.20287117, 0.15614437, 0.2893488, -0.019741058
525, 294631445, 0.54867, -0.30709368, -0.75071895, -0.20267375, -0.10140738, 0.19178139, -0.16889954
526, 294648112, 0.54838854, -0.30790412, -0.75062287, -0.20256153, -0.332176, 0.0448909, -0.25409794
527, 294664779, 0.5480995, -0.30859616, -0.7505792, -0.20245256, -0.47683138, -0.14382343, -0.29712963
528, 294681446, 0.5479433, -0.30890188, -0.7506435, -0.20217058, -0.49101326, -0.15957227, -0.05633831
529, 294698113, 0.5478114, -0.3088228, -0.7509013, -0.201691, -0.310181, -0.12517676, 0.2121296
530, 294714780, 0.54752886, -0.30852753, -0.75144356, -0.20088889, -0.4112567, -0.06261805, 0.11421299
531, 294731447, 0.5470668, -0.30802003, -0.75221753, -0.20002799, -0.50209683, -0.2309851, -0.17177677
532, 294748114, 0.5466232, -0.30705935, -0.75316393, -0.19915488, -0.4309779, -0.294518, -0.33377647
533, 294764781, 0.54614544, -0.30588084, -0.7541925, -0.19838458, -0.64988405, -0.23966154, -0.48661613
534, 294781448, 0.545428, -0.3045838, -0.7554106, -0.19771872, -1.1381233, -0.4873557, -0.40885162
535, 294798115, 0.5447397, -0.30285928, -0.75686616, -0.1966965, -1.0033737, -0.39817145, 0.2072258
536, 294814782, 0.5440765, -0.30090657, -0.75850356, -0.19521597, -0.94658136, -0.41123042, 0.2694435
537, 294831449, 0.54323846, -0.29862884, -0.76040477, -0.19364445, -1.2869226, -0.7237613, -0.02259636
538, 294848116, 0.5419402, -0.29561323, -0.7628248, -0.19238713, -1.682256, -0.82428026, -0.33486843
539, 294864783, 0.54033697, -0.2913654, -0.7658404, -0.19139327, -1.8398006, -0.9696241, -0.4018793
540, 294881450, 0.5391186, -0.28558242, -0.76926434, -0.18980822, -1.4700103, -0.66479605, -0.13661766
541, 294898117, 0.5383277, -0.27882147, -0.7728485, -0.18753105, -0.42202866, -0.11205118, 0.14005756
542, 294914784, 0.53746384, -0.27232826, -0.77628326, -0.18535185, 0.45063028, 0.2961188, 0.021557808
543, 294931451, 0.5361191, -0.26695976, -0.77943367, -0.18382855, 0.6879597, 0.53235096, -0.37403297
544, 294948118, 0.53456163, -0.26270238, -0.7822067, -0.18271478, 0.6514187, 0.67641973, -0.48135567
545, 294964785, 0.5330949, -0.2593118, -0.7845272, -0.18189356, 0.69771177, 0.75857604, -0.19916248
546, 294981452, 0.53151697, -0.25688255, -0.786487, -0.18149367, 0.92916167, 0.7797718, -0.088952065
547, 294998119, 0.52986723, -0.25540394, -0.7881197, -0.18132278, 1.0743706, 0.8004322, -0.25707626
548, 295014786, 0.52830505, -0.2550735, -0.7892329, -0.18150464, 1.2948955, 0.75765324, -0.07523918
549, 295031453, 0.52682424, -0.25576824, -0.78981006, -0.18231809, 1.0946274, 0.5042773, 0.18443108
550, 295048120, 0.52546877, -0.25694022, -0.7900532, -0.18352352, 0.9175265, 0.30155843, 0.049015045
551, 295064787, 0.52429396, -0.2583649, -0.7900585, -0.18485616, 0.9286469, 0.1416044, -0.043301582
552, 295081454, 0.52339387, -0.2596782, -0.7899295, -0.18611422, 0.98310226, 0.120173305, -0.0025186539
553, 295098121, 0.5226734, -0.26109862, -0.78958225, -0.18761814, 1.1347477, 0.20095167, 0.34809494
554, 295114788, 0.52192146, -0.26290062, -0.789038, -0.18947588, 0.87541443, -0.16576067, 0.41738033
555, 295131455, 0.52137154, -0.2646381, -0.7884432, -0.19104035, 0.45472994, -0.44735727, 0.13378811
556, 295148122, 0.5210012, -0.26628068, -0.7877228, -0.19273238, 0.321514, -0.8109945, 0.13843918
557, 295164789, 0.5206587, -0.2675478, -0.7870747, -0.19454297, -0.16724849, -0.83032113, 0.14115524
558, 295181456, 0.52078474, -0.26807776, -0.78635716, -0.19636907, -0.40280074, -1.1762141, 0.4753065
559, 295198123, 0.5212026, -0.26777503, -0.7857422, -0.19812709, -0.31090295, -0.7025315, 0.25279713
560, 295214790, 0.5210579, -0.26742798, -0.7855077, -0.19989897, -0.4797882, 0.052812535, -0.83661556
561, 295231457, 0.52101547, -0.2668345, -0.7855619, -0.20058726, -0.4742015, 0.9593668, -0.3473959
562, 295248124, 0.52108645, -0.2666419, -0.7855443, -0.2007292, -0.3277947, 2.1625412, 0.008274078
563, 295264791, 0.52046084, -0.26733232, -0.7855912, -0.20124914, 0.5161236, 2.5549064, -0.24945545
564, 295281458, 0.519212, -0.2689351, -0.7857382, -0.20176494, 0.92898554, 2.0841856, -0.38262272
565, 295298125, 0.5180844, -0.27143833, -0.78564256, -0.20168437, 1.2395483, 1.5615733, 0.0022792816
566, 295314792, 0.5167408, -0.27472365, -0.78542143, -0.20154378, 0.6619801, 0.67827755, 0.0047388077
567, 295331459, 0.5150257, -0.27821314, -0.7853561, -0.20140201, -0.15562046, -0.44168293, -0.11473656
568, 295348126, 0.5135261, -0.2812475, -0.785435, -0.20070773, -0.5626702, -1.0782734, 0.07958794
569, 295364793, 0.5123955, -0.28352126, -0.7856637, -0.19949959, -0.3627861, -1.1481135, 0.20620346
570, 295381460, 0.51139665, -0.28520933, -0.78602123, -0.1982441, -0.10460988, -1.0640216, 0.187253
571, 295398127, 0.5106417, -0.28655392, -0.78636867, -0.19686826, -0.16940717, -1.4032274, 0.33953285
572, 295414794, 0.5102095, -0.2875899, -0.7865465, -0.19576508, -0.24398585, -1.1471661, 0.21944141
573, 295431461, 0.51002586, -0.28799587, -0.7868901, -0.19425961, 0.7466636, -0.305349, 0.015394211
574, 295448128, 0.5098285, -0.28878877, -0.78704405, -0.19297272, 0.72748977, 0.0898018, 0.28052235
575, 295464795, 0.5095411, -0.28986478, -0.78716004, -0.19164069, 0.7502266, -0.066729344, 0.09832859
576, 295481462, 0.50956804, -0.29095125, -0.78710705, -0.19013482, 0.4061834, -0.26859295, 0.5100126
577, 295498129, 0.51011485, -0.29177234, -0.78684604, -0.18848287, 0.73690903, -0.34169835, 0.31524658
578, 295514796, 0.5105318, -0.29268175, -0.7864974, -0.18739551, 0.8868813, -0.17449701, 0.10647583
579, 295531463, 0.51088756, -0.2941596, -0.7858907, -0.18665658, 0.7009194, -0.3340192, 0.31967735
580, 295548130, 0.5112867, -0.29559398, -0.78533345, -0.18564087, 0.53025454, -0.28889552, 0.17649746
581, 295564797, 0.5119534, -0.29674563, -0.7848375, -0.18405697, 0.51798546, -0.04394388, 0.35525513
582, 295581464, 0.51290005, -0.29839972, -0.7837743, -0.18327518, 0.20688762, -0.1261135, 0.30812836
583, 295598131, 0.5135842, -0.29981002, -0.7828815, -0.18287322, 0.4757366, -0.7175158, -0.22568321
584, 295614798, 0.5147387, -0.3008985, -0.7818542, -0.18223307, 0.40454817, -0.83435094, 0.31164074
585, 295631465, 0.51645017, -0.30137274, -0.780942, -0.18051, 0.7610192, -0.6750223, 0.49751663
586, 295648132, 0.51845044, -0.30188018, -0.77984756, -0.17865078, 0.8064611, -0.43997353, 0.9595604
587, 295664799, 0.5200677, -0.30351293, -0.7780739, -0.17891727, 0.9184156, -0.28966105, -0.310215
588, 295681466, 0.5213662, -0.30600604, -0.77591956, -0.18024188, 0.26215366, -0.6869708, -0.60790634
589, 295698133, 0.52321404, -0.30832806, -0.77349955, -0.18132833, 0.03127885, -0.63434577, 0.22076511
590, 295714800, 0.5251055, -0.31005594, -0.77132416, -0.18217966, 0.044272553, -0.6694396, 0.30260468
591, 295731467, 0.52702093, -0.31151497, -0.7692334, -0.18299736, 0.4902303, -0.3647252, 0.07814598
592, 295748134, 0.52888346, -0.31325412, -0.7670152, -0.18396288, 0.07606861, -0.045022216, 0.04739666
593, 295764801, 0.53049725, -0.3156528, -0.7645539, -0.18545659, -0.39134884, 0.46267954, -0.39684772
594, 295781468, 0.5315496, -0.3179865, -0.7625543, -0.18668602, -0.0040916284, 1.0146087, -0.779788
595, 295798135, 0.5324871, -0.32078013, -0.76036644, -0.18815227, 0.1818546, 0.80820185, -0.2694893
596, 295814802, 0.53414345, -0.3233298, -0.75785875, -0.18920778, -0.282511, 0.4996727, 0.3292389
597, 295831469, 0.5358502, -0.32561684, -0.75546354, -0.19003649, -0.22686654, 0.5543441, -0.033966064
598, 295848136, 0.5368707, -0.32823437, -0.75334686, -0.19105358, -0.50648236, 0.27871552, -0.55168056
599, 295864803, 0.5378608, -0.33059192, -0.75152, -0.1913983, -0.67885756, 0.19690654, -0.34929848
600, 295881470, 0.539231, -0.3327358, -0.74947566, -0.19184421, 0.1703513, -0.013851433, -0.12681961
601, 295898137, 0.5403725, -0.33537194, -0.747115, -0.19324386, -0.30467966, -0.6260466, -0.13643074
602, 295914804, 0.54124546, -0.3376227, -0.7452423, -0.19411072, -0.7900258, -1.207042, -0.04974556
603, 295931471, 0.5428634, -0.3381041, -0.74403375, -0.1933902, -1.731847, -0.97979856, 0.32502556
604, 295948138, 0.5453927, -0.33658993, -0.7433991, -0.1913442, 1.0128014, -0.9803477, 0.79441357
605, 295964805, 0.54824847, -0.3357478, -0.7416788, -0.19133861, 2.9079216, -1.1765958, 0.48887444
606, 295981472, 0.5508512, -0.33647096, -0.7389952, -0.19296943, 1.9528356, -1.5302528, 0.7103081
607, 295998139, 0.5535874, -0.3373631, -0.7361448, -0.19447042, 0.5127839, -1.3680543, 0.11895466
608, 296014806, 0.55683434, -0.33710745, -0.7337636, -0.1946431, -0.6046137, -0.65174365, -0.10110664
609, 296031473, 0.56049097, -0.33608896, -0.7315314, -0.19431105, 0.31649837, -0.07180756, 0.077744484
610, 296048140, 0.56390595, -0.33591783, -0.7286687, -0.19547917, 1.0151578, 0.17599757, -0.26537704
611, 296064807, 0.5669479, -0.3366916, -0.7253702, -0.19760536, 0.2718436, 0.05263026, -0.68867016
612, 296081474, 0.57028383, -0.33694133, -0.7223136, -0.1987733, -0.79165787, -0.26570114, -0.50186634
613, 296098141, 0.57411575, -0.33582082, -0.7198234, -0.19867201, -1.2668395, -0.023872972, -0.46609974
614, 296114808, 0.57738423, -0.33502278, -0.7173979, -0.19931965, -1.2259963, 0.4294323, -0.7030239
615, 296131475, 0.5795863, -0.33537272, -0.71495295, -0.20111701, -1.8929442, 0.35052317, -0.732728
616, 296148142, 0.58146924, -0.33550635, -0.7129844, -0.20244242, -2.0846324, 0.11877568, -0.40016937
617, 296164809, 0.58333534, -0.33439285, -0.71190655, -0.20270982, -2.0028107, 0.6529744, -0.19122887
618, 296181476, 0.5849889, -0.33276135, -0.7113867, -0.20245421, -1.1539053, 1.44774, -0.21034145
619, 296198143, 0.5860968, -0.33173466, -0.71099013, -0.20232765, -0.7127336, 1.6007808, -0.22276306
620, 296214810, 0.5866563, -0.3313496, -0.71072954, -0.20225255, -1.0518993, 1.0491779, -0.23370457
621, 296231477, 0.5873981, -0.33027977, -0.71095777, -0.20104396, -1.7306582, 0.6336676, -0.028057098
622, 296248144, 0.5882114, -0.32844013, -0.7116955, -0.19905949, -1.3536763, 1.0785236, -0.18204689
623, 296264811, 0.58834255, -0.32733577, -0.7125182, -0.19754207, -0.23534305, 0.77890444, -0.17411232
624, 296281478, 0.5881693, -0.32705575, -0.71294063, -0.19699715, 0.4136237, -0.1236486, 0.18625927
625, 296298145, 0.5881506, -0.32670897, -0.7132155, -0.19663349, 0.544246, -0.57855177, -0.18100834
626, 296314812, 0.5882512, -0.32642165, -0.71339864, -0.19614501, 0.12557763, -0.520172, -0.26912498
627, 296331479, 0.58816737, -0.3266553, -0.71338385, -0.19606, -0.18151353, 0.2326201, -0.06818867
628, 296348146, 0.5874813, -0.3277308, -0.7132221, -0.19690919, -0.22005074, 0.68810654, 0.07510185
629, 296364813, 0.5863452, -0.32940543, -0.7129709, -0.19840483, -0.121973254, 0.3282121, 0.06818867
630, 296381480, 0.58511, -0.33094665, -0.7128862, -0.19978644, -0.26576808, -0.27236328, -0.2019453
631, 296398147, 0.58421, -0.33146864, -0.7132709, -0.20018214, -0.7793387, -0.394839, -0.18227768
632, 296414814, 0.58362174, -0.33109277, -0.71407807, -0.1996414, -0.53383344, 0.19306904, -0.009243965
633, 296431481, 0.5829694, -0.3309708, -0.71473485, -0.19939902, 0.43945643, 0.6204431, 0.22860432
634, 296448148, 0.5821174, -0.33197233, -0.71474105, -0.20019946, 1.1529442, 0.2940541, 0.22949982
635, 296464815, 0.58102655, -0.33358356, -0.7144277, -0.20180248, 0.7072922, -0.7914383, -0.15383339
636, 296481482, 0.5805315, -0.333919, -0.7145328, -0.20229979, -0.49060914, -1.6377558, 0.11532593
637, 296498149, 0.58136857, -0.331561, -0.71543896, -0.20056364, -0.9287969, -0.9887259, 0.24219894
638, 296514816, 0.5825445, -0.32859483, -0.716461, -0.19837245, 0.2470587, 0.14490055, 0.17420101
639, 296531483, 0.58302444, -0.3274044, -0.7167969, -0.19771652, 0.98721874, 0.3372094, 0.061953545
640, 296548150, 0.5828595, -0.3277685, -0.71657634, -0.19839777, 0.57715875, 0.008938283, -0.3044901
641, 296564817, 0.58276004, -0.32811856, -0.71634567, -0.19894373, -0.08188442, -0.17956349, -0.03878212
642, 296581484, 0.5828317, -0.32789344, -0.71633947, -0.1991277, -0.54540336, 0.34202063, -0.1226778
643, 296598151, 0.582849, -0.3274864, -0.7165575, -0.19896157, -0.5942141, 0.86967707, -0.1088047
644, 296614818, 0.5824704, -0.32782146, -0.71659946, -0.19936816, -0.033829134, 0.73740375, 0.007892609
645, 296631485, 0.5815676, -0.3291302, -0.7164242, -0.20047362, 0.18775758, 0.29778162, -0.18074322
646, 296648152, 0.58058536, -0.33070105, -0.71617234, -0.20163147, -0.07783704, -0.03866696, -0.11006832
647, 296664819, 0.5799268, -0.33169553, -0.7160478, -0.20233482, 0.10020622, -0.03240837, 0.21358013
648, 296681486, 0.5793954, -0.332635, -0.7158035, -0.2031775, 0.661977, 0.022920806, 0.27583027
649, 296698153, 0.57890016, -0.3339197, -0.7152585, -0.20439765, 0.8424684, -0.39439365, 0.0632782
650, 296714820, 0.5787088, -0.33496654, -0.7146304, -0.20542087, 0.59764504, -1.093724, -0.05710411
651, 296731487, 0.57912976, -0.3350432, -0.71418756, -0.2056497, 0.34995335, -1.0554065, 0.06635761
652, 296748154, 0.57994187, -0.33463696, -0.7137284, -0.2056166, 0.35200742, -0.44160125, 0.17955494
653, 296764821, 0.58064073, -0.33448344, -0.7131346, -0.20595357, -0.01141883, 0.03941975, -0.070687294
654, 296781488, 0.581312, -0.33456275, -0.7124282, -0.206376, -0.09707168, 0.26256368, 0.0736742
655, 296798155, 0.58186454, -0.33464566, -0.71178824, -0.20689228, -0.055749048, 0.27742785, -0.1384716
656, 296814822, 0.58242005, -0.33457786, -0.7113165, -0.20706052, -0.23633678, 0.2565808, -0.19531918
657, 296831489, 0.58298796, -0.33421332, -0.71109116, -0.20682494, -0.515272, 0.42466614, -0.25439358
658, 296848156, 0.583267, -0.3341618, -0.7109261, -0.2066892, -0.6643475, 0.7166306, -0.22992992
659, 296864823, 0.583085, -0.3346243, -0.71082187, -0.20681292, -0.5772124, 0.7446876, -0.2613592
660, 296881490, 0.58264905, -0.33541763, -0.7107228, -0.20709682, -0.15724449, 0.45142108, -0.08933735
661, 296898157, 0.5821286, -0.33627707, -0.7106183, -0.20752513, 0.17640045, -0.05764846, -0.009127617
662, 296914824, 0.5819835, -0.33656737, -0.71059036, -0.20755705, 0.5106971, -0.47392145, 0.038324356
663, 296931491, 0.58243, -0.33629373, -0.7104519, -0.20722142, 0.8752443, -0.75006413, 0.4564762
664, 296948158, 0.5830303, -0.33615202, -0.709992, -0.2073397, 1.1151567, -1.0073402, 0.2760973
665, 296964825, 0.58366174, -0.33650655, -0.7091147, -0.20798936, 0.64689636, -1.2138562, -0.1427517
666, 296981492, 0.58458704, -0.33669117, -0.70806885, -0.20865364, 0.77248627, -1.1103836, 0.040325165
667, 296998159, 0.5857333, -0.3371697, -0.7065444, -0.20983057, 0.957333, -0.82362926, 0.35698223
668, 297014826, 0.5869956, -0.33744162, -0.7049569, -0.2112013, 0.49660018, -0.55492646, 0.0014619827
669, 297031493, 0.5885795, -0.33703578, -0.7035846, -0.21201542, -0.39506093, -0.29534554, -0.15596676
670, 297048160, 0.59013724, -0.33619082, -0.7025115, -0.2125846, -1.316086, 0.03777749, -0.2545395
671, 297064827, 0.59148556, -0.33504596, -0.7018997, -0.21266586, -1.5989757, 0.5254963, -0.38082886
672, 297081494, 0.5928031, -0.33385062, -0.7014334, -0.21241538, -0.34200567, 1.0244174, 0.09938812
673, 297098161, 0.59331375, -0.33430833, -0.70042723, -0.2135869, 0.37923756, 1.3812188, 0.35438347
674, 297114828, 0.59278226, -0.33639207, -0.6990995, -0.21612583, -0.37181515, 0.8055493, -0.2558298
675, 297131495, 0.59251183, -0.3374492, -0.6983693, -0.21757492, -1.664788, -0.07356549, -0.12366676
676, 297148162, 0.5927716, -0.33672565, -0.6985008, -0.21756592, -1.1972237, -0.16994807, -0.14158821
677, 297164829, 0.5928515, -0.33631587, -0.69860363, -0.21765181, 0.14107735, -0.08639815, -0.23063755
678, 297181496, 0.59239495, -0.33701602, -0.6983513, -0.21861997, 0.1804192, -0.41417578, -0.26170158
679, 297198163, 0.59179294, -0.33781847, -0.698092, -0.21983692, -0.8550676, -0.6991796, -0.16322327
680, 297214830, 0.5914303, -0.33726534, -0.69860625, -0.2200285, -1.740465, -0.4871494, -0.30767822
681, 297231497, 0.5912783, -0.33562997, -0.6997817, -0.21920039, -0.69423926, 0.022435337, -0.023483276
682, 297248164, 0.5908892, -0.3346638, -0.7006594, -0.21892348, 0.21324924, 0.11436164, 0.24798107
683, 297264831, 0.5903243, -0.33456188, -0.7009496, -0.21967286, 0.11002783, -0.5127793, 0.15528965
684, 297281498, 0.5900818, -0.33396298, -0.7013261, -0.22003335, -0.09088975, -0.04058805, -0.5140133
685, 297298165, 0.59003735, -0.3330087, -0.701953, -0.21959929, 0.017865838, 1.1652076, -0.06437302
686, 297314832, 0.589555, -0.33284768, -0.70240515, -0.21969308, 0.6067921, 1.8542948, 0.3568058
687, 297331499, 0.5879563, -0.33465284, -0.702312, -0.2215259, -0.10438815, 1.5718946, -0.27093983
688, 297348166, 0.5859825, -0.33703312, -0.7021502, -0.22364983, -1.1452303, 0.5946275, -0.3499546
689, 297364833, 0.58439285, -0.3379296, -0.70275337, -0.22456005, -1.0227752, 0.47041866, -0.09383583
690, 297381500, 0.5828166, -0.33820823, -0.7037979, -0.22496536, -1.073826, 0.9161054, -0.4262724
691, 297398167, 0.58091795, -0.33859426, -0.7050763, -0.2252922, -1.2427571, 0.79382706, -0.16795254
692, 297414834, 0.57895726, -0.33882633, -0.70649767, -0.22553709, -0.24915704, -0.06543722, 0.48868752
693, 297431501, 0.57687795, -0.3387233, -0.7080896, -0.22602731, -0.5234499, -1.2014462, -0.30314732
694, 297448168, 0.5752397, -0.33748555, -0.7102246, -0.22535436, -0.106922336, -1.1158496, -0.25999832
695, 297464835, 0.57445604, -0.33527336, -0.71240383, -0.2237716, 0.65980756, -0.7031334, 0.29977703
696, 297481502, 0.5735111, -0.33341625, -0.71431005, -0.22289151, 1.1148154, -0.21010654, 0.16726398
697, 297498169, 0.5719913, -0.33300838, -0.71563315, -0.2231625, 0.8232112, -0.15718381, 0.30992508
698, 297514836, 0.5708423, -0.3326548, -0.7167283, -0.22311646, 0.07600245, -0.48090634, 0.022815704
699, 297531503, 0.5705478, -0.33126134, -0.7178532, -0.22232641, 1.359139, -0.39123684, -0.17805386
700, 297548170, 0.5701766, -0.3307703, -0.7182963, -0.22257784, 1.9421333, -0.29567924, -0.047688484
701, 297564837, 0.5697143, -0.33105984, -0.71829283, -0.22334138, 0.6776582, -0.22034153, 0.19058514
702, 297581504, 0.56979847, -0.33047065, -0.71863186, -0.22290742, 0.5981676, 0.17941765, 0.72886753
703, 297598171, 0.57005405, -0.32988128, -0.71881884, -0.22252414, 0.7828139, 0.27628583, 0.36634445
704, 297614838, 0.56983805, -0.33007202, -0.7187148, -0.22312996, -0.5651952, -0.13213639, -0.7296448
705, 297631505, 0.56977934, -0.33031583, -0.71844274, -0.22379422, -0.34821576, -0.61219585, -0.0841589
706, 297648172, 0.5696814, -0.32999218, -0.71838576, -0.22470218, -0.7693396, -1.4198912, -0.08401203
707, 297664839, 0.5698546, -0.3293356, -0.7184476, -0.22502823, -0.45945257, -1.0629345, 0.12203789
708, 297681506, 0.5697712, -0.32848194, -0.7189532, -0.22487156, -1.6690546, -0.12086709, -0.37910843
709, 297698173, 0.56930304, -0.32685697, -0.7204772, -0.22354376, -2.4773924, 1.5843579, -0.8262625
710, 297714840, 0.56827956, -0.32497448, -0.72252184, -0.22229028, -2.2101095, 0.92396903, -0.2337141
711, 297731507, 0.566733, -0.32196194, -0.7256028, -0.22058052, -2.474533, 0.9626838, -0.2937708
712, 297748174, 0.56527084, -0.31827626, -0.7291968, -0.21781214, -1.0161132, 0.8653895, -0.3835125
713, 297764841, 0.5637698, -0.31429777, -0.7330585, -0.21449105, -0.60149795, 1.0833474, -0.40127373
714, 297781508, 0.56198543, -0.31089008, -0.7367604, -0.21143493, -0.19871151, 1.2965122, -1.0262051
715, 297798175, 0.5598739, -0.30872238, -0.7399474, -0.20907009, -0.7359088, 1.0320402, -0.52638245
716, 297814842, 0.55678815, -0.30696353, -0.7435436, -0.20713316, -1.611791, 0.9403429, -0.656497
717, 297831509, 0.5535736, -0.3052519, -0.7473899, -0.20441768, -1.4643735, 1.2828885, -0.5163441
718, 297848176, 0.55071175, -0.3028171, -0.7515221, -0.20058312, 1.018106, 1.8725313, -0.13691616
719, 297864843, 0.54837894, -0.30114248, -0.7548172, -0.19709258, 3.2780817, 1.7996484, -0.049510956
720, 297881510, 0.54523826, -0.30252132, -0.75676787, -0.19621234, 2.308921, 0.7406682, -0.23143959
721, 297898177, 0.5405174, -0.30625623, -0.758298, -0.19756776, -1.3220838, -0.9709062, -0.4144888
722, 297914844, 0.53595054, -0.30822688, -0.76070356, -0.19769683, -3.1031156, -1.7401199, -0.059693336
723, 297931511, 0.53385526, -0.305371, -0.7643497, -0.19369397, 0.2782361, -1.3696384, 0.48597813
724, 297948178, 0.5338806, -0.30113316, -0.7672839, -0.18859063, 4.2382994, -0.16311166, 0.7644081
725, 297964845, 0.53260076, -0.30096883, -0.76852584, -0.1874114, 3.6026812, 0.17151457, 0.30906773
726, 297981512, 0.52900815, -0.3045625, -0.7689634, -0.1899687, -0.29086053, -1.4399712, 0.17588711
727, 297998179, 0.5253904, -0.3066905, -0.77018934, -0.19161198, -2.4246953, -2.5027316, 0.20439816
728, 298014846, 0.5240571, -0.30461705, -0.7724467, -0.1894721, -0.9622655, -2.4167302, 0.6006079
729, 298031513, 0.5251729, -0.30008912, -0.77445924, -0.1853475, 2.9555557, -0.11053442, 0.8872137
730, 298048180, 0.52525157, -0.29835975, -0.7753541, -0.18417126, 2.6784728, 0.05646032, 0.43747234
731, 298064847, 0.5237602, -0.2988256, -0.7759053, -0.18533899, -0.00825791, -1.2016695, 0.4257536
732, 298081514, 0.52233005, -0.2982122, -0.7769484, -0.18599185, -1.4698414, -2.1594365, 0.3142109
733, 298098181, 0.5225405, -0.29490936, -0.77851564, -0.18410292, 0.35717595, -1.1647733, 0.28319645
734, 298114848, 0.5240281, -0.29153267, -0.77939475, -0.18151546, 3.291267, 1.3766755, 0.2258215
735, 298131515, 0.52398723, -0.29179022, -0.77915853, -0.18223225, 1.6997398, 0.84764236, 0.08689308
736, 298148182, 0.5230885, -0.2931876, -0.7788101, -0.18405244, 0.105136916, -0.21751353, 0.42077637
737, 298164849, 0.5225493, -0.29363185, -0.77883774, -0.18475747, -0.7575091, -1.1389493, 0.2348175
738, 298181516, 0.52297205, -0.29250768, -0.77925444, -0.18358345, -0.7775435, -1.6205176, 0.22782612
739, 298198183, 0.5238078, -0.2903607, -0.77991885, -0.18177924, -0.006047282, -1.1799041, 0.278224
740, 298214850, 0.52454615, -0.28809968, -0.7805584, -0.18049729, 0.6801531, -0.39685026, 0.23286629
741, 298231517, 0.52525026, -0.2864811, -0.780811, -0.17993185, 0.91264206, -0.06220388, 0.2652874
742, 298248184, 0.5260962, -0.285565, -0.78060156, -0.17982599, 1.1521152, 0.24447623, 0.18135262
743, 298264851, 0.52710325, -0.2852855, -0.78003705, -0.17977081, 1.2065753, 0.7352284, -0.028303146
744, 298281518, 0.5280704, -0.28560236, -0.77921647, -0.17998748, 1.2415897, 1.1523361, -0.09909248
745, 298298185, 0.52885103, -0.28655303, -0.77817124, -0.18070522, 0.8246184, 1.0320942, -0.10839081
746, 298314852, 0.52953964, -0.28769353, -0.7771008, -0.1814802, 0.11865498, 0.5955129, -0.19912815
747, 298331519, 0.5302584, -0.28832558, -0.7762967, -0.18182027, -0.48540846, 0.2761925, -0.18658733
748, 298348186, 0.5311535, -0.28835058, -0.77574635, -0.18151681, -0.6077335, 0.26901695, -0.24011326
749, 298364853, 0.5319727, -0.28842568, -0.7752631, -0.18106274, -0.4083899, 0.45506087, -0.16443157
750, 298381520, 0.5324533, -0.28902248, -0.7747258, -0.18099776, -0.43940726, 0.2762752, -0.24095917
751, 298398187, 0.5327591, -0.28985214, -0.7741787, -0.18111242, -0.540301, -0.081169404, -0.1585846
752, 298414854, 0.5331156, -0.29034182, -0.77379566, -0.18091461, -0.556807, -0.35732603, -0.1450386
753, 298431521, 0.5335608, -0.29032034, -0.7735962, -0.1804895, -0.39078736, -0.35562778, -0.09702301
754, 298448188, 0.53403366, -0.28995514, -0.7735347, -0.17994137, -0.23412848, -0.34268582, 0.025084496
755, 298464855, 0.53446436, -0.28952235, -0.7734947, -0.1795309, -0.18853317, -0.15322942, 0.21622276
756, 298481522, 0.53480655, -0.289096, -0.77345765, -0.17935906, -0.14244704, -0.2187452, 0.06544113
757, 298498189, 0.53520995, -0.2887479, -0.7733155, -0.17932911, 0.06440034, -0.36342436, -0.10247707
758, 298514856, 0.53567, -0.28834254, -0.7731244, -0.179432, 0.080697566, -0.55347663, -0.35096836
759, 298531523, 0.5362209, -0.28775397, -0.7729575, -0.1794498, 0.04790553, -0.5317055, -0.35077763
760, 298548190, 0.5368672, -0.28711915, -0.7727351, -0.17949273, 0.10549454, -0.37872124, 0.15474796
761, 298564857, 0.5374314, -0.2866494, -0.7724628, -0.17972648, -0.039406676, -0.39483163, 0.25497437
762, 298581524, 0.5380593, -0.28589812, -0.77227294, -0.17986082, -0.098600954, -0.42666993, 0.1720562
763, 298598191, 0.5387527, -0.28488725, -0.77216864, -0.17983685, -0.074667186, -0.22107756, -0.054857254
764, 298614858, 0.5393761, -0.283923, -0.77206206, -0.17995018, -0.06674633, 0.047196213, -0.15349483
765, 298631525, 0.53992105, -0.28306264, -0.7719499, -0.18015225, -0.1504336, 0.09569875, -0.22209263
766, 298648192, 0.54043704, -0.28226295, -0.77181333, -0.18044463, -0.17134726, 0.07789873, -0.003955841
767, 298664859, 0.5409315, -0.2814683, -0.77167946, -0.18077685, -0.20418891, 0.06763368, 0.11035824
768, 298681526, 0.5414304, -0.2805886, -0.77159095, -0.18102822, -0.23286116, 0.060635936, -0.06106949
769, 298698193, 0.541873, -0.27963066, -0.7715976, -0.18115753, -0.17668654, 0.10646805, -0.35300446
770, 298714860, 0.5421841, -0.27878842, -0.7716618, -0.18125218, -0.14650872, 0.25380242, -0.4094696
771, 298731527, 0.5423503, -0.27813205, -0.77175474, -0.18136773, -0.18488768, 0.3443777, -0.30118942
772, 298748194, 0.5424855, -0.27760857, -0.7718306, -0.1814422, -0.08094566, 0.32135954, 0.027639389
773, 298764861, 0.5426232, -0.27722082, -0.7718549, -0.18151952, 0.0075015416, 0.2861663, 0.31422424
774, 298781528, 0.54268825, -0.27697375, -0.7718733, -0.18162404, 0.035379864, 0.23009105, 0.13290119
775, 298798195, 0.542687, -0.27673212, -0.77194625, -0.18168665, 0.019762568, 0.087072045, -0.21731853
776, 298814862, 0.5427091, -0.27647117, -0.7720258, -0.18167955, 0.040243953, 0.038802296, -0.31803703
777, 298831529, 0.54273015, -0.27618164, -0.77212757, -0.1816251, 0.08635066, 0.051162004, -0.22489834
778, 298848196, 0.54278237, -0.27590936, -0.77219194, -0.18160844, 0.16157171, -0.013992358, 0.107525826
779, 298864863, 0.5428443, -0.27567512, -0.77221185, -0.18169478, 0.08291794, -0.08703673, 0.13565254
780, 298881530, 0.5429387, -0.2754069, -0.7722279, -0.18175188, 0.11987849, -0.08362402, -0.09030342
781, 298898197, 0.5430668, -0.2751639, -0.77221626, -0.18178572, 0.20840617, -0.091105446, -0.19809055
782, 298914864, 0.5432213, -0.27508402, -0.7721212, -0.18184878, 0.23710164, -0.06627114, -0.08226776
783, 298931531, 0.5433724, -0.27517888, -0.7719299, -0.18206592, 0.10053971, -0.06268287, 0.11101627
784, 298948198, 0.54351634, -0.27531105, -0.771717, -0.1823392, -0.020975797, -0.11204593, 0.1514082
785, 298964865, 0.5436698, -0.2752996, -0.7715642, -0.1825459, -0.07256304, -0.19323958, 0.006921768
786, 298981532, 0.54383636, -0.27511328, -0.77148914, -0.18264744, -0.09978736, -0.2093248, -0.14182949
787, 298998199, 0.5440212, -0.27472124, -0.7715, -0.18264075, -0.13009349, -0.16918176, -0.15535259
788, 299014866, 0.5442717, -0.27422267, -0.7715176, -0.1825696, -0.06465381, -0.06350551, -0.03376007
789, 299031533, 0.5445182, -0.27373004, -0.7715504, -0.18243515, -0.035800517, 0.043623693, 0.02455616
790, 299048200, 0.5447035, -0.27334306, -0.7715887, -0.18230055, 0.008209184, 0.07510829, 0.057169914
791, 299064867, 0.54484093, -0.2730706, -0.77158624, -0.18230833, 0.015292309, 0.07836677, -0.055480957
792, 299081534, 0.54496366, -0.2728921, -0.7715584, -0.18232654, 0.033091094, 0.09397591, -0.19976616
793, 299098201, 0.5450709, -0.27281657, -0.77150065, -0.18236372, 0.015113052, 0.12649381, -0.21190357
794, 299114868, 0.54513013, -0.27285594, -0.7714433, -0.1823702, -0.039436627, 0.09414545, -0.072805405
795, 299131535, 0.54515094, -0.27293238, -0.77140844, -0.18234156, -0.06580803, 0.07873233, -0.0030984879
796, 299148202, 0.5451339, -0.27302334, -0.7713922, -0.18232404, -0.07835336, -0.01252846, -0.046804428
797, 299164869, 0.54508317, -0.27303076, -0.7714379, -0.1822716, -0.10447577, -0.06221394, -0.12984657
798, 299181536, 0.5450465, -0.2729212, -0.7715298, -0.182156, -0.06697253, -0.046115417, -0.0637331
799, 299198203, 0.54501015, -0.2727952, -0.77162147, -0.18206549, 0.022793405, -0.011512817, -0.052924156
800, 299214870, 0.544951, -0.27280635, -0.7716479, -0.18211372, 0.07558448, 0.00633134, -0.0487957
801, 299231537, 0.54484224, -0.2730014, -0.7716064, -0.18232232, 0.045728516, -0.1132244, -0.058991432
802, 299248204, 0.5447601, -0.273222, -0.77152693, -0.18257312, 9.7049325E-4, -0.22277515, -0.033322334
803, 299264871, 0.5446865, -0.27330858, -0.77150375, -0.18276098, 0.035652105, -0.24347311, -0.042603493
804, 299281538, 0.544623, -0.27335653, -0.7714632, -0.18305051, 0.04622069, -0.20794047, -0.046948433
805, 299298205, 0.54455036, -0.2733672, -0.7714204, -0.18343076, -0.036475528, -0.18802156, -0.07278824
806, 299314872, 0.54450405, -0.27315775, -0.7714409, -0.18379387, -0.14110015, -0.16565429, -0.047836304
807, 299331539, 0.54454, -0.2727172, -0.77149755, -0.18410246, -0.14015335, -0.16878793, -0.021126747
808, 299348206, 0.5446535, -0.27208143, -0.77159977, -0.18427953, -0.059369512, -0.082959294, -0.009716034
809, 299364873, 0.5448248, -0.2714431, -0.7716727, -0.18440887, -0.01597313, 0.023674045, -0.04875374
810, 299381540, 0.54492456, -0.27098835, -0.77171755, -0.18459462, -0.0056566657, 0.1000254, -0.1415348
811, 299398207, 0.5448922, -0.27075395, -0.77176726, -0.18482691, -0.08731265, 0.15697896, -0.25069332
812, 299414874, 0.5448217, -0.27066338, -0.77180165, -0.18502364, -0.13901165, 0.22079012, -0.16411877
813, 299431541, 0.5447599, -0.27067465, -0.7718208, -0.18510906, -0.13578278, 0.359996, -0.14895153
814, 299448208, 0.544465, -0.2710562, -0.7718313, -0.18537454, -0.485695, 0.16850753, -0.29111004
815, 299464875, 0.5440359, -0.27146006, -0.7719497, -0.18555027, -0.8941077, -0.054395564, -0.19531918
816, 299481542, 0.54364973, -0.27157003, -0.7722835, -0.18513185, -0.8947867, 0.29084477, -0.21945286
817, 299498209, 0.5431391, -0.2718507, -0.7727114, -0.18443161, -0.614151, 0.7464765, -0.4659176
818, 299514876, 0.54253006, -0.2726313, -0.77297324, -0.1839736, -0.030509071, 1.0719651, -0.42752075
819, 299531543, 0.5416894, -0.27402687, -0.77310854, -0.18380925, 0.45376348, 1.556156, -0.13391781
820, 299548210, 0.5399802, -0.27641082, -0.77336323, -0.18419687, -1.0617174, 1.1024029, -0.74196815
821, 299564877, 0.53802806, -0.27813035, -0.7741145, -0.18416494, -1.9352422, 0.49970022, -0.3157091
822, 299581544, 0.53661233, -0.27796873, -0.77554995, -0.18249245, -0.17219974, 1.2427616, -0.39082623
823, 299598211, 0.53485644, -0.27862167, -0.7769233, -0.18080248, 1.5482355, 2.0264533, -0.15584946
824, 299614878, 0.53254586, -0.28134423, -0.77767307, -0.18018267, 1.0409825, 1.2237216, 0.18885612
825, 299631545, 0.52997494, -0.2843703, -0.77839375, -0.17990011, 0.24475116, -0.27111495, -0.10221672
826, 299648212, 0.52784914, -0.2864121, -0.7793391, -0.17881513, 0.3615948, -0.8771817, 0.09706974
827, 299664879, 0.52631897, -0.2880881, -0.7802189, -0.17678523, 1.0855919, -0.3559911, 0.3085823
828, 299681546, 0.5246531, -0.29076725, -0.7806188, -0.17558116, 0.5996173, -0.4769742, 0.40577698
829, 299698213, 0.52264345, -0.2936332, -0.7809597, -0.17528832, 0.05742316, -1.0444212, 0.042883873
830, 299714880, 0.52086204, -0.29587978, -0.78136694, -0.17499846, -0.016749166, -1.7044168, 0.32500362
831, 299731547, 0.5199539, -0.297271, -0.78170806, -0.17381343, 0.72871125, -1.5333129, 0.44091034
832, 299748214, 0.51927036, -0.29843944, -0.7820093, -0.17249438, 0.8081218, -0.94306576, 0.46756077
833, 299764881, 0.5185025, -0.2995036, -0.7823401, -0.17145783, 0.1620013, -0.8161931, 0.4309597
834, 299781548, 0.5178857, -0.30009362, -0.782753, -0.17040202, 0.10131753, -0.80972385, 0.33771324
835, 299798215, 0.5177195, -0.29996827, -0.78321856, -0.16898265, 0.3797454, -0.7101396, 0.2555561
836, 299814882, 0.51814693, -0.29938093, -0.7836045, -0.16691197, 1.1762567, -0.41349706, 0.41513157
837, 299831549, 0.5185944, -0.29943204, -0.78365594, -0.16518001, 1.1582556, 0.16240652, 0.16877556
838, 299848216, 0.5187046, -0.30023316, -0.7834834, -0.1641955, 0.5609567, 0.13041836, 0.14141083
839, 299864883, 0.51889, -0.30107147, -0.7832201, -0.16332822, 0.10276053, -0.15063275, 0.25836563
840, 299881550, 0.5193076, -0.30148005, -0.7830269, -0.16217013, 0.023697738, -0.329753, 0.090441704
841, 299898217, 0.51986414, -0.30160224, -0.78290665, -0.1607339, 0.15017031, -0.3380952, 0.1364088
842, 299914884, 0.5204543, -0.3017182, -0.78277177, -0.15925696, 0.14498213, -0.23109508, 0.049010277
843, 299931551, 0.52099246, -0.3020615, -0.7825256, -0.15805118, 0.048442855, -0.22579166, -0.021969795
844, 299948218, 0.5213811, -0.30270207, -0.7821727, -0.15728946, -0.18955016, -0.056215968, -0.10744572
845, 299964885, 0.52179015, -0.3032759, -0.7818297, -0.15653074, -0.15817565, 0.10640703, -0.10738945
846, 299981552, 0.52243894, -0.30372766, -0.7813903, -0.15568337, 0.3030925, 0.25707042, 0.1304636
847, 299998219, 0.5229245, -0.3044095, -0.78091186, -0.15512049, 0.50663435, 0.17598292, -0.124513626
848, 300014886, 0.52332664, -0.30538216, -0.7803454, -0.1547028, 0.27681768, 0.03843093, -0.04074478
849, 300031553, 0.5239795, -0.3064715, -0.77956504, -0.1542711, 0.25198045, -0.095583305, 0.26721954
850, 300048220, 0.5247158, -0.30737475, -0.77883285, -0.15366922, 0.42506263, -0.07797808, 0.034318924
851, 300064887, 0.525313, -0.30844858, -0.77811927, -0.15309122, 0.27045202, 0.06320645, -0.06560421
852, 300081554, 0.5260331, -0.30962715, -0.77728236, -0.15249026, 0.39640826, 0.26664123, 0.23322201
853, 300098221, 0.52659684, -0.31117046, -0.77629685, -0.15242234, 0.74140054, 0.12361261, 0.022348404
854, 300114888, 0.52706057, -0.31327707, -0.77504474, -0.15287651, 0.7932276, -0.32538736, -0.06343746
855, 300131555, 0.5277505, -0.315466, -0.7736032, -0.15329525, 0.31209382, -0.8826719, 0.3241186
856, 300148222, 0.5289192, -0.3166328, -0.7723866, -0.15299627, 0.13978098, -0.9452221, 0.35980606
857, 300164889, 0.53054, -0.31702602, -0.7712843, -0.15212867, 0.48303518, -0.5942038, 0.3060484
858, 300181556, 0.53239125, -0.31740686, -0.7699693, -0.15152732, 1.0887115, -0.0473016, 0.3272791
859, 300198223, 0.53418005, -0.31867662, -0.7681413, -0.1518444, 1.4517918, 0.10841239, 0.22980404
860, 300214890, 0.5357756, -0.32098353, -0.7658093, -0.15313725, 1.0049202, -0.32812563, 0.071409225
861, 300231557, 0.53734285, -0.32339406, -0.7633943, -0.15462504, -0.0076495074, -0.7640844, 0.033703804
862, 300248224, 0.5392947, -0.32487956, -0.7612345, -0.15536201, -0.3593659, -0.43100283, 0.045269966
863, 300264891, 0.5417081, -0.3259672, -0.75896925, -0.15576878, 0.69673616, -0.059928406, 0.09857464
864, 300281558, 0.54395664, -0.32778132, -0.7562903, -0.15715078, 0.9304107, -0.2678331, -0.039322853
865, 300298225, 0.54603755, -0.3302208, -0.75324374, -0.1594419, 0.5203757, -0.5962532, -0.16350365
866, 300314892, 0.5484492, -0.33243427, -0.7500751, -0.16148935, 0.007726843, -0.849968, 0.08780289
867, 300331559, 0.5512422, -0.33349544, -0.7472554, -0.16285774, -0.51045287, -0.8514793, -0.10786915
868, 300348226, 0.5544002, -0.33366823, -0.74470556, -0.1634635, -0.7603247, -0.45857728, -0.27795124
869, 300364893, 0.5576137, -0.33355445, -0.7422782, -0.1638056, -0.8043619, -0.10128222, -0.09687424
870, 300381560, 0.5606433, -0.33321357, -0.7400481, -0.1642482, -0.79238963, 0.029853843, -0.24770927
871, 300398227, 0.56349635, -0.33295822, -0.73787165, -0.16479287, -0.6974306, -0.025840668, -0.3599758
872, 300414894, 0.5663805, -0.3323708, -0.7358771, -0.16500984, -0.8981016, 0.011626027, -0.25042343
873, 300431561, 0.569309, -0.33119577, -0.73424214, -0.16457818, -0.7834205, 0.43132535, -0.21793747
874, 300448228, 0.57206064, -0.32988483, -0.7328392, -0.16392119, -0.5458781, 0.7488049, -0.3779812
875, 300464895, 0.57434714, -0.32904312, -0.7315155, -0.1635296, -0.95277804, 0.7443975, -0.45482922
876, 300481562, 0.57630646, -0.32826674, -0.73036647, -0.16333206, -1.1923712, 0.31042933, -0.20136738
877, 300498229, 0.5781161, -0.3273232, -0.7294493, -0.16292962, -0.83792907, 0.0011931121, -0.12400532
878, 300514896, 0.5796596, -0.32640547, -0.728725, -0.16252646, -0.43366206, -0.08650935, -0.13049412
879, 300531563, 0.58110225, -0.3257041, -0.72793597, -0.16231805, -0.1756937, 0.03755554, -0.054780006
880, 300548230, 0.58244497, -0.32511184, -0.7271545, -0.1621954, -0.060780324, 0.22022608, -0.08026123
881, 300564897, 0.5835068, -0.32483146, -0.7263234, -0.16266306, 0.1144963, 0.16375633, 0.04417324
882, 300581564, 0.5844714, -0.32474375, -0.7254018, -0.1634861, -0.055450436, -0.20747098, 0.095472336
883, 300598231, 0.5857013, -0.32406884, -0.7246442, -0.16378374, -0.44458693, -0.39390114, -0.2518568
884, 300614898, 0.5871294, -0.32303384, -0.7239654, -0.16371623, -0.41613775, -0.29230633, -0.078974724
885, 300631565, 0.588485, -0.32208985, -0.72325176, -0.16386291, -0.39536625, 0.09256912, 0.08946133
886, 300648232, 0.5894555, -0.3217923, -0.72241694, -0.1646407, -0.43438983, 0.33404168, -0.03015232
887, 300664899, 0.5900203, -0.3218476, -0.7217025, -0.16564046, -0.4073291, 0.2789444, -0.22891617
888, 300681566, 0.59044623, -0.32181132, -0.72118723, -0.16643485, -0.56884223, 0.34899235, -0.35973263
889, 300698233, 0.59070593, -0.32163966, -0.7209431, -0.16690175, -0.65400875, 0.6010099, -0.39232635
890, 300714900, 0.59080535, -0.32169384, -0.72072196, -0.16740018, -0.11277972, 0.46558934, 0.10979366
891, 300731567, 0.59068495, -0.32199755, -0.7204525, -0.16839808, 0.22328229, 0.12653492, 0.012268066
892, 300748234, 0.5904455, -0.32248566, -0.7201777, -0.1694757, 0.08958936, -0.34342173, -0.21686268
893, 300764901, 0.5903794, -0.32267624, -0.7199702, -0.17022255, -0.27434874, -0.4731328, -0.26243782
894, 300781568, 0.5904525, -0.32277796, -0.7197061, -0.17089275, -0.03350146, 0.12129277, 0.114349365
895, 300798235, 0.590203, -0.3235789, -0.719194, -0.17238832, 0.34484607, 0.43950918, 0.30090904
896, 300814902, 0.5896541, -0.3249204, -0.71851975, -0.17454176, 0.29290032, 0.093073815, 0.053183556
897, 300831569, 0.5892664, -0.32576558, -0.7180369, -0.17625485, -0.106061816, -0.2418199, -0.15270233
898, 300848236, 0.5892157, -0.3258698, -0.71780664, -0.17716725, -0.28187487, -0.006224724, -0.16844559
899, 300864903, 0.5891366, -0.32600248, -0.7176134, -0.17796636, -0.21589877, 0.31018066, -0.046679497
900, 300881570, 0.58881164, -0.3265374, -0.7173532, -0.17910732, -0.014074611, 0.17452785, -0.046308517
901, 300898237, 0.5883603, -0.3272657, -0.7170837, -0.18033561, -0.057873763, -0.24210119, -0.18116093
902, 300914904, 0.58808273, -0.32753873, -0.7169946, -0.18109812, -0.13309705, -0.26512247, -0.23285866
903, 300931571, 0.5879584, -0.3274762, -0.71701807, -0.18152158, -0.17303568, 0.21679439, -0.08384895
904, 300948238, 0.5876198, -0.3277393, -0.7169855, -0.18227072, -0.15371433, 0.5523377, 0.03472328
905, 300964905, 0.58699644, -0.3284667, -0.71686655, -0.18343401, -0.011438499, 0.43313792, -0.054371834
906, 300981572, 0.5862958, -0.32942638, -0.71667707, -0.18468975, 0.2594042, -0.016374893, 0.018803596
907, 300998239, 0.5857651, -0.33015794, -0.7165056, -0.18572983, 0.19483982, -0.34311864, 0.032295227
908, 301014906, 0.58551306, -0.3304746, -0.7163581, -0.18652843, 0.23607305, -0.55656606, 0.2436657
909, 301031573, 0.5855392, -0.33034772, -0.7162265, -0.18717556, 0.61358285, -0.4218768, 0.1177845
910, 301048240, 0.5856715, -0.33050415, -0.7157885, -0.18815865, 0.9904018, -0.6410498, 0.17829895
911, 301064907, 0.5860069, -0.3307125, -0.71511096, -0.18932103, 0.76212287, -0.83832616, -0.010072708
912, 301081574, 0.5866292, -0.33069652, -0.7143065, -0.1904551, 0.49097392, -0.74555933, 0.09119511
913, 301098241, 0.58731914, -0.3306589, -0.7133925, -0.19181474, 0.25124153, -0.3817494, -0.0044136047
914, 301114908, 0.5880041, -0.33068183, -0.712441, -0.1932081, 0.018521177, -0.074091524, 0.013877869
915, 301131575, 0.588697, -0.33065274, -0.71150655, -0.19458608, -0.03678755, 0.05482415, -0.0747509
916, 301148242, 0.5893573, -0.33057436, -0.7106654, -0.19579089, -0.057035588, 0.26430285, -0.13183689
917, 301164909, 0.58992445, -0.33064687, -0.7098468, -0.19692628, -0.2495254, 0.4174537, -0.11617756
918, 301181576, 0.59033316, -0.33077833, -0.70915675, -0.19796473, -0.49790505, 0.6664086, -0.18722916
919, 301198243, 0.59064865, -0.33097905, -0.7085642, -0.1988084, -0.44409254, 0.55575067, 0.0027227402
920, 301214910, 0.59098566, -0.33097515, -0.7081095, -0.1994319, -0.31839108, 0.38653603, -0.04925728
921, 301231577, 0.5914684, -0.3305894, -0.7078522, -0.19955449, -0.32814965, 0.41936886, -0.15198898
922, 301248244, 0.5920449, -0.33014753, -0.70759565, -0.19948609, -0.31920868, 0.65863717, -0.048297882
923, 301264911, 0.59210384, -0.33037436, -0.7073093, -0.19995093, -0.3620807, 0.80445105, -0.19126987
924, 301281578, 0.59179187, -0.33104965, -0.70707303, -0.20059165, -0.6861928, 0.5196671, -0.07645035
925, 301298245, 0.5913405, -0.33163798, -0.70703804, -0.20107362, -0.4585592, 0.2695725, -0.14620018
926, 301314912, 0.5909895, -0.33186987, -0.7072262, -0.20106101, -0.207492, 0.03613925, -0.0060596466
927, 301331579, 0.590727, -0.33183825, -0.7075149, -0.20086916, 0.13885295, 0.024086539, 0.008971214
928, 301348246, 0.5905245, -0.33182272, -0.70775384, -0.20064873, 0.44645685, -0.11918706, -0.026216507
929, 301364913, 0.5904619, -0.33182305, -0.70785123, -0.20048836, 0.6743699, -0.41185513, 0.14706612
930, 301381580, 0.59058076, -0.33172566, -0.7078119, -0.20043841, 0.6849141, -0.59804916, 0.046915054
931, 301398247, 0.5909052, -0.33149618, -0.7076822, -0.20031981, 0.48188454, -0.53506297, 0.018561363
932, 301414914, 0.5913656, -0.33118337, -0.7074665, -0.20024107, 0.22833458, -0.2501311, 0.05217552
933, 301431581, 0.5917403, -0.33111143, -0.7071313, -0.20043637, 0.060932312, -0.04648075, 0.00918293
934, 301448248, 0.59209174, -0.3310728, -0.7067947, -0.20064959, -0.06481965, 0.066820204, -0.011651039
935, 301464915, 0.59243214, -0.3309856, -0.7065206, -0.20075417, -0.17938659, 0.112754464, -0.086660385
936, 301481582, 0.5927589, -0.33081168, -0.7063594, -0.20064336, -0.20871684, 0.31780124, -0.11723709
937, 301498249, 0.5929877, -0.33075875, -0.706213, -0.20056987, -0.1894232, 0.50549555, -0.042286873
938, 301514916, 0.5930667, -0.33095258, -0.70603925, -0.20062852, -0.18539283, 0.5156588, -0.037068367
939, 301531583, 0.5931632, -0.33118457, -0.70585877, -0.20059544, -0.045458063, 0.34060514, 0.009868622
940, 301548250, 0.59324723, -0.33144748, -0.7056613, -0.20060696, 0.1262951, 0.15376149, -0.06405163
941, 301564917, 0.5932556, -0.33178574, -0.70549613, -0.20060393, -0.1080475, -0.073856056, -0.0740757
942, 301581584, 0.5932899, -0.33211982, -0.7053374, -0.20050807, -0.20236684, 0.23624727, -0.124115944
943, 301598251, 0.5931497, -0.3328642, -0.70508, -0.20059387, -0.1704407, 0.41645616, 0.008606911
944, 301614918, 0.5929197, -0.33361277, -0.70484793, -0.20084523, -0.025871625, 0.27020872, 0.021044731
945, 301631585, 0.59273815, -0.33410105, -0.70476204, -0.20087114, 0.006724164, -0.067522705, -0.14573288
946, 301648252, 0.59283626, -0.33402506, -0.7048735, -0.20031637, -0.03979559, -0.19068371, -0.09235287
947, 301664919, 0.5930623, -0.33365372, -0.7050824, -0.19952956, -0.020179197, 0.03457511, -0.07515335
948, 301681586, 0.5932361, -0.3334869, -0.70519644, -0.19888765, 0.13845778, 0.024346484, 0.08139706
949, 301698253, 0.5934169, -0.3334599, -0.7051636, -0.19850902, 0.2983804, -0.25087094, 0.14070797
950, 301714920, 0.59375393, -0.33320716, -0.70514226, -0.19800135, 0.26820078, -0.38973182, -0.067391396
951, 301731587, 0.5943028, -0.3326726, -0.7051238, -0.19731782, 0.19813262, -0.5626321, 0.035069466
952, 301748254, 0.59502304, -0.33194104, -0.70502985, -0.19671369, 0.40110964, -0.6737306, 0.10006428
953, 301764921, 0.59582543, -0.33126342, -0.70477355, -0.1963456, 0.44340456, -0.7046883, 0.06441116
954, 301781588, 0.59667236, -0.33072188, -0.7043549, -0.1961891, 0.28256464, -0.6515111, 0.0936327
955, 301798255, 0.5974859, -0.33018556, -0.7038922, -0.19627713, -0.09061036, -0.19558199, 0.035708427
956, 301814922, 0.598089, -0.32983765, -0.7034567, -0.19658674, -0.5033252, 0.42387354, -0.19394398
957, 301831589, 0.5983315, -0.3301686, -0.70284396, -0.19748211, -0.32224935, 0.5139955, 0.032162666
958, 301848256, 0.598071, -0.3310861, -0.702166, -0.19914074, -0.34032664, 0.37564638, -0.11950207
959, 301864923, 0.5973793, -0.33233318, -0.70158184, -0.20118763, -0.71624726, -0.21159503, -0.0114851
960, 301881590, 0.5967016, -0.33323964, -0.7012278, -0.20292608, -0.6800252, -0.59712243, 0.43178844
961, 301898257, 0.59586763, -0.33424556, -0.7008136, -0.20514111, -0.38736227, -0.5535064, 0.019021988
962, 301914924, 0.5947216, -0.33597547, -0.7000625, -0.20818187, -0.4802442, -0.67450297, -0.6262274
963, 301931591, 0.5932807, -0.33781245, -0.69939506, -0.21153755, -0.9742934, -0.4371053, -0.38872337
964, 301948258, 0.5920868, -0.33885798, -0.6991431, -0.21402837, -0.98243845, -0.3078464, 0.3374052
965, 301964925, 0.59141463, -0.3385252, -0.69936186, -0.2156927, -0.8458814, -0.8613083, 0.49183083
966, 301981592, 0.59122163, -0.33659947, -0.7002772, -0.21626496, -0.28744122, -0.32836938, -0.35799503
967, 301998259, 0.59139174, -0.33429965, -0.70124894, -0.21621814, 0.33242008, 0.042920075, -0.15105534
968, 302014926, 0.59137243, -0.3323729, -0.70208365, -0.21653225, -0.20246966, 0.69330096, -0.25200748
969, 302031593, 0.59063107, -0.33161983, -0.7027078, -0.21768284, -1.2116387, 0.59775454, -0.3170948
970, 302048260, 0.5895927, -0.33061743, -0.7037084, -0.2187873, -2.2460272, -0.028492315, -0.16651344
971, 302064927, 0.5886337, -0.3277017, -0.70593786, -0.21857391, -2.5111382, -0.3977992, -0.04672146
972, 302081594, 0.5874928, -0.32293358, -0.70959467, -0.21689275, -2.0681334, 0.42763573, 0.055433273
973, 302098261, 0.5861267, -0.31825817, -0.7135602, -0.21447608, -0.6973904, 1.3021679, -0.10385132
974, 302114928, 0.5843776, -0.3147207, -0.7171572, -0.21246235, 0.42235678, 2.5564752, -0.81037045
975, 302131595, 0.58126163, -0.3141701, -0.7199721, -0.21230413, -0.38947758, 3.5421848, -1.5676584
976, 302148262, 0.5766584, -0.31698018, -0.72180176, -0.21445675, -0.8810384, 1.0532887, 0.22943592
977, 302164929, 0.5719707, -0.31774032, -0.72490764, -0.21540733, -2.497481, 0.22642556, -0.4328413
978, 302181596, 0.56854254, -0.31518275, -0.729554, -0.21253468, -1.5394813, 1.1380992, -1.019247
979, 302198263, 0.5652966, -0.3115677, -0.7349069, -0.20803346, -0.6600047, 2.063877, -0.5302572
980, 302214930, 0.561302, -0.3094425, -0.73990774, -0.20426138, -0.73990345, 1.9070854, -0.7632046
981, 302231597, 0.55662686, -0.3086558, -0.74444324, -0.20175, -0.14043945, 0.5380156, -0.5901718
982, 302248264, 0.55267835, -0.30719155, -0.7486598, -0.19922182, 2.0248024, -1.2140809, 0.25540543
983, 302264931, 0.549862, -0.30461907, -0.75263095, -0.19597605, 3.928546, -0.80732226, 0.25711346
984, 302281598, 0.54717284, -0.30403733, -0.75549316, -0.19337587, 2.7738345, -0.19964625, 0.13859367
985, 302298265, 0.54415166, -0.30581337, -0.7572047, -0.19240248, 0.14356104, -0.6887702, 0.38607883
986, 302314932, 0.54140675, -0.30671605, -0.7588569, -0.19219998, 0.6237748, -2.4440188, 1.0399237
987, 302331599, 0.5396134, -0.30552104, -0.7607762, -0.19155808, 1.2489513, -3.3928552, 0.9418335
988, 302348266, 0.5392034, -0.3026767, -0.76271397, -0.18951131, 2.2366266, -2.2806306, 0.8223438
989, 302364933, 0.5394559, -0.300537, -0.763793, -0.18784563, 2.3793302, -0.9776708, 0.786067
990, 302381600, 0.53918034, -0.30035195, -0.76396483, -0.18823342, 1.0576549, -0.48123378, 0.24417973
991, 302398267, 0.53847307, -0.3012745, -0.7636133, -0.19020031, 0.67864007, -1.0557774, 0.3385067
992, 302414934, 0.5386787, -0.3008687, -0.763304, -0.1914972, 1.242034, -1.6076015, 1.1401796
993, 302431601, 0.54068017, -0.29817548, -0.7630857, -0.19093789, 3.34539, -1.0850289, 1.1168556
994, 302448268, 0.5430539, -0.29677284, -0.7620073, -0.19069384, 3.2458298, 0.057685565, 0.3625803
995, 302464935, 0.5441038, -0.2981564, -0.76020396, -0.19272906, -0.23205607, -0.26694274, -0.33040142
996, 302481602, 0.5445315, -0.29900262, -0.75909376, -0.19457743, -2.4824064, -0.5335062, -0.097886086
997, 302498269, 0.54547477, -0.29767942, -0.75885916, -0.19487865, -2.1914005, -0.32180703, -0.06061554
998, 302514936, 0.54779595, -0.29444623, -0.7586714, -0.19400866, 1.3563647, 0.6922603, 0.108267784
999, 302531603, 0.5497649, -0.29330033, -0.7576058, -0.19433913, 2.3451161, 1.7534373, -0.57897854
1000, 302548270, 0.5498487, -0.29580212, -0.75586075, -0.19708624, -0.22200291, 1.2134132, -0.77003956
1001, 302564937, 0.54878604, -0.29841405, -0.7547896, -0.20019124, -3.7040763, -0.08403506, -0.43328762
1002, 302581604, 0.5483057, -0.29755586, -0.7552313, -0.20111635, -3.539564, -0.5670079, -0.30178165
1003, 302598271, 0.5495629, -0.29378444, -0.75606, -0.2001137, 0.058597498, 0.060338106, -0.03147793
1004, 302614938, 0.5511876, -0.29132295, -0.7559218, -0.1997651, 1.7787778, 1.0118449, -0.17397976
1005, 302631605, 0.55104333, -0.29183364, -0.75534207, -0.20160241, 0.08087324, 0.31574234, -0.49577045
1006, 302648272, 0.5500047, -0.2926181, -0.75516534, -0.20395012, -1.9992043, -0.87798494, 0.10136223
1007, 302664939, 0.5499093, -0.2908401, -0.7559151, -0.20397247, -1.2675048, -0.86667687, 0.21446705
1008, 302681606, 0.5508008, -0.28780025, -0.7568128, -0.20254532, 0.5637721, 0.22184029, -0.10150528
1009, 302698273, 0.55173504, -0.28560695, -0.7571937, -0.20168243, 0.7840092, 0.4571802, -0.14847279
1010, 302714940, 0.5522929, -0.28418446, -0.7573697, -0.20150384, 0.8798744, 0.8388589, -0.14706421
1011, 302731607, 0.55223244, -0.28359717, -0.7575149, -0.20195076, 0.4785685, 0.36880386, 0.17021275
1012, 302748274, 0.5522599, -0.2829224, -0.75780565, -0.20173076, -0.035519786, -0.7349173, 0.35947514
1013, 302764941, 0.55295616, -0.28149855, -0.75818974, -0.2003675, 0.54590267, -0.90277666, 0.3756647
1014, 302781608, 0.5535193, -0.28036398, -0.758615, -0.19878758, 0.8263234, -0.8881597, 0.18445778
1015, 302798275, 0.55396694, -0.27935487, -0.75894797, -0.19768807, 0.85804343, -0.8736343, 0.4869566
1016, 302814942, 0.55479395, -0.27765867, -0.7591375, -0.19702882, 0.5566483, -1.0413752, 0.30321598
1017, 302831609, 0.55632913, -0.27528253, -0.7591192, -0.1961025, 1.0338818, -0.14038178, 0.3384905
1018, 302848276, 0.557736, -0.27371788, -0.7587177, -0.1958499, 1.4598384, 0.48744196, 0.18382931
1019, 302864943, 0.55881363, -0.27322826, -0.7580295, -0.19612722, 0.73833525, 0.45712578, -0.21316624
1020, 302881610, 0.55977774, -0.27305257, -0.7573067, -0.1964142, -0.22269669, 0.35940078, -0.2595024
1021, 302898277, 0.5606936, -0.27258238, -0.7567289, -0.19668153, -0.6491174, 0.40664238, -0.21549225
1022, 302914944, 0.561546, -0.2715551, -0.75648147, -0.1966232, -0.97724646, 0.3757188, -0.35669804
1023, 302931611, 0.56246066, -0.27021518, -0.7563546, -0.19634277, -0.9024045, 0.53154755, -0.30870152
1024, 302948278, 0.5631645, -0.26931632, -0.75614554, -0.19636524, -0.70914936, 0.6296931, -0.22094631
1025, 302964945, 0.5635201, -0.26892728, -0.7559815, -0.19650973, -0.42325887, 0.52486306, -0.36963272
1026, 302981612, 0.5638333, -0.26872894, -0.75584894, -0.19639212, -0.21205077, 0.19900353, -0.11815071
1027, 302998279, 0.5642381, -0.26836917, -0.7557852, -0.19596681, -0.0019164, 0.105596796, 0.02022171
1028, 303014946, 0.56460565, -0.2678951, -0.75578606, -0.19555315, 0.033401776, -0.062973656, -0.08289242
1029, 303031613, 0.5651294, -0.2669723, -0.7558961, -0.19487564, 0.0015426864, -0.23916881, 0.1032877
1030, 303048280, 0.56596154, -0.26554626, -0.7560353, -0.19386615, 0.11603943, -0.242743, 0.31621647
1031, 303064947, 0.5669119, -0.2644386, -0.75585055, -0.1933235, 0.5691936, 0.05031623, 0.09540558
1032, 303081614, 0.56759197, -0.26397407, -0.7555225, -0.19324526, 0.6521681, -0.05749502, -0.35785484
1033, 303098281, 0.5682358, -0.2640926, -0.75498176, -0.19330463, 0.4634519, -0.20457985, -0.06734276
1034, 303114948, 0.5689607, -0.26438588, -0.7543046, -0.19341496, 0.05882101, -0.37605408, 0.16734886
1035, 303131615, 0.56967425, -0.26446927, -0.7536974, -0.1935669, -0.24160767, -0.44737235, -0.013646126
1036, 303148282, 0.5703828, -0.26411363, -0.7532612, -0.19366413, -0.41233358, -0.41902858, -0.044431686
1037, 303164949, 0.57108223, -0.2634759, -0.7529416, -0.19371426, -0.522799, -0.3980796, -0.029584885
1038, 303181616, 0.57175696, -0.2626476, -0.7526752, -0.19388452, -0.5230963, -0.23363641, 0.026412964
1039, 303198283, 0.57232684, -0.26168865, -0.7525672, -0.19391891, -0.46189132, -0.07862247, -0.1528492
1040, 303214950, 0.57276434, -0.26063925, -0.7526283, -0.19380304, -0.5357342, 2.8766118E-4, -0.26005745
1041, 303231617, 0.5731567, -0.25942612, -0.7528335, -0.19347346, -0.56591916, 0.11186622, -0.31682682
1042, 303248284, 0.5735072, -0.25809762, -0.753143, -0.19300725, -0.4408297, 0.3047388, -0.19817066
1043, 303264951, 0.5737892, -0.25680083, -0.75351214, -0.192457, -0.13984804, 0.47381786, -0.039182663
1044, 303281618, 0.57396096, -0.25591576, -0.7537799, -0.19207504, 0.094692156, 0.5976038, 0.23757648
1045, 303298285, 0.5739468, -0.25548032, -0.75397056, -0.1919481, 0.17814027, 0.48645404, 0.035222054
1046, 303314952, 0.5738273, -0.25532034, -0.75413156, -0.19188532, 0.267735, 0.37344533, -0.14903641
1047, 303331619, 0.573699, -0.25542185, -0.7541905, -0.19190222, 0.19992608, 0.2994906, -0.22715855
1048, 303348286, 0.57356507, -0.2555705, -0.75425583, -0.19184782, 0.19838428, 0.2106119, -0.27039433
1049, 303364953, 0.57346785, -0.25578564, -0.7542753, -0.1917755, 0.2753054, 0.12842742, -0.07512665
1050, 303381620, 0.5734185, -0.256114, -0.7542097, -0.19174317, 0.29426867, 0.0975529, 0.13214207
1051, 303398287, 0.57337, -0.2566194, -0.7540773, -0.19173342, 0.27546585, 0.08726862, 0.14142323
1052, 303414954, 0.57330173, -0.2573552, -0.7538605, -0.1918041, 0.14570184, -0.022472328, -0.017640114
1053, 303431621, 0.5732821, -0.25821003, -0.7535375, -0.19198264, 0.08105429, -0.089067675, -0.023870468
1054, 303448288, 0.5732097, -0.25910065, -0.75320643, -0.19229728, -0.029249799, -0.15236275, -0.1289959
1055, 303464955, 0.57311326, -0.25990313, -0.7529235, -0.19261017, -0.1421453, -0.29711992, -0.13039398
1056, 303481622, 0.5730816, -0.26046172, -0.75269765, -0.19283195, -0.23131445, -0.36660036, 0.09180832
1057, 303498289, 0.5731246, -0.26087976, -0.7524733, -0.19301443, -0.2741297, -0.35685205, 0.15176582
1058, 303514956, 0.57309705, -0.26118103, -0.7523218, -0.19327983, -0.3214045, -0.3734031, -0.079769135
1059, 303531623, 0.57304865, -0.2613736, -0.75219434, -0.19365847, -0.26564157, -0.41781735, -0.13729095
1060, 303548290, 0.5730536, -0.2612936, -0.7521402, -0.19396165, -0.2233793, -0.40021503, -0.135458
1061, 303564957, 0.5730802, -0.26106605, -0.7521436, -0.19417678, -0.13759905, -0.32995307, 0.05877304
1062, 303581624, 0.5731278, -0.26077417, -0.7521465, -0.1944167, -0.031987835, -0.28110555, 0.1880188
1063, 303598291, 0.5731095, -0.26041728, -0.7522, -0.19474122, -0.04569946, -0.27663985, -0.028740883
1064, 303614958, 0.57308704, -0.26003206, -0.7522714, -0.1950463, -0.031813495, -0.27086037, -0.12234306
1065, 303631625, 0.57313275, -0.25942883, -0.75241756, -0.19515154, -0.16619574, -0.24206074, -0.029346466
1066, 303648292, 0.5733736, -0.25859416, -0.7525957, -0.19486433, 0.05443792, -0.08228563, 0.19176579
1067, 303664959, 0.5737043, -0.25789878, -0.75264335, -0.19462827, 0.18150593, 0.10016018, 0.28755188
1068, 303681626, 0.5739309, -0.25752637, -0.7525381, -0.19486003, 0.21218264, 0.121891, -0.16076279
1069, 303698293, 0.5739519, -0.25742662, -0.75237393, -0.19556287, 0.25039396, 0.1121036, -0.6697874
1070, 303714960, 0.5738584, -0.2574669, -0.7521957, -0.19646852, 0.12299739, 0.09533979, -0.50759125
1071, 303731627, 0.57386845, -0.2575536, -0.7519594, -0.19722864, -0.07306504, 0.23381802, -0.0045986176
1072, 303748294, 0.57392794, -0.25779977, -0.75167644, -0.19781148, -0.039682936, 0.38906017, 0.3626871
1073, 303764961, 0.57375497, -0.2584457, -0.75141895, -0.19844784, 0.120124355, 0.4520011, 0.0794611
1074, 303781628, 0.5733002, -0.25938633, -0.7513064, -0.1989601, 0.04509508, 0.25720316, -0.19024277
1075, 303798295, 0.5727158, -0.26029012, -0.7514014, -0.19910406, -0.49102443, 0.33465645, -0.3591385
1076, 303814962, 0.57214344, -0.26101997, -0.75160986, -0.19900784, -0.9763741, 0.39061248, -0.4857626
1077, 303831629, 0.57172716, -0.26138493, -0.75184983, -0.19881809, -0.39536804, 0.7296796, -0.139637
1078, 303848296, 0.5710098, -0.26230502, -0.7519576, -0.19925942, 0.07800468, 1.0028448, -0.13317013
1079, 303864963, 0.56984514, -0.26388666, -0.75207585, -0.20005825, -0.5074477, 1.0102415, -0.3846674
1080, 303881630, 0.56865317, -0.26572752, -0.752211, -0.20050468, -1.1922382, 1.2206076, -0.48784256
1081, 303898297, 0.5671485, -0.2678415, -0.75254154, -0.20071295, -1.6304258, 1.1330339, -0.13293552
1082, 303914964, 0.5657521, -0.2695041, -0.7530618, -0.20047647, -0.918071, 0.88506335, -0.20818138
1083, 303931631, 0.56501335, -0.2703122, -0.7537166, -0.19900583, 1.4296362, 1.573295, -0.12678814
1084, 303948298, 0.563923, -0.2727347, -0.75377566, -0.19856904, 1.825465, 1.4418137, -0.27719688
1085, 303964965, 0.5610698, -0.27717444, -0.75393397, -0.19989887, -0.8303913, -0.07222195, -0.14196396
1086, 303981632, 0.5582033, -0.28045037, -0.7547465, -0.20028792, -1.3995409, -1.2514207, 0.07505417
1087, 303998299, 0.55634296, -0.2817932, -0.7561557, -0.19825369, -0.64335054, -1.2574927, 0.036774635
1088, 304014966, 0.5547847, -0.28301364, -0.75744367, -0.19595268, 0.66624653, -0.75957257, 0.21852303
1089, 304031633, 0.55275464, -0.28529477, -0.75828, -0.19514479, 0.7287166, -0.95525193, 0.09902573
1090, 304048300, 0.55059224, -0.28757894, -0.75897485, -0.19520448, 0.16942282, -1.5538956, 0.3684578
1091, 304064967, 0.5489266, -0.2891673, -0.75965804, -0.1948905, 0.03087295, -1.5158607, 0.3810501
1092, 304081634, 0.5473732, -0.2902905, -0.76060456, -0.19389522, 0.60219175, -0.55722296, 0.11768246
1093, 304098301, 0.5458941, -0.2915495, -0.7613658, -0.19318767, 0.98267204, 0.47651723, 0.2752552
1094, 304114968, 0.54423153, -0.2933079, -0.7619045, -0.19309272, 1.0549566, 0.7029538, 0.10749912
1095, 304131635, 0.54282945, -0.29519463, -0.76215893, -0.19316016, 1.124376, 7.844187E-4, 0.29711628
1096, 304148302, 0.5418729, -0.29673055, -0.76230705, -0.19290821, 0.98717785, -0.5247969, 0.3602562
1097, 304164969, 0.54101115, -0.2981461, -0.76248413, -0.19244339, 0.63077927, -0.6273568, 0.21723843
1098, 304181636, 0.54030114, -0.29952574, -0.7624999, -0.19223356, -0.25194022, -0.6328417, 0.30583668
1099, 304198303, 0.53980184, -0.30069998, -0.7623802, -0.19227822, 0.08330909, -1.153389, 0.26222706
1100, 304214970, 0.5393949, -0.30150637, -0.7623388, -0.19232073, 0.3029725, -1.1665808, 0.00662899
1101, 304231637, 0.53923935, -0.30210721, -0.76223934, -0.19220781, 0.29790834, -0.63874584, 0.1595602
1102, 304248304, 0.5389883, -0.3027656, -0.7621256, -0.1923282, -0.22653797, -0.25141397, 0.16915989
1103, 304264971, 0.5385511, -0.30365825, -0.7618787, -0.19312249, -0.83934456, -0.2364624, -0.2716713
1104, 304281638, 0.5385335, -0.30355716, -0.7618066, -0.19361365, -0.45309606, -0.43256986, -0.12524796
1105, 304298305, 0.5391522, -0.30265355, -0.7617501, -0.19352883, 0.10477438, -0.36076912, 0.29035473
1106, 304314972, 0.53968537, -0.30172127, -0.7617948, -0.1933225, 0.77927387, 0.24863167, -0.14004326
1107, 304331639, 0.539825, -0.30179432, -0.7615681, -0.1937103, 0.35136864, 0.5946247, -0.13165092
1108, 304348306, 0.5397663, -0.302643, -0.76100737, -0.1947507, -0.26441717, 0.7497093, -0.11760521
1109, 304364973, 0.53917253, -0.30361468, -0.7607844, -0.19575214, -0.25134122, 0.9739529, -0.32459545
1110, 304381640, 0.53879875, -0.3044619, -0.76061034, -0.19614159, 0.43306127, 0.8337659, 0.01894188
1111, 304398307, 0.5390414, -0.30541947, -0.7600528, -0.19614764, 0.91985863, 0.41466424, 0.14827728
1112, 304414974, 0.53965944, -0.30667308, -0.7590493, -0.19637813, 0.5353428, 0.03504806, -0.12974644
1113, 304431641, 0.5397464, -0.30874026, -0.7579587, -0.19711103, -0.36223984, -0.039549947, -0.27928352
1114, 304448308, 0.5397443, -0.3104077, -0.75724894, -0.19722511, -0.604147, 0.0014616629, -0.092430115
1115, 304464975, 0.5401825, -0.3115304, -0.75652444, -0.19703597, 0.14450336, -0.09155158, 0.20915222
1116, 304481642, 0.5405398, -0.31303433, -0.755521, -0.19752212, 0.6498943, -0.78727466, 0.08542538
1117, 304498309, 0.5407432, -0.31449535, -0.7545808, -0.19823729, -0.16755113, -1.6702907, 0.2301426
1118, 304514976, 0.54155517, -0.31455633, -0.754044, -0.19796675, -0.89799523, -1.3559946, 0.3649397
1119, 304531643, 0.5425278, -0.31357265, -0.75405836, -0.19680609, -0.38640293, -0.37091786, -0.116929054
1120, 304548310, 0.5439903, -0.3125201, -0.7536714, -0.19592342, 1.4744477, 0.44372776, 0.10124397
1121, 304564977, 0.5456876, -0.31305563, -0.75204027, -0.19661476, 2.7075074, -0.1331384, 0.7462015
1122, 304581644, 0.5468495, -0.3148563, -0.74997926, -0.1983759, 1.4590878, -0.41980326, 0.1633339
1123, 304598311, 0.5478177, -0.31671274, -0.7481654, -0.19959502, -0.5151535, -0.684509, 0.06793594
1124, 304614978, 0.5493117, -0.3169349, -0.7471335, -0.19900055, -0.8276819, -0.047511254, 0.23771572
1125, 304631645, 0.5512402, -0.31674403, -0.74599385, -0.1982455, 0.6228108, 0.9307103, -0.21115398
1126, 304648312, 0.5527865, -0.31829467, -0.7439645, -0.19908087, 1.745036, 0.8478231, -0.35698986
1127, 304664979, 0.5536943, -0.32119727, -0.7414889, -0.20112126, 0.62145454, -0.21120633, -0.29586124
1128, 304681646, 0.55492127, -0.32369664, -0.7391163, -0.20246153, -1.2276051, -0.88585, 0.32999134
1129, 304698313, 0.5561957, -0.32449174, -0.73790985, -0.20209235, -1.3221017, -0.5327065, -0.0032186508
1130, 304714980, 0.5580077, -0.32455882, -0.7366098, -0.2017323, 0.5362098, -0.011765275, -0.080207825
1131, 304731647, 0.5600522, -0.32566142, -0.7342675, -0.20282598, 2.4812336, -0.89478207, 0.4016924
1132, 304748314, 0.5620371, -0.32696384, -0.7316634, -0.20464213, 1.5344448, -1.4333087, -0.3934126
1133, 304764981, 0.5647061, -0.32799298, -0.7289763, -0.20523642, -1.0632136, -0.35348374, 1.0532465
1134, 304781648, 0.5673384, -0.32751957, -0.72721374, -0.20498538, -0.9725724, 0.40637037, -0.30614376
1135, 304798315, 0.56968284, -0.3276834, -0.7254229, -0.20456637, -0.94623786, 1.9163567, -1.1104946
1136, 304814982, 0.57046634, -0.33068082, -0.72277534, -0.20691793, 0.5256873, 0.75028205, -0.17268085
1137, 304831649, 0.57123554, -0.3336457, -0.7199853, -0.20974386, -0.7578797, -0.9368209, -0.06293869
1138, 304848316, 0.57310545, -0.33326873, -0.7187387, -0.2095174, -2.2381222, -0.968221, -0.31770515
1139, 304864983, 0.57580215, -0.33005717, -0.71890634, -0.20661227, -2.1128902, 0.39670175, -0.19168568
1140, 304881650, 0.577908, -0.32728526, -0.719202, -0.2040978, -0.5011089, 1.5704167, -0.46547222
1141, 304898317, 0.5788585, -0.32746962, -0.71829027, -0.20431912, 1.3634869, 0.16042475, -0.05784893
1142, 304914984, 0.5799979, -0.32808223, -0.71682626, -0.20524496, 1.5022877, -1.6286776, 0.47236156
1143, 304931651, 0.58227235, -0.3265203, -0.7158101, -0.20484167, 0.9160976, -2.5070307, 0.62493896
1144, 304948318, 0.5857752, -0.3234282, -0.7148159, -0.20322603, -0.19476964, -1.6860424, 0.403965
1145, 304964985, 0.5892779, -0.3203523, -0.7137345, -0.20176621, -0.3903265, -0.15204905, -0.5134325
1146, 304981652, 0.5918377, -0.31936398, -0.7119399, -0.20218083, 0.19835344, 0.85885066, -0.11596966
1147, 304998319, 0.59343195, -0.31989777, -0.70976114, -0.20431355, -0.10886377, 1.0783219, -0.29968262
1148, 305014986, 0.5949486, -0.31986997, -0.7080915, -0.20573425, -0.82362825, 1.0302389, -0.38112354
1149, 305031653, 0.5968911, -0.318205, -0.70728326, -0.20547003, -1.097922, 1.6382571, -0.41451454
1150, 305048320, 0.59815705, -0.3173214, -0.70657974, -0.20557514, -0.57299334, 2.0177202, -0.5319147
1151, 305064987, 0.5982388, -0.31913486, -0.7051187, -0.20753738, -0.29188734, 1.0096489, -0.06276417
1152, 305081654, 0.5978195, -0.32134566, -0.70377725, -0.20987408, -1.2006414, -0.40077484, 0.20113659
1153, 305098321, 0.5979478, -0.3216331, -0.70338106, -0.21039578, -1.5292264, -0.617953, 0.011764526
1154, 305114988, 0.59845847, -0.320677, -0.7035889, -0.20970733, -1.0905163, 0.32007626, -0.34136105
1155, 305131655, 0.5983834, -0.32063085, -0.70371264, -0.20957673, -0.5775468, 1.0750018, -0.34554577
1156, 305148322, 0.5977712, -0.32147577, -0.70368147, -0.2101334, -0.238588, 0.7495677, -0.045648575
1157, 305164989, 0.5973205, -0.32186982, -0.70384336, -0.21026967, -0.11517265, 0.22804435, -0.12321377
1158, 305181656, 0.5973647, -0.32151175, -0.7042771, -0.20923692, -0.40655398, 0.15380138, -0.43680286
1159, 305198323, 0.59731984, -0.3212275, -0.70480996, -0.20800363, -0.75288194, 0.8910032, -0.32536316
1160, 305214990, 0.5963487, -0.32217693, -0.70523036, -0.20789663, -0.7454765, 1.1032767, -0.015593529
1161, 305231657, 0.5951307, -0.3235693, -0.7054358, -0.20852666, 0.33842498, 0.12636842, 0.7069464
1162, 305248324, 0.5942511, -0.32460016, -0.70548224, -0.20927458, 1.337067, -0.9615211, 0.34126186
1163, 305264991, 0.5941055, -0.32466328, -0.7056578, -0.20899846, 1.2000428, -1.7116073, -0.12821579
1164, 305281658, 0.59499466, -0.32331178, -0.70591855, -0.20767894, 1.0022155, -1.4705399, 0.1443758
1165, 305298325, 0.59577745, -0.32265562, -0.70571893, -0.20713323, 0.9161027, -0.5575179, -0.100063324
1166, 305314992, 0.5961192, -0.32330474, -0.7050107, -0.2075494, 0.161316, -0.12911975, -0.13332653
1167, 305331659, 0.59626055, -0.32420176, -0.70431954, -0.20809008, -0.8136171, 0.3456383, -0.2126627
1168, 305348326, 0.5962429, -0.32466686, -0.70411855, -0.20809579, -1.4712262, 0.7680576, -0.19386196
1169, 305364993, 0.5960871, -0.32473195, -0.704337, -0.2077007, -1.0263531, 0.9539706, -0.034482002
1170, 305381660, 0.59584475, -0.32468283, -0.7046202, -0.20751256, 0.4825627, 0.2779795, 0.39587212
1171, 305398327, 0.59615165, -0.32476383, -0.7042981, -0.20759782, 2.0720878, -0.71787536, 0.627511
1172, 305414994, 0.5963757, -0.3258547, -0.7032946, -0.20864415, 1.9961478, -1.2359899, -0.31468296
1173, 305431661, 0.5971073, -0.32651755, -0.7021513, -0.20936474, 0.4342944, -1.2781653, 0.08561325
1174, 305448328, 0.59835744, -0.32608402, -0.7012607, -0.20945562, -0.30548856, -0.39926645, -0.029193878
1175, 305464995, 0.5993327, -0.32615337, -0.70025235, -0.2099325, -0.22084153, 0.09240137, 0.059191704
1176, 305481662, 0.59999883, -0.3266638, -0.6991968, -0.21075298, -0.5603367, 0.13512978, -0.11941624
1177, 305498329, 0.6007062, -0.32670242, -0.69850236, -0.21098064, -1.0361717, 0.15141763, -0.33097267
1178, 305514996, 0.60133994, -0.3263887, -0.69819194, -0.21068825, -1.0699346, 0.58809525, -0.3332758
