PacketCounter_femur,SampleTimeFine_femur,Quat_W_femur,Quat_X_femur,Quat_Y_femur,Quat_Z_femur,FreeAcc_X_femur,FreeAcc_Y_femur,FreeAcc_Z_femur,PacketCounter_tibia,SampleTimeFine_tibia,Quat_W_tibia,Quat_X_tibia,Quat_Y_tibia,Quat_Z_tibia,FreeAcc_X_tibia,FreeAcc_Y_tibia,FreeAcc_Z_tibia
1,285897937,0.7009468000000001,-0.036465902,-0.7086882,0.07146286,0.105199054,0.09302131,0.2368288,1,285897937,0.5637629,-0.41368760000000004,-0.6716259,-0.24485411,0.058727134,-0.07319826,0.025298118999999997
2,285914604,0.7009614000000001,-0.03651805,-0.70866716,0.07150077,0.099989414,0.019413525,0.19267082,2,285914604,0.5638601,-0.41369140000000004,-0.6715505999999999,-0.24482985,-0.000161,-0.08695190400000001,-0.024892807000000003
3,285931271,0.70101655,-0.036576863,-0.70861083,0.07148949,-0.012766166,-0.035419762,0.19569778,3,285931271,0.5639694000000001,-0.4136831,-0.67148435,-0.24477397,-0.053553257,-0.03948155,-0.031931877000000004
4,285947938,0.70101887,-0.036718062999999995,-0.7086081999999999,0.071419545,-0.07024565,-0.00460188,0.19729519,4,285947938,0.564087,-0.4136465999999999,-0.6714260999999999,-0.24472459,-0.033499226,0.00596109,-0.017922401
5,285964605,0.700983,-0.036894467,-0.7086383,0.07138297,-0.016207818,0.083952315,0.13968372,5,285964605,0.5641278000000001,-0.41372544,-0.671333,-0.24475254,-0.016364278,0.03090022,-0.05995655
6,285981272,0.701025,-0.037115302,-0.7085925000000001,0.07131132,-0.04392164,0.021787623,0.18000126,6,285981272,0.5641293000000001,-0.41385666,-0.67122847,-0.2448141,-0.036796045,0.031395299999999994,-0.032759666
7,285997939,0.7010890999999999,-0.03736032,-0.70853525,0.07112039,-0.079460196,-0.009499747,0.19168854,7,285997939,0.56407124,-0.41406494,-0.6710932,-0.24496645,-0.016664678,0.039826434,-0.03641224
8,286014606,0.7011126,-0.037522934,-0.7085111,0.07104289,-0.071489275,-0.08920517,0.19623566,8,286014606,0.5640550999999999,-0.41416454,-0.67104083,-0.24497874,-0.08157060000000001,0.012571934,-0.020342827
9,286031273,0.70108813,-0.037560157000000004,-0.70852154,0.07116083,-0.07967254,-0.09014018,0.19331837,9,286031273,0.56410736,-0.41411546,-0.67106813,-0.24486633,-0.09222234,-0.018886175,-0.027247429
10,286047940,0.7009969,-0.037487064,-0.7085899999999999,0.071417496,-0.00741616,-0.063776545,0.21389484,10,286047940,0.5642198,-0.4139523,-0.67115486,-0.24464563,-0.040523794,-0.041115656,-0.020778656
11,286064607,0.7010161,-0.037353363,-0.70855474,0.07164802,0.030936874,-0.08452743,0.18930529999999998,11,286064607,0.564348,-0.41376656,-0.6712443,-0.24441873,-0.046568923,-0.05252443,-0.027669907
12,286081274,0.70106494,-0.03712252,-0.7084929,0.07190033,-0.009652183,-0.07153029,0.16993713,12,286081274,0.5644779000000001,-0.41358277,-0.6713312,-0.24419087,-0.049502755999999995,-0.05119341,-0.011668205
13,286097941,0.70109993,-0.03680307,-0.70843405,0.07230229,-0.016308846000000002,-0.03860957,0.18333435,13,286097941,0.5645926,-0.41343559999999996,-0.6714043000000001,-0.24397415,-0.038503237,-0.04079916,0.0013751979999999998
14,286114608,0.7010649999999999,-0.03644184,-0.7084379,0.07278569,-0.04070752,-0.026929455,0.21103859,14,286114608,0.5646810999999999,-0.4133135,-0.67147285,-0.24378717,-0.027735722999999997,-0.020592025,-0.025603294
15,286131275,0.7009926,-0.03613909,-0.7084906999999999,0.073120065,-0.011302156,0.021659328,0.16945362,15,286131275,0.5647658,-0.41321006,-0.6715215,-0.24363266,0.007822953,-0.023946954,-0.035108566
16,286147942,0.7009294,-0.03582604,-0.7085348000000001,0.073451966,0.046292216,0.04584667,0.12439442,16,286147942,0.56482613,-0.41313013,-0.67155564,-0.24353336,-0.008801046,-0.05940371,-0.05959797
17,286164609,0.7009329000000001,-0.035631195,-0.7085157,0.07369401,0.045199237999999996,0.042972237,0.21524525,17,286164609,0.5649294,-0.41300600000000004,-0.6716002,-0.24338144,-0.00426418,-0.07628587,0.014813423000000001
18,286181276,0.7009352,-0.035519805,-0.70850337,0.07384614,0.05759303,0.08768602,0.21786213,18,286181276,0.56503415,-0.41285548,-0.6716552,-0.24324241,0.043152752999999995,-0.031503256,-0.000817
19,286197943,0.70101255,-0.035509583,-0.70842224,0.07389475,0.030612782,0.07102912,0.1901722,19,286197943,0.5650803000000001,-0.412843,-0.6716361,-0.24320899,0.038854152,-0.04067444,-0.04956627
20,286214610,0.7011023000000001,-0.035683785,-0.70834345,0.073715284,-0.002874824,0.07121711,0.17809868,20,286214610,0.5650914,-0.41288477,-0.67159075,-0.24323751,-0.002898963,-0.03189038,-0.020335197
21,286231277,0.7011364999999999,-0.035882372,-0.70831674,0.07354862,-0.004130072,0.014122163,0.17318821,21,286231277,0.56508064,-0.4129534000000001,-0.6715310999999999,-0.24331076,-0.018782688,-0.060461372,-0.029478072999999997
22,286247944,0.7011453000000001,-0.035978902,-0.7083115,0.07346905,-0.036806773,-0.029710768,0.1650095,22,286247944,0.5651225999999999,-0.41290283,-0.67154104,-0.24327174,-0.04285101,-0.027397322999999998,-0.006164551
23,286264611,0.70108986,-0.03613388,-0.7083678000000001,0.073377974,-0.059732944,-0.0870115,0.24931717,23,286264611,0.56511605,-0.41294602,-0.6715032,-0.24331836,-0.034374952,-0.033580362999999995,0.014961243
24,286281278,0.70102286,-0.036230527,-0.7084332,0.07333957,-0.027299425,-0.022558631000000003,0.15433311,24,286281278,0.5651035,-0.4129714,-0.6714880999999999,-0.24334548,-0.08109408,-0.020115942,-0.054676055999999994
25,286297945,0.70101124,-0.036328487,-0.7084431999999999,0.07330575,-0.057191603,-0.002521925,0.13083935,25,286297945,0.5650824999999999,-0.41299620000000004,-0.67148817,-0.24335192,-0.07642176,0.01583187,-0.055516243
26,286314612,0.7009677,-0.036451776,-0.70848984,0.07321095,-0.06619694,0.019627512,0.19366646,26,286314612,0.56502587,-0.4131048,-0.67144567,-0.24341646,-0.019391983999999998,0.047501195,-0.019290923999999997
27,286331279,0.70089656,-0.036594532,-0.708565,0.07309292,-0.037918974,-0.017953707,0.24316692,27,286331279,0.56490976,-0.4132734,-0.6713939,-0.24354299999999998,-0.073304206,0.010770866,-0.013888359
28,286347946,0.70088166,-0.036765978,-0.7085958000000001,0.072850555,0.04676785,-0.0891684,0.19745731,28,286347946,0.5647639,-0.41345215,-0.67134106,-0.24372357,-0.12120638,-0.08133569,-0.021603584
29,286364613,0.70091474,-0.036943156,-0.7085689000000001,0.07270415,0.075196914,-0.08165761,0.17173576,29,286364613,0.56466055,-0.41352330000000004,-0.6713319000000001,-0.24386713,-0.057726692,-0.16591568,-0.025314331000000002
30,286381280,0.7008903000000001,-0.037095867000000005,-0.7085714,0.0728386,0.10567648,0.011227586000000001,0.20370293,30,286381280,0.5645963,-0.41355762,-0.6713216,-0.24398659,0.073424004,-0.14326689,-0.001182556
31,286397947,0.70090604,-0.03750993,-0.7085431999999999,0.07274839999999999,0.07140926,0.19938557,0.11958504,31,286397947,0.5645611,-0.41359907,-0.6712734,-0.24412942,0.1297819,-0.07802435,0.022821426000000002
32,286414614,0.7007973000000001,-0.038201537,-0.70867115,0.07218861,0.060276974000000004,0.2782635,0.2555189,32,286414614,0.5644603,-0.41378298,-0.6711406,-0.24441633,0.15684463,0.03980587,-0.06444168
33,286431281,0.7009151,-0.03916929,-0.7086064000000001,0.07115393,0.008042891,0.15820132,0.20688438,33,286431281,0.5642241,-0.41417196,-0.6709311,-0.24487755,-0.017059403,0.07653911,-0.04114151
34,286447948,0.7010488,-0.04003175,-0.70854366,0.06997016,-0.089991234,-0.123166814,0.16209888,34,286447948,0.56397355,-0.41451177,-0.6707774000000001,-0.24530032,-0.15548903,-0.010731303999999999,-0.003219605
35,286464615,0.7012151999999999,-0.040419217,-0.7084189000000001,0.069341555,-0.06807758,-0.3637998,0.25042915,35,286464615,0.5638526999999999,-0.4146651,-0.6707121,-0.24549708,-0.10085173,-0.044098884000000005,-0.033338547
36,286481282,0.70126146,-0.040062732999999996,-0.7083837,0.069441035,-0.06935428,-0.39435017,0.20961952,36,286481282,0.56388706,-0.41460648,-0.6707373000000001,-0.24544870000000002,-0.10422588,-0.1393791,0.052241325
37,286497949,0.7011448,-0.039204217,-0.7084818,0.070106246,-0.000729,-0.17688648,0.1705513,37,286497949,0.56413704,-0.41421983,-0.6708881999999999,-0.24511467,-0.07552414,-0.1305376,0.045319557
38,286514616,0.7009743,-0.038045693,-0.70860475,0.071196735,-0.030241302999999997,0.05796842,0.109111786,38,286514616,0.56450063,-0.41366329999999996,-0.671111,-0.24460721,0.017282916000000002,-0.047223594,-0.019622803
39,286531283,0.7008099,-0.036921643,-0.7086963000000001,0.0724836,-0.029649887000000003,0.18256538,0.15214252,39,286531283,0.5649253000000001,-0.41304424,-0.6713486999999999,-0.24401996,0.12257987,0.10476722599999999,-0.056591034000000005
40,286547950,0.70070076,-0.03593506,-0.7087288,0.07370775,-0.06941061,0.31411296,0.20527077,40,286547950,0.56522244,-0.41266674,-0.671496,-0.24356456,0.073917076,0.16618747,-0.051419257999999995
41,286564617,0.7006458999999999,-0.03532474,-0.70872754,0.07453214400000001,-0.07775301,0.2936692,0.20877838,41,286564617,0.5654294,-0.41242036,-0.6716032,-0.2432058,-0.036100026,0.15913877,-0.062280655
42,286581284,0.7007767,-0.03516758,-0.7085799,0.07477913,-0.01860522,0.25756115,0.22918320000000003,42,286581284,0.5654909,-0.41237706,-0.6716489999999999,-0.24300997,-0.035046384,0.12566435,-0.08318806
43,286597951,0.70106804,-0.035436247000000004,-0.708298,0.07459224,-0.0605139,0.1904276,0.17126846,43,286597951,0.56549054,-0.4123875,-0.6716945,-0.24286668,0.037766986,0.05818042,-0.067564964
44,286614618,0.70130914,-0.036064137,-0.7080791999999999,0.07410042,-0.0031229229999999997,0.17744802,0.18482208,44,286614618,0.56537485,-0.41260555,-0.6716539,-0.2428785,0.06674544,-0.010550259,-0.034116745
45,286631285,0.7014892,-0.036824305,-0.7079297,0.07344733,0.038746864,0.05309412,0.15963459,45,286631285,0.5651804,-0.412963,-0.6715346999999999,-0.24305247,0.08299036,-0.08813675,0.001229286
46,286647952,0.70156205,-0.037440922,-0.70788056,0.072910994,0.067378424,-0.05665785,0.12290573,46,286647952,0.5649663,-0.41339849999999995,-0.6713545999999999,-0.24330793,0.008197114,-0.15631737,-0.005908012
47,286664619,0.7015968,-0.03782829,-0.70785886,0.07258803,0.06324657,-0.15537131,0.17374516,47,286664619,0.5648552,-0.41365638,-0.67122906,-0.24347341,-0.020208253,-0.17475092,-0.001146317
48,286681286,0.70157236,-0.037968606,-0.7078853,0.07249164599999999,-0.00683145,-0.15045336,0.19281673,48,286681286,0.5648645,-0.4136617,-0.67123055,-0.2434384,-0.060090117,-0.10016756,0.001160622
49,286697953,0.7015471999999999,-0.037857436,-0.70789677,0.07268275,-0.08334128,-0.15061823,0.19147587,49,286697953,0.56492037,-0.41366149999999996,-0.67122257,-0.24333127,-0.11289952,0.021966853999999997,-0.01981163
50,286714620,0.7015114,-0.03754747,-0.7079035,0.07312107,-0.11503184,-0.13084446,0.19208527,50,286714620,0.56503457,-0.41359797,-0.6712509,-0.24309604,-0.15081917,0.06716229,-0.033712387
51,286731287,0.70147955,-0.037170567,-0.70789844,0.073667705,-0.1443934,-0.06988077,0.22419453,51,286731287,0.56511605,-0.41357926,-0.671279,-0.24286093,-0.10981639,0.052286834000000004,-0.004433632
52,286747954,0.7013873,-0.036803603,-0.7079460999999999,0.07427061,-0.003253455,0.05482189,0.19909668,52,286747954,0.56520927,-0.41347668,-0.671362,-0.24258897,-0.029593116000000003,-0.049990907,-0.02548027
53,286764621,0.7013255,-0.036554202,-0.70796573,0.074785315,0.10039129,0.13172801,0.21427059,53,286764621,0.5652679,-0.41339663,-0.6714458999999999,-0.24235651,0.058739204,-0.032203745,-0.032503128
54,286781288,0.70132625,-0.0365351,-0.7079509,0.07492787,0.13437018,0.14692587,0.19985676,54,286781288,0.5653001999999999,-0.41338217,-0.6714821,-0.24220496,0.110636234,-0.08868368,0.011177063000000001
55,286797955,0.70133793,-0.036733682999999996,-0.70794535,0.07477543,0.13959233,0.08837371,0.21662903,55,286797955,0.56530714,-0.41341928,-0.6714727,-0.24215204,0.08311374,-0.1647125,0.016557693000000002
56,286814622,0.70134217,-0.037016552,-0.7079499,0.07455165,0.1625708,0.024554463,0.19020079999999998,56,286814622,0.5652498,-0.41360420000000003,-0.67135304,-0.242302,0.01707639,-0.19536999,-0.007962226999999999
57,286831289,0.701414,-0.037291753999999996,-0.7078817,0.074387275,0.16732001,-0.07956195,0.15672302,57,286831289,0.56523633,-0.4137076,-0.6712465,-0.2424514,-0.021188581,-0.18173951,-0.024203299999999997
58,286847956,0.70154583,-0.037481482999999996,-0.70775616,0.074241474,0.07236053,-0.11152366,0.16743469,58,286847956,0.5651982,-0.4139945,-0.6709885999999999,-0.24276474,-0.028158162,-0.15236096,-0.032250403999999996
59,286864623,0.70162356,-0.03767039,-0.70768857,0.0740564,0.040827323,-0.09895704,0.21124363,59,286864623,0.5652293,-0.41405290000000006,-0.6708636,-0.24293801,-0.042530492,-0.08979521,0.02640152
60,286881290,0.70171285,-0.037880223,-0.7076172,0.07378418,-0.03002673,-0.057491165,0.21660519,60,286881290,0.5652081999999999,-0.41420746,-0.67069066,-0.24320076,-0.056152266,-0.011818024,-0.013785361999999999
61,286897957,0.7016703000000001,-0.037947137,-0.7076781999999999,0.07357004,-0.074889354,-0.039677236,0.16892338,61,286897957,0.56520694,-0.41429383,-0.6705726,-0.24338195,-0.06814552,-0.013379262,-0.012722015
62,286914624,0.7015835,-0.037834592,-0.70776707,0.07359864599999999,-0.09448295,-0.073398836,0.16767120000000002,62,286914624,0.565254,-0.4142802,-0.67050976,-0.2434695,-0.10385664,0.026513777999999998,-0.04317856
63,286931291,0.70155114,-0.03763037,-0.70779294,0.073763914,-0.085525,-0.024583856,0.18139458,63,286931291,0.56533706,-0.41419467,-0.6704975000000001,-0.24345577,-0.07486879,0.07900154599999999,-0.04876709
64,286947958,0.70153105,-0.037432987,-0.70780534,0.07393727,-0.082549594,0.03879439,0.16819859,64,286947958,0.56539434,-0.4141628,-0.67046404,-0.24346900000000002,-0.039836716,0.05410444,-0.04205513
65,286964625,0.701559,-0.03731931,-0.70776504,0.07411518,-0.03308573,0.06445502,0.18594551,65,286964625,0.5654329,-0.41414112,-0.6704471,-0.24346323,-0.04209196,0.059913095,-0.055315018
66,286981292,0.70163405,-0.037257116,-0.70768404,0.07420993,-0.040362418,0.05963528,0.15397072,66,286981292,0.565433,-0.414155,-0.67044026,-0.24345772,-0.044464327000000005,0.0070310469999999995,-0.048235892999999995
67,286997959,0.7016687,-0.03724948,-0.70764375,0.07426941,-0.026562726000000002,0.014501381,0.21933174,67,286997959,0.56539214,-0.41418640000000007,-0.67044896,-0.24347544,-0.013046004,-0.016971786000000003,0.00683403
68,287014626,0.7016664,-0.037335526,-0.70764786,0.07420868,-0.014670943999999998,0.025120845,0.22151375,68,287014626,0.56532496,-0.41424188,-0.6704515,-0.24353006,-0.004115768,-0.032585952,-0.006459236
69,287031293,0.7016564999999999,-0.037530900000000006,-0.70766985,0.07399419,0.023663316,0.045085568,0.16426563,69,287031293,0.56527865,-0.41427004,-0.6704536999999999,-0.24358329,0.03718764,-0.08977867,-0.003124237
70,287047960,0.7016691999999999,-0.037680984,-0.7076604000000001,0.07388743,0.1347631,0.09712015,0.16318417,70,287047960,0.5651739,-0.41454622,-0.67026985,-0.2438626,0.06770744,-0.09591656,-0.006355286
71,287064627,0.70178545,-0.037786900000000005,-0.70754987,0.07378866,0.08110883,0.02937044,0.15589237,71,287064627,0.5651694,-0.41458887,-0.6702184,-0.24394198,0.06381116,-0.069946595,-0.028169632000000003
72,287081294,0.7018611,-0.03780425,-0.7074835999999999,0.07369477,-0.004491269,-0.04145084,0.16345787,72,287081294,0.5651615,-0.41468227,-0.6701251,-0.24405745,-0.015604334,-0.07334689,-0.004420281
73,287097961,0.70185363,-0.03780969,-0.70750046,0.07360056,-0.041154545,-0.06205334,0.20005512,73,287097961,0.5651793,-0.41470915,-0.6700705,-0.24412048,-0.07726619400000001,-0.009143245,-0.015709877
74,287114628,0.70182645,-0.037808165,-0.7075335,0.07354361599999999,-0.08078161,-0.032303266000000004,0.20560074,74,287114628,0.56519324,-0.4147442,-0.6700206999999999,-0.24416573,-0.05977854,0.051893674,-0.030386925
75,287131295,0.70182943,-0.037764527,-0.70753115,0.07356029,-0.07363813,-0.001942411,0.19961357,75,287131295,0.5651970000000001,-0.41475376,-0.67000836,-0.24417467,-0.04230966,0.04871733,-0.009400368000000001
76,287147962,0.70177865,-0.03770268,-0.70757306,0.07367223,-0.09191166,0.02016383,0.15625572,76,287147962,0.5651685000000001,-0.41484135,-0.6699594,-0.24422584,-0.05409103,0.044360615,-0.03388405
77,287164629,0.70174515,-0.037618168,-0.70759684,0.07380588,-0.04915229,0.039201282000000004,0.13029194,77,287164629,0.5651166,-0.41501674,-0.66985923,-0.24432303,-0.016954798,0.034598912999999995,-0.04278183
78,287181296,0.70172244,-0.03755629,-0.7076137,0.073891915,-0.05829531,0.021139016,0.16234207,78,287181296,0.5651169,-0.41503555,-0.6698677,-0.24426717,-0.04378261,0.019147014,-0.040759087
79,287197963,0.701705,-0.037550207,-0.7076316,0.07389016,-0.06136548,-0.003617809,0.23528576,79,287197963,0.5650831999999999,-0.41508950000000006,-0.6698758,-0.24423097,-0.05530426,0.04293997,-0.014665603999999999
80,287214630,0.70166844,-0.037550136,-0.70766807,0.07388826,-0.06481205,-0.030221717000000002,0.16585922,80,287214630,0.5649979,-0.41517392,-0.66990536,-0.24420343,-0.055525087,3.2200000000000003e-05,-0.038949966
81,287231297,0.7015986999999999,-0.037599932,-0.70772684,0.07396031,-0.027349046000000002,0.018888103,0.19445229,81,287231297,0.56489533,-0.41528574,-0.669927,-0.24419186,-0.046121005,-0.03516887,-0.020661354
82,287247964,0.7015425999999999,-0.037654705,-0.7077825,0.07393227,-0.012926201000000002,0.011173664,0.17148972,82,287247964,0.5647581,-0.41547394,-0.66990995,-0.24423607,-0.005145268,0.002075094,-0.020505905
83,287264631,0.701493,-0.03777928,-0.7078373,0.07381374,-0.019778661,0.028927997,0.19643402,83,287264631,0.5645848000000001,-0.41574478,-0.66984504,-0.24435368,0.013615515,-0.0066649330000000005,-0.026060104
84,287281298,0.7013635,-0.037932456,-0.7079724000000001,0.073672056,-0.011976271,0.115601026,0.19741821,84,287281298,0.56442165,-0.41599587,-0.6697896,-0.24445498,0.034815717,-0.0049318140000000005,-0.009165764
85,287297965,0.7013174,-0.038089927,-0.70801604,0.07361060400000001,0.03816439,0.03894171,0.23022175,85,287297965,0.56429267,-0.41617970000000004,-0.66976917,-0.24449621,0.05861985,-0.041964557,0.007360458
86,287314632,0.7012784000000001,-0.038201027,-0.7080508000000001,0.073589124,0.08662647,-0.00448719,0.17184544,86,287314632,0.5641895,-0.41634008,-0.6697444,-0.24452901,0.031234593999999997,-0.15282899,-0.017662048
87,287331299,0.7012805000000001,-0.038322628,-0.7080468000000001,0.073543236,0.10875112599999999,-0.056533272999999995,0.20215034,87,287331299,0.56412005,-0.41651157,-0.669678,-0.2445786,-0.035180714,-0.17407301,-0.004404068
88,287347966,0.7012491999999999,-0.038366355,-0.708075,0.073549405,0.10285127,-0.063707784,0.19314289,88,287347966,0.5641075,-0.41660598,-0.66961545,-0.24461843,0.009998629,-0.14465468,0.014267921000000001
89,287364633,0.70118636,-0.038418967000000005,-0.70813215,0.073571,0.048773658,0.011370216,0.19933605,89,287364633,0.5641159,-0.41667825,-0.6695531,-0.24464646,0.023101851,-0.061730254000000005,-0.010201454
90,287381300,0.70118445,-0.038520552,-0.7081348000000001,0.07351085,0.057804025999999994,0.02935362,0.22052288,90,287381300,0.56408954,-0.41682547,-0.6694501,-0.24473809,-0.010128266,-0.030027848,-0.001276016
91,287397967,0.70124865,-0.038680493999999996,-0.70807654,0.07337539,-0.001232898,0.007092821,0.1516037,91,287397967,0.5640432,-0.41696579999999994,-0.669355,-0.24486639999999998,-0.062046748,-0.026000367000000003,-0.05992794
92,287414634,0.7013226,-0.038792352999999995,-0.70801145,0.073237225,-0.02849835,-0.03521075,0.19770718,92,287414634,0.56402135,-0.41705109999999995,-0.66929436,-0.24493682,-0.062005177,-0.018944064,-0.030228615
93,287431301,0.70133704,-0.038884833,-0.7079973,0.07318644,-0.03552247,0.022903904,0.18949604,93,287431301,0.56398517,-0.41715413,-0.66922694,-0.24502899,-0.0018444289999999999,-0.023348163999999998,0.004540443
94,287447968,0.70128983,-0.03899986,-0.7080424,0.07314159,0.031479117,0.052708517999999996,0.20670033,94,287447968,0.5639517,-0.41722736,-0.6691799,-0.24511003,0.012719675,-0.03170017,-0.006426811
95,287464635,0.7012877,-0.039199963,-0.70805013,0.07298057,0.05968243,0.04321743,0.20851707,95,287464635,0.56391674,-0.41731814,-0.669114,-0.24521542,-0.012922625,-0.06828522,-0.01466465
96,287481302,0.7013493000000001,-0.03935083,-0.7079875,0.07291304,0.08566134,0.013432123,0.20304966,96,287481302,0.56392074,-0.41738802,-0.6690345,-0.2453042,0.02295791,-0.08924537,-0.009861946
97,287497969,0.70143723,-0.039457599999999995,-0.7078958000000001,0.072900906,0.05261763,-0.00128981,0.21675777,97,287497969,0.5640350000000001,-0.41726540000000006,-0.66904396,-0.2452243,0.032169774,-0.10963735,-0.006089211
98,287514636,0.7015091,-0.03944263,-0.7078095,0.07305629599999999,0.097474,0.08622944,0.15946293,98,287514636,0.56413203,-0.41725323,-0.66895616,-0.24526112,0.054916687,-0.07643204,-0.024050712999999998
99,287531303,0.70164365,-0.039441607999999996,-0.70766056,0.07320532,0.09463404,0.000713,0.22749805,99,287531303,0.5642368000000001,-0.41727158,-0.6688364,-0.24531592,0.021833192999999997,-0.08612624599999999,-0.010261536
100,287547970,0.7018201,-0.039427392,-0.7074778,0.07328915,0.043986455,-0.03262387,0.19025135,100,287547970,0.56437796,-0.4172187,-0.66873825,-0.24534881,-0.05176292,-0.0858482,-0.007386208000000001
101,287564637,0.70200324,-0.03936395,-0.7072891,0.07338978,0.005088049,-0.052788842,0.20582008,101,287564637,0.56452954,-0.41714975,-0.66864586,-0.24536934,-0.032295834,-0.076168075,-0.01591587
102,287581304,0.70208335,-0.039346825,-0.7072016,0.073475555,0.04574461,-0.011701182,0.1933403,102,287581304,0.5646502,-0.41715342,-0.6685,-0.24548273,0.003491273,-0.090271965,-0.0079422
103,287597971,0.7021685000000001,-0.039343216,-0.7071057,0.07358644,0.054304708,0.066603005,0.1781826,103,287597971,0.5647934,-0.417103,-0.66838115,-0.24556239,0.028233709,-0.060756408,-0.028909683
104,287614638,0.7023185000000001,-0.039401546,-0.7069546,0.073577024,0.031934638,0.10585012,0.18149089999999998,104,287614638,0.5649159,-0.41710810000000004,-0.6682269000000001,-0.24569146,0.006184604000000001,0.0029535,-0.02697277
105,287631305,0.70252544,-0.03952116,-0.7067558,0.07344603,-0.006764396,0.037628014,0.20411777,105,287631305,0.56498855,-0.41718748,-0.66804314,-0.24588932,-0.025165323,0.01425074,-0.018658638
106,287647972,0.70271754,-0.039688926,-0.7065707,0.07329755,-0.026786687000000003,0.00011899999999999999,0.23556328,106,287647972,0.5651001999999999,-0.41717562,-0.6679043,-0.24603018,-0.038354374,-0.045806522999999995,-0.008397102
107,287664639,0.7028964,-0.039884686,-0.7063884,0.07323469,0.08626304,0.05042483,0.19760227,107,287664639,0.5652146,-0.41719425,-0.6677397,-0.24618275,-0.007553397,-0.07432029400000001,-0.019282341
108,287681306,0.70318764,-0.040046614,-0.70608896,0.073238015,0.08768413,0.043662194,0.13747597,108,287681306,0.5653175,-0.41729742,-0.66751206,-0.24638863,0.034365118,-0.06787306,-0.045484542999999995
109,287697973,0.7035201,-0.04029944,-0.7057554,0.073121116,0.044302505,0.041007336,0.18895245,109,287697973,0.5654536,-0.41732422,-0.6673190999999999,-0.24655347,-0.013203356999999999,-0.05644484599999999,-0.033207892999999995
110,287714640,0.70386636,-0.04052721,-0.70541614,0.07293768,-0.01847111,-0.01729725,0.22644138,110,287714640,0.56556267,-0.41739005,-0.66710114,-0.24678206,-0.037429925,-0.03907476,-0.008782387
111,287731307,0.70417005,-0.040711448,-0.7051144,0.072821334,0.04154301,0.013840145,0.20129204,111,287731307,0.5657089,-0.41735518,-0.6669376,-0.24694759,-0.038746864,-0.025975559,-0.006419182
112,287747974,0.70457727,-0.040965392999999996,-0.7047091999999999,0.072662555,0.07961308,0.056819815,0.20623589,112,287747974,0.56580997,-0.41745996,-0.6666831,-0.24722625,0.023963718,-0.025981817,-0.0267725
113,287764641,0.7050017,-0.0412213,-0.7042811999999999,0.07254965,0.11058929599999999,0.07803877,0.1500206,113,287764641,0.5659244999999999,-0.41755217,-0.6664247,-0.24750488,0.06021193,-0.10184658,-0.04258346599999999
114,287781308,0.7054419,-0.041531403,-0.7038288,0.07248438,0.11561163,0.029888209,0.22636604,114,287781308,0.5660743,-0.4176192,-0.6661562,-0.24777156,0.049007895999999995,-0.114171535,0.007432938
115,287797975,0.70585847,-0.041825008,-0.7034052,0.0723727,0.11859195,0.09888767,0.21492767,115,287797975,0.56633574,-0.41750458,-0.6659501999999999,-0.24792136,0.08045483,-0.09192127,0.021878242000000003
116,287814642,0.7063354000000001,-0.041962467,-0.70291126,0.0724377,0.14367682,0.14343324,0.23425198,116,287814642,0.56658554,-0.41748494,-0.66566473,-0.24814977,0.09492931,-0.060807817,-0.035079002000000005
117,287831309,0.7069379,-0.042237923,-0.7022978,0.07234969999999999,0.26637337,0.14400075,0.20131970000000002,117,287831309,0.5668554,-0.41754490000000005,-0.6652855999999999,-0.24844929999999998,0.1627219,-0.15099977,-0.024482727000000003
118,287847976,0.70769006,-0.04258136,-0.7015283,0.072262965,0.30906746,0.17101423,0.19437885,118,287847976,0.5672337,-0.41754399999999997,-0.66486436,-0.2487149,0.16468970000000002,-0.15968727,0.051343917999999995
119,287864643,0.70851225,-0.043067902000000005,-0.70068234,0.072124526,0.41187403,0.20979,0.22926235,119,287864643,0.56764233,-0.41762108,-0.6642983,-0.24916567,0.24180995,-0.30728406,0.027227402
120,287881310,0.7093314000000001,-0.043718766,-0.6998243000000001,0.07201265,0.6729193,0.21886934,0.33991814,120,287881310,0.5681132,-0.41776758,-0.6635933,-0.24972473,0.32528043,-0.50376225,0.18383789
121,287897977,0.7102101,-0.04446986,-0.6988941,0.07192642,0.8321678,0.11328575,0.3331356,121,287897977,0.56871665,-0.41777268,-0.6628233,-0.25038645,0.31746283,-0.56618,0.11608219
122,287914644,0.7112274000000001,-0.045054942,-0.69783187,0.071821466,0.6953421,0.21745245,0.18025589,122,287914644,0.56953174,-0.41758743,-0.66201586,-0.25097895,0.3340189,-0.51581514,-0.044911385
123,287931311,0.71229136,-0.045715947,-0.69672066,0.07164738,0.63890105,0.23576856,0.23248577,123,287931311,0.5705108,-0.41741216,-0.6610366999999999,-0.25162652,0.49100074,-0.43281227,0.03446865
124,287947978,0.713391,-0.04636235,-0.69554937,0.07167133,0.83654195,0.23612954,0.20110607,124,287947978,0.5716169,-0.41733149999999997,-0.65982044,-0.25244087,0.40317422,-0.54579586,0.05928421
125,287964645,0.7147815,-0.046833068,-0.6940694000000001,0.07185889999999999,0.6633091,0.15165061,0.34588432,125,287964645,0.57292473,-0.41717565,-0.6584474,-0.25331715,0.2780651,-0.33646345,0.10031605
126,287981312,0.7164391999999999,-0.047376512999999995,-0.69236755,0.071412355,0.3913104,0.31573346,0.3817587,126,287981312,0.57415664,-0.4172999,-0.65680194,-0.2545919,0.38535085,0.08621923,0.023940086
127,287997979,0.7183243,-0.048336885999999996,-0.69049954,0.06990081,0.059734285,0.5336116,0.20768929,127,287997979,0.5748386999999999,-0.41826478,-0.65477616,-0.25667858,0.15719464,0.45194049999999997,-0.32981873
128,288014646,0.72065187,-0.05022332,-0.6881923000000001,0.06731837,-0.18126364,0.4180103,0.28771973,128,288014646,0.5750967,-0.4196977,-0.6527734000000001,-0.25885415,-0.38609314,0.42994237,-0.18736649
129,288031313,0.72321564,-0.052888255999999995,-0.6855996999999999,0.06416675,-0.24684189999999998,0.15139285,0.1877718,129,288031313,0.5753295,-0.42089286,-0.6510415,-0.26075086,-0.45452255,0.2153163,0.0057430269999999995
130,288047980,0.72583336,-0.055354513,-0.68285626,0.06173768599999999,-0.295599,0.27553058,-0.034015656,130,288047980,0.5756420999999999,-0.42183432,-0.6495548000000001,-0.26224318,-0.21462786,0.52011925,-0.28961563
131,288064647,0.7287331,-0.057839796,-0.6797333999999999,0.059727076,-0.5032819000000001,0.30545142,0.14858055,131,288064647,0.5757786,-0.42302,-0.64813757,-0.26353663,-0.17372589,1.0447146,-0.25483513
132,288081314,0.7320241999999999,-0.060330298,-0.6761478,0.057681043,-0.9823666999999999,0.24799044,0.30383873,132,288081314,0.5755547,-0.4246124,-0.64674675,-0.264878,-0.41408370000000005,1.2155902,-0.16396618
133,288097981,0.73540825,-0.0630356,-0.6723914000000001,0.05561658,-1.1514386,0.029706102,0.30785275,133,288097981,0.57489896,-0.42657515,-0.64546216,-0.26627848,-0.7012050999999999,1.2204595,-0.281497
134,288114648,0.73885924,-0.06566813,-0.66847223,0.054052692,-1.1548578999999999,-0.32877147,0.19268131,134,288114648,0.57423323,-0.42826542,-0.6446095000000001,-0.26706633,-0.9628565,1.034414,-0.23215675
135,288131315,0.7429842,-0.06698124,-0.6637687,0.05386409,-0.98689103,-0.29442573,0.23840714,135,288131315,0.57397515,-0.42909268,-0.6444548000000001,-0.26666623,-0.9351485,1.109592,-0.13485813
136,288147982,0.7478180999999999,-0.066904165,-0.658255,0.054720324,-1.3149357,-0.24678779999999997,0.5396662,136,288147982,0.57376784,-0.42952582,-0.644809,-0.26555613,-0.64862925,1.2014221,-0.098976135
137,288164649,0.75274366,-0.067175634,-0.6525623,0.055037197,-0.80907,-0.34713697,0.6931534,137,288164649,0.57326037,-0.43006724,-0.64539295,-0.26435488,-0.5914066,1.0571964,-0.11065388
138,288181316,0.75753707,-0.06755941,-0.6469273,0.055324316,0.03607678,-0.5492047,0.61093426,138,288181316,0.5723438,-0.43083516,-0.6460645,-0.26344870000000004,-0.80871594,-0.14990813,0.11841965
139,288197983,0.7624279,-0.06754608,-0.6410731,0.05629106,0.90104777,-0.91187215,0.37748146,139,288197983,0.57163924,-0.4308169,-0.6471413,-0.26236287,-0.8995324,-0.82799125,0.047620773
140,288214650,0.76819485,-0.06691238,-0.63406044,0.058041014,1.1578382,-0.8238893,0.4073553,140,288214650,0.5711815,-0.43026203,-0.64849466,-0.2609247,-0.67634284,-0.95871615,-0.033709526000000004
141,288231317,0.77477944,-0.06610734,-0.6259125,0.0598506,1.1180091,-0.65810895,0.47303199999999995,141,288231317,0.57066786,-0.42975897,-0.6498089,-0.25960466,-0.53844005,-0.5716342,0.11452198
142,288247984,0.78141296,-0.06711773,-0.6174816,0.06006394,-0.10186245,-0.61330575,0.25705147,142,288247984,0.56982917,-0.42977136,-0.6508074,-0.25892437,-0.021927738999999998,-0.34469298,0.070189476
143,288264651,0.7860100999999999,-0.07037182,-0.6112963,0.059624474000000004,0.8055313000000001,-0.5271252,-0.58009624,143,288264651,0.5687478,-0.43046805,-0.6510446,-0.25954723,0.29369512,-1.9519033,0.42751598
144,288281318,0.7897831,-0.07299004,-0.6059965,0.06070796,1.2641138,-0.09107248,-0.42346954,144,288281318,0.56820667,-0.43030608,-0.65148324,-0.25990033,0.40751442,-1.6183225,-0.31119633
145,288297985,0.7935943,-0.07443586,-0.6005516,0.063304625,1.4952413,0.5634594,0.055508614000000005,145,288297985,0.56880033,-0.42896876,-0.6521905,-0.2590374,1.4353163999999998,-0.83801174,0.4174652
146,288314652,0.79742455,-0.07505352,-0.5951458000000001,0.065459155,1.5200274999999999,1.7612898000000001,0.17412567,146,288314652,0.5701084,-0.42743692,-0.6524956000000001,-0.25792325,2.4730005,0.009960407,0.35200882
147,288331319,0.8010555,-0.07551871,-0.59007156,0.06651868,1.2543583,1.8209224999999998,-0.03328228,147,288331319,0.5706579,-0.42783353,-0.651558,-0.25842026,1.9087492,0.04896331,-0.1619072
148,288347986,0.8045411,-0.076607496,-0.5851018,0.06710649,0.5170981,0.20760548,0.13441181,148,288347986,0.5707433000000001,-0.42888606,-0.6502658,-0.25973824,-0.3396552,-0.08618168,-0.21879005
149,288364653,0.80779845,-0.0776279,-0.5803606,0.06796525,-0.041925218,-0.81705576,0.20714092,149,288364653,0.5714982,-0.42882884,-0.64943445,-0.26025257,-1.2303246,-0.76045525,0.41445446
150,288381320,0.81099254,-0.077806406,-0.57568055,0.06950799,-0.34529847,-0.65969056,0.1457882,150,288381320,0.5728913,-0.42738003,-0.64931583,-0.25986856,-0.82252276,-0.4627478,0.043808937
151,288397987,0.81392235,-0.07848041,-0.57125133,0.07103197,-0.37000066,-0.05741327,-0.017255783,151,288397987,0.57398486,-0.42642677,-0.64903843,-0.25971442,0.1741376,0.13294148,-0.15107155
152,288414654,0.8165952,-0.08064337,-0.5670321,0.07173489999999999,-0.7073116999999999,0.14897597,0.064291954,152,288414654,0.574248,-0.42668474,-0.6483896,-0.26032907,-0.3792085,1.0707353000000002,-0.25561047
153,288431321,0.8191255000000001,-0.08433095,-0.56285226,0.071562044,-1.3724111,-0.8480741,0.16865921,153,288431321,0.5735479,-0.42796709999999993,-0.6476801999999999,-0.26153022,-1.6994405,1.6969949,-0.5214300000000001
154,288447988,0.8218279000000001,-0.08857025,-0.5582491,0.07151565,-1.8940034,-2.674132,0.6343708,154,288447988,0.57208556,-0.42926002,-0.64762884,-0.26273844,-3.3115542000000002,0.9697329,0.17502403
155,288464655,0.82495606,-0.091395654,-0.5530143,0.07260614,-2.6711664,-2.8531978,0.71345615,155,288464655,0.5711025,-0.42816457,-0.64923143,-0.26270932,-3.5538263,0.040202383,0.24324703
156,288481322,0.82806,-0.09089262,-0.54790044,0.07656768,-1.9679959999999999,-1.3769296,-0.29533577,156,288481322,0.571342,-0.42463747,-0.6522277,-0.26048234,-2.2260761000000002,0.20779933,-0.7686434
157,288497989,0.8313236999999999,-0.08989221,-0.54245406,0.08103042,-2.001472,0.3463178,-0.52569866,157,288497989,0.5718135999999999,-0.42056972,-0.655713,-0.25727683,0.42157763,1.5404505,-0.34773922
158,288514656,0.83416027,-0.08922916,-0.5375658,0.08508655400000001,-1.9445293999999997,1.2721903,0.19765282,158,288514656,0.5706869999999999,-0.41910059999999993,-0.65839386,-0.25532243,1.085323,2.455621,-0.22517586
159,288531323,0.83740884,-0.089327104,-0.5320549,0.08767537,-1.6349407,0.8061343000000001,0.6177769000000001,159,288531323,0.5678823000000001,-0.42034024,-0.6603561,-0.25446892,-0.06756707,2.2532117,-0.3957348
160,288547990,0.84025264,-0.09029315,-0.5271265,0.08923219,-0.6449159999999999,0.14459908,-0.424304,160,288547990,0.56481427,-0.42163855,-0.66254574,-0.25345546,-0.7803857,1.1141333999999998,-0.22292710000000002
161,288564657,0.8435803,-0.09002394,-0.521257,0.09252617,2.4554865,-0.7291405,-1.1959667,161,288564657,0.56267405,-0.4209377,-0.6654225,-0.25183946,-1.5733515,-1.1759568,-0.31490612
162,288581324,0.8488273000000001,-0.087944254,-0.51227355,0.09662181,1.2841114,-1.026939,-0.020536423,162,288581324,0.5616986999999999,-0.41804087,-0.66918874,-0.24884479,-0.6799293000000001,-1.6175505,-0.49628448
163,288597991,0.8531466999999999,-0.08703275,-0.50457025,0.099885516,-1.0171002,-0.121771425,0.92877674,163,288597991,0.5607185,-0.41508412,-0.67303413,-0.24561305,0.27039972,-1.1853573,0.17081738
164,288614658,0.8569540000000001,-0.08520798,-0.49767074,0.10341907,-0.54809844,0.6415837,0.71477795,164,288614658,0.5593095,-0.41273940000000003,-0.67686266,-0.24223317,0.5290081999999999,0.237354,0.46207142
165,288631325,0.8606764000000001,-0.08318006,-0.49081326,0.10687296,0.58791596,1.7752731,-0.53790855,165,288631325,0.55782855,-0.41086720000000004,-0.68049306,-0.23863216,1.1663085,1.9455967,-0.42820929999999996
166,288647992,0.8647937,-0.081909806,-0.48318672,0.10934139,3.3374326,1.3421593,-1.5930243,166,288647992,0.5562323,-0.41085646,-0.6823752,-0.23699723,2.2301254,-0.05117832,-0.26281166
167,288664659,0.86887616,-0.08260389,-0.47528505,0.11107316,2.1153176,0.75875425,-0.40499306,167,288664659,0.55448353,-0.411553,-0.68323475,-0.23740943,1.4786127,-2.3220923,0.20152092
168,288681326,0.8723837999999999,-0.08480937,-0.46808124,0.11249862599999999,1.547301,1.0366884,0.75183487,168,288681326,0.5529935,-0.41148892,-0.6844351,-0.23753832,0.24246775,-2.6530099999999996,0.34860802
169,288697993,0.8755873,-0.08703947,-0.46134496,0.11372803,1.0180514999999999,-0.4286156,1.0673733,169,288697993,0.55271834,-0.40985894,-0.6863133000000001,-0.23556985,-1.1008343999999999,-1.5432222,0.5555153
170,288714660,0.87894773,-0.08728477,-0.45420682,0.116321124,-0.09114233,-0.55204153,0.91821957,170,288714660,0.55357087,-0.40642829999999996,-0.6890368,-0.23152603,0.004165387,-0.108916745,0.5566386999999999
171,288731327,0.88249123,-0.08581039,-0.44671756,0.11954675599999999,0.63597524,0.678521,-0.07515812,171,288731327,0.5541585,-0.40387973,-0.6910949000000001,-0.22842564,2.2480182999999996,0.63381034,-0.020056725
172,288747994,0.88607544,-0.0846288,-0.43915296,0.121880494,1.1135902,2.4693925,-0.6218585999999999,172,288747994,0.5543339,-0.40319493,-0.6918265,-0.22698984,3.4152343000000003,0.43175775,0.0875864
173,288764661,0.88929856,-0.08556413,-0.43239725,0.12190782,1.5217283000000001,2.4308562,-0.01444912,173,288764661,0.5540874,-0.4042677,-0.6913655,-0.22708894,1.6219854,-0.004244846,-0.09047031400000001
174,288781328,0.8922654000000001,-0.0881091,-0.42607406,0.12067548,0.44295797,0.39476153,0.5373286999999999,174,288781328,0.55336887,-0.40580934,-0.69087726,-0.22757646,-1.0336189,-0.34825912,-0.24654007
175,288797995,0.8952059000000001,-0.09061981,-0.41944337,0.12026656,-0.72709054,-1.278567,0.4070959,175,288797995,0.5531175,-0.40566146,-0.6914882,-0.22659369,-1.9683186000000001,-0.39451534,0.2668724
176,288814662,0.8981847,-0.091937676,-0.41234997,0.12157841,-0.78297997,-0.6185932,-0.3900051,176,288814662,0.55400187,-0.40348320000000004,-0.6930071999999999,-0.22366305,-0.28890970000000005,-0.28027898,0.26490593
177,288831329,0.9011831,-0.09298014,-0.40502185,0.12322029999999999,0.13439678,0.8965076,-0.6966180999999999,177,288831329,0.5552758000000001,-0.40150264,-0.69411075,-0.2206254,1.1280388000000001,0.43605244,-0.1445837
178,288847996,0.9040339,-0.09538164,-0.39783302,0.12392003,0.54853815,0.7810381,-0.115979195,178,288847996,0.5556335,-0.40172875,-0.6939982,-0.21966489,1.0175139000000002,0.572546,-0.33036423
179,288864663,0.9067495000000001,-0.09861252,-0.39089116,0.12364033599999999,0.21446471,-0.45960784,0.5338906999999999,179,288864663,0.55456537,-0.4038788,-0.6934001000000001,-0.2203096,-1.2458075000000002,-0.06343499,-0.20081425
180,288881330,0.90954226,-0.10152301,-0.38344836,0.12407867,-0.15142667,-2.0674295,0.80021477,180,288881330,0.55336416,-0.40510628,-0.693706,-0.22011340000000001,-2.6768215,-0.3284058,0.00975132
181,288897997,0.91281205,-0.10194982,-0.37473735,0.12631097,-0.64035726,-1.960374,-0.017938614,181,288897997,0.5535068000000001,-0.40374565,-0.69507915,-0.21791117,-1.1344197,-0.27265182,0.42743015
182,288914664,0.9160045,-0.101082295,-0.36614868,0.12905578,-0.24419104,-0.49923804,-0.8998699,182,288914664,0.55444163,-0.4012493,-0.6965142,-0.21555093,0.8418535,-0.51859474,0.016817093
183,288931331,0.9187274,-0.10083845,-0.35859093,0.13109644,0.7528209,0.8343877000000001,-0.38499832,183,288931331,0.5550297,-0.40005708,-0.6969799,-0.21474749999999998,1.3253319,-0.51927245,-0.40712166
184,288947998,0.92109454,-0.10227676,-0.35177159999999996,0.13184544,1.1190278999999999,0.44738963,0.6192503,184,288947998,0.55465794,-0.40053067,-0.69682354,-0.21533155,-0.6723712,-0.34277478,-0.09049606
185,288964665,0.92359805,-0.10385787,-0.34420165,0.13306975,0.9298713,-1.3268414,0.8149214,185,288964665,0.55401057,-0.40030646,-0.69745344,-0.21537521,-2.4237830000000002,-0.73648214,0.38787365
186,288981332,0.9266747999999999,-0.10389748,-0.33468103,0.13590446,0.11521422,-2.0712698,0.12392235,186,288981332,0.5542806,-0.39767703,-0.69914466,-0.2140645,-1.4391979,-0.73500806,0.51611996
187,288997999,0.9298301,-0.10249041,-0.32465822,0.13968160000000002,-0.37297204,0.17616095,-0.8155564999999999,187,288997999,0.5555504,-0.39397323,-0.70078385,-0.21225406,1.3475478,-0.3026553,-0.12048435
188,289014666,0.9321937,-0.10203399,-0.3166429,0.14262998,0.25896838,1.2904474,-0.5463686,188,289014666,0.5567188,-0.39195782,-0.7011196999999999,-0.21181458,1.9406130000000001,-0.15777154,-0.3405857
189,289031333,0.9342181999999999,-0.10290737,-0.3094461,0.14453849,1.2726846,0.43421170000000003,0.49366283,189,289031333,0.55694604,-0.39189497,-0.700551,-0.21321015,0.6315440999999999,-0.51662874,0.2525816
190,289048000,0.9363866,-0.10318261,-0.30168948,0.14669365,1.6011863000000002,-0.97956127,1.4488735000000001,190,289048000,0.5566593000000001,-0.3915112,-0.7005636,-0.21461807,-1.5767069,-1.5331838,0.6153517
191,289064667,0.93890095,-0.10187603,-0.29259288,0.14992566,0.96202904,-1.2707406,0.92337894,191,289064667,0.5574616,-0.38855127,-0.7017474,-0.21404652,-1.1972824,-1.5065302999999999,0.82869434
192,289081334,0.9416317,-0.09998208,-0.28211713,0.15409574,-0.002657793,0.59566075,-0.24014759,192,289081334,0.55923903,-0.38420832,-0.7033517,-0.21197425,1.2417307,-0.3800792,0.32654762
193,289098001,0.9441666999999999,-0.09949626,-0.2716665,0.15763570000000002,0.2160179,2.0628330000000004,-1.0140839,193,289098001,0.56055665,-0.38164549999999997,-0.70420206,-0.21029319,2.442816,0.79690284,-0.5256548000000001
194,289114668,0.9458982,-0.10124928,-0.26381978,0.15945689999999998,0.23779967,1.8102236,0.15747356,194,289114668,0.56114155,-0.38127136,-0.7040425,-0.2099462,1.2790860000000002,0.42997399999999997,-0.15765095
195,289131335,0.9475809999999999,-0.10389707,-0.25616366,0.16024362,0.42960307,0.5814928,0.21542263,195,289131335,0.56234974,-0.37944233,-0.7041949000000001,-0.20951557,0.6650140999999999,-0.03721245,0.5252991
196,289148002,0.94988966,-0.10352575,-0.24701744,0.16117296,1.1256765,-1.5953133,1.3082218,196,289148002,0.56375104,-0.377477,-0.7042155,-0.20922968,0.53190494,-0.21975660000000002,0.15211487
197,289164669,0.9526508,-0.10090955,-0.23706512,0.16148114,0.40776563,-1.3491986999999999,1.5702323999999999,197,289164669,0.5639065,-0.37643686,-0.704635,-0.20927258,-1.7787735,-0.12676805,0.64097023
198,289181336,0.9555429,-0.09907836,-0.2261415,0.16119383,-0.74187905,-0.34379858,-1.4068756000000002,198,289181336,0.5638644,-0.37487212,-0.7057845,-0.20831893,-1.9878508999999998,-0.09464142,-0.36634064
199,289198003,0.958234,-0.098430835,-0.21448721,0.16154361,-1.5848002,-0.97375196,-1.3224592,199,289198003,0.5645821,-0.37292156,-0.7066718000000001,-0.20686282,-0.8135038,0.14653543,-1.0246143
200,289214670,0.96034384,-0.098364525,-0.20363049,0.16309819,-1.6252381999999999,0.46435046,-0.13965034,200,289214670,0.5652214,-0.3713774,-0.70714855,-0.20626464,0.64323074,0.31627285,-0.2772236
201,289231337,0.9617880999999999,-0.098898776,-0.19479571,0.16504422,-0.83674747,1.0056489,0.7760458,201,289231337,0.5658148000000001,-0.37028491,-0.7071751000000001,-0.2065118,1.4618973,0.0838102,0.7468519
202,289248004,0.96285355,-0.09991192,-0.18854876,0.16547625,0.63717127,0.42488298,1.454217,202,289248004,0.5667895000000001,-0.3689906,-0.7069254,-0.20700945,1.5130605,-0.6829531,0.75701046
203,289264671,0.96380574,-0.100058354,-0.18417884,0.1647645,1.2553594,0.5762041,1.2284621999999998,203,289264671,0.5676985999999999,-0.3675569,-0.70678455,-0.20754933,1.1690881000000002,-0.85643035,0.038121222999999996
204,289281338,0.96457887,-0.09951592,-0.18096666,0.16412565,0.55892813,0.50104463,0.70132065,204,289281338,0.56863916,-0.3660825,-0.7066260999999999,-0.20811883,0.8573523000000001,-0.37199607,0.038895607
205,289298005,0.96509814,-0.09856611,-0.17917188,0.1636156,-0.45100567,0.71631473,0.6129494000000001,205,289298005,0.5699013,-0.36525640000000004,-0.70597917,-0.20831311,1.0013642,0.47371045,-0.22097015
206,289314672,0.9654792999999999,-0.09802385,-0.17852122,0.16239986,-0.669207,1.4652483,-0.55624104,206,289314672,0.570765,-0.36588803,-0.704861,-0.20862694,0.74169934,0.96735936,-0.6299696
207,289331339,0.9656790000000001,-0.098976664,-0.17765893,0.16157793,-0.83394575,1.1826763,-0.925333,207,289331339,0.5709633000000001,-0.36734572,-0.70366985,-0.20954159,-0.31178895,0.7416590999999999,-0.62933064
208,289348006,0.9657984000000001,-0.10052575,-0.17644920000000003,0.16123295,-1.2446704,-0.43058822,-0.49143887,208,289348006,0.57125676,-0.36805713,-0.7027914000000001,-0.21043939999999997,-0.6776522,0.68413806,-0.5313635
209,289364673,0.965974,-0.10098453,-0.17545457,0.1609797,-1.3764338,-1.0891731000000002,0.34500790000000003,209,289364673,0.5716946999999999,-0.36772376,-0.70239073,-0.21116910000000003,-1.3405063999999998,0.29327023,0.05669117
210,289381340,0.96616894,-0.10048992,-0.17448288,0.16117534,-0.53274524,-1.0349183000000002,0.43272495,210,289381340,0.572531,-0.36605972,-0.7025449,-0.21128197,-1.4314078000000001,0.21292470000000002,0.36039257
211,289398007,0.96648955,-0.09921375,-0.17295606,0.16168927,-0.72871685,-0.0953561,0.030115127999999998,211,289398007,0.57357395,-0.36372405,-0.7031376,-0.21051374,-0.4910441,0.63545597,-0.21590233
212,289414674,0.9667674,-0.098348245,-0.17158479999999998,0.16201803,-1.0254021999999998,0.30441436,-0.41422844,212,289414674,0.57415307,-0.36219755,-0.70377314,-0.20944065,-0.2064075,0.74883276,-0.5887394
213,289431341,0.9669184999999999,-0.09866441,-0.17045972,0.16211018,-0.77338266,0.1849511,-0.5128545999999999,213,289431341,0.5743096,-0.3616457,-0.7041801,-0.20859559,-0.5326323000000001,0.31875315,-0.16303825
214,289448008,0.9669846,-0.10002994,-0.16896342,0.16244607,0.10644995,-0.4668195,-0.05771923,214,289448008,0.5744060000000001,-0.36167866,-0.70417273,-0.2082975,-0.40210384,-0.06957199,0.17590141
215,289464675,0.9671419,-0.10083667,-0.16688995,0.16315286,0.76017505,-0.715966,0.44305420000000006,215,289464675,0.57437116,-0.36165687,-0.70419234,-0.20836511,-0.28430894,-0.6038161999999999,0.16695023
216,289481342,0.967363,-0.100675605,-0.16485149,0.16401221,0.79041624,-0.789413,0.46045685,216,289481342,0.5743154,-0.3610211,-0.7045986999999999,-0.20824741,-0.40364608,-0.9903791999999999,0.034103394
217,289498009,0.9675719000000002,-0.1000277,-0.1630186,0.16500548,0.7098180000000001,-0.54277426,0.14658546,217,289498009,0.574549,-0.3596132,-0.7053094,-0.20763262,-0.272163,-1.0379655,-0.069963455
218,289514676,0.9677638000000001,-0.09937115,-0.16124298,0.16601825,0.5882841,-0.22169858,0.106108665,218,289514676,0.5750495,-0.35783255,-0.70606995,-0.2067365,-0.00749886,-0.7427223000000001,-0.03358555
219,289531343,0.96793574,-0.09870068,-0.15959921,0.16700071,0.48634967,-0.13492751,0.42381477,219,289531343,0.57563823,-0.35601532,-0.70671564,-0.20602836,0.26283425,-0.46307057,0.30125713
220,289548010,0.96810055,-0.09776586,-0.15810904,0.16801013,0.60992306,0.071141824,0.71260166,220,289548010,0.5763418,-0.35436442,-0.7070598000000001,-0.20572620000000003,0.46505803,-0.30331087,0.70877075
221,289564677,0.96829903,-0.09647232,-0.15661459,0.16901186,0.72106844,0.35405055,0.58443356,221,289564677,0.5770701,-0.35290268,-0.70717853,-0.20578925,0.5235559000000001,-0.25781906,0.50625134
222,289581344,0.9685396000000001,-0.09531310000000001,-0.15502703,0.16975322,0.70249027,0.35297891,0.29610062,222,289581344,0.57758904,-0.35156545,-0.7073853,-0.2059119,0.30652702,-0.44126442,0.10390568
223,289598011,0.9687247,-0.09442532,-0.15364529999999998,0.17044693,0.35731786,0.051593777,-0.06211471599999999,223,289598011,0.57791305,-0.35007372,-0.7079153,-0.20572212,-0.083664924,-0.54170555,-0.4103861
224,289614678,0.96885026,-0.09352378,-0.15241961,0.17132875,-0.016841365,-0.37686083,-0.3576994,224,289614678,0.57813567,-0.34821668,-0.7088238,-0.20511995,-0.13712877,-0.37583256,-0.79199696
225,289631345,0.9689823000000001,-0.0919421,-0.15133038,0.17240149,-0.31994694,-0.38067263,-0.43475628,225,289631345,0.57831514,-0.34616625,-0.7099288,-0.2042608,0.15742867,-0.016988661000000002,-0.8805895
226,289648012,0.9691171999999999,-0.08993574,-0.15046433,0.17345627,-0.22522138,0.001070124,-0.32310295,226,289648012,0.5784279999999999,-0.34422198,-0.711015,-0.20344743,0.30059588,0.28549802,-0.5190058
227,289664679,0.96925545,-0.08803523,-0.14964607,0.17436294,-0.09212232,0.49260217,-0.056798935,227,289664679,0.57861865,-0.34266597,-0.7117207,-0.20306352,0.13176803,0.39170578,0.18428993
228,289681346,0.9693917999999999,-0.0866918,-0.14874482,0.17504874,-0.16202755,0.6741996,0.28719234,228,289681346,0.5790259,-0.34114152,-0.71213055,-0.20303264,-0.06283441,0.5994795,0.5092411
229,289698013,0.9695034,-0.08594963,-0.14767598,0.17570102,-0.1739912,0.55625063,0.52980995,229,289698013,0.5795593000000001,-0.33965236,-0.7123795,-0.20313367,-0.43534958,0.5348476,0.7560053000000001
230,289714680,0.96957535,-0.08555957,-0.14650851,0.17646985,-0.44876295,0.23419715,0.40333748,230,289714680,0.5804183,-0.33762124,-0.71275795,-0.20273949,-0.55833983,0.42309996,0.58205986
231,289731347,0.9696358,-0.08501237,-0.14529581,0.17740251,-0.5026077999999999,-0.058711767000000005,0.20397663,231,289731347,0.5815066999999999,-0.33524853,-0.7132084,-0.20197293,-0.069245204,0.44274732,0.16231632
232,289748014,0.9697534999999999,-0.08428556,-0.14394368,0.17820635,-0.37095708,0.041628952999999996,0.17795944,232,289748014,0.5824949,-0.33313265,-0.7135851,-0.20129469,0.17728287,0.4713162,-0.022381783
233,289764681,0.9699058,-0.08363084,-0.14260495,0.17876129,-0.28135857,0.28118354,0.19225407,233,289764681,0.5832408,-0.33147398,-0.71389186,-0.20078406,0.14939025,0.41578004,0.020129203999999998
234,289781348,0.9700405000000001,-0.08360175,-0.14141487,0.17899005,-0.11391595,0.29468092,0.047742844000000006,234,289781348,0.58389103,-0.33028346,-0.71392494,-0.20073806,0.10581237,0.33345306,0.035048485
235,289798015,0.970175,-0.08387748,-0.14027853,0.17902641,-0.06784948,0.057422824000000004,-0.03172779,235,289798015,0.584364,-0.32936135,-0.7139221,-0.2008876,-0.030434454,0.11393865,-0.24032402
236,289814682,0.97031075,-0.08394019999999999,-0.13924748,0.17906637,-0.16557929,-0.011639493,-0.077949524,236,289814682,0.5847914000000001,-0.3283258,-0.71405977,-0.20084989,-0.12189994,-0.015322819,-0.41054250000000003
237,289831349,0.97042495,-0.083561204,-0.13846073,0.17923483,-0.11966179,-0.03958487,-0.18338299,237,289831349,0.5853241,-0.3271279,-0.71427345,-0.20049295,-0.045748632000000004,-0.06611703,-0.4492445
238,289848016,0.9705283000000001,-0.08306541,-0.13785179999999997,0.17937507,-0.08931723,0.065733425,-0.24257565,238,289848016,0.585932,-0.3258517,-0.71451867,-0.19992068,0.17143533,0.024082515,-0.40651417
239,289864683,0.9706196,-0.082616076,-0.13736166,0.17946377,0.029665868999999997,0.29662013,-0.16626072,239,289864683,0.586517,-0.32485840000000005,-0.7146375,-0.19939668,0.45294678,0.10491855,-0.28709029999999996
240,289881350,0.97072375,-0.08241709,-0.13703366,0.17924301,0.14824496,0.4876479,-0.10156441,240,289881350,0.5869126,-0.3244045,-0.71457195,-0.19920582,0.39137343,0.17329496,-0.2370348
241,289898017,0.9708187,-0.082590595,-0.13684376,0.17879336,-0.014986208999999999,0.48755646,-0.10916805,241,289898017,0.5871566,-0.32443607,-0.7143480999999999,-0.19923897,0.23401895,0.15577824,-0.1763277
242,289914684,0.97086126,-0.083208166,-0.13679536,0.17831303,-0.11973712,0.21720932,-0.107450485,242,289914684,0.58730334,-0.32474396,-0.71404564,-0.1993881,0.07860548,0.1304121,-0.24948215
243,289931351,0.970867,-0.08401777,-0.13687524,0.17783988,-0.16659325,-0.07104387,-0.023902892999999998,243,289931351,0.5872973000000001,-0.32522979999999996,-0.7137766,-0.19957750000000002,-0.0934901,0.054024197,-0.23449898
244,289948018,0.9708646000000001,-0.08456159,-0.13706167,0.17745163,-0.082060434,-0.37927562,-0.015486716999999999,244,289948018,0.58718574,-0.32565233,-0.71361035,-0.19981094,-0.20225732,-0.048656758,-0.25225353
245,289964685,0.9708893,-0.0845735,-0.13722728,0.17718315,0.04532474,-0.47117373,-0.015016556,245,289964685,0.58706176,-0.32588357,-0.7135457,-0.20002933,-0.29397497,-0.14071570000000003,-0.17060757
246,289981352,0.97095305,-0.08410064,-0.13725510000000002,0.17703666,0.12422492,-0.27029964,0.03726387,246,289981352,0.58704585,-0.32574314,-0.71360224,-0.20010336,-0.24046552,-0.10108776,-0.05308819
247,289998019,0.9710257999999999,-0.08346687,-0.13731377,0.1768925,0.1291744,-0.1007597,0.048870087,247,289998019,0.5870989999999999,-0.32548067,-0.71366984,-0.20013309,-0.07574139,0.030876973999999998,-0.076075554
248,290014686,0.97109836,-0.08306680599999999,-0.13742413,0.17659596,0.05053695,0.045054402,-0.027434349,248,290014686,0.5870534000000001,-0.32541028,-0.7136748,-0.20036346,-0.01699816,0.07806246,-0.10009193400000001
249,290031353,0.9711555000000001,-0.08286176,-0.13758495,0.17625351,-0.05196006,0.075149305,-0.015387535,249,290031353,0.58686435,-0.32567579999999996,-0.71358186,-0.20081641,-0.05123498,-0.01996306,-0.14944458
250,290048020,0.97118086,-0.08274284,-0.13784496,0.17596586,-0.016417697,-0.11747304,0.005866051,250,290048020,0.5867091999999999,-0.32587034,-0.71352494,-0.20115648,-0.048319478,-0.0519481,-0.09054947
251,290064687,0.9712226999999999,-0.082327984,-0.13806468,0.17575757,0.09457180000000001,-0.05727497,0.12263584,251,290064687,0.5866235,-0.32606244,-0.71340007,-0.2015371,0.18879335,0.008085805,-0.047027587999999995
252,290081354,0.9713025,-0.08156185,-0.13830197,0.1754872,0.20385678,0.13632357,0.06636047,252,290081354,0.5864406999999999,-0.3265426,-0.7131833000000001,-0.2020585,0.21925235,0.11446780000000001,-0.038912773
253,290098021,0.97140175,-0.08083051,-0.13855554,0.17507645,0.1957921,0.18515746,0.12860298,253,290098021,0.58615106,-0.32741484,-0.7128243000000001,-0.20275305,0.1726061,-0.02503211,0.046855927
254,290114688,0.9714918,-0.08034797,-0.13887203,0.17454697,0.14790322,0.15972896,0.12210655,254,290114688,0.58590907,-0.32829443,-0.7124331,-0.20340426,0.06679685,-0.09256063,0.09969044
255,290131355,0.9715632,-0.08003947,-0.13916902,0.17405425,0.12911059,0.19500293,0.0863266,255,290131355,0.5857828,-0.32904598,-0.71201736,-0.20400810000000003,0.09948561,-0.14511847,0.047623634000000005
256,290148022,0.9716018,-0.07974250599999999,-0.13953988,0.1736772,0.12805973,0.18624915,0.0740881,256,290148022,0.5857106,-0.3296765,-0.71161413,-0.20460369,0.10425896,-0.13036516,-0.079319954
257,290164689,0.9716246999999999,-0.0794559,-0.1400015,0.17330965,0.11781199999999999,0.038629577000000005,0.06878567,257,290164689,0.585594,-0.33015266,-0.7113089,-0.20523015,0.14066565,-0.073640145,-0.121507645
258,290181356,0.9716761,-0.07916368,-0.14048204,0.17276466,0.079957515,0.10282853,0.09716225,258,290181356,0.58546174,-0.33041770000000004,-0.71113074,-0.20579761,0.16788416,-0.018173391,-0.026953697000000002
259,290198023,0.97173893,-0.07892291,-0.14104883,0.17205867,0.14315513,0.14451945,0.10780144,259,290198023,0.58534575,-0.33047324,-0.71105796,-0.20628889,0.079209864,-0.036105055,0.0442276
260,290214690,0.9718203000000001,-0.07870828,-0.14149807,0.17132793,0.1881104,0.15714118,0.1737175,260,290214690,0.5853195,-0.33037674,-0.71099967,-0.20671839999999997,0.020382147,0.024063405,0.19277287
261,290231357,0.9719106,-0.07831556,-0.14185303,0.17070056,0.016747825,0.24615376,0.14769459,261,290231357,0.5854020999999999,-0.33026144,-0.71088356,-0.20706822,0.013025888000000001,0.02551054,0.09194279
262,290248024,0.9719595,-0.077997625,-0.14234789,0.17015545,-0.13417438,0.29977435,0.015841484,262,290248024,0.58547896,-0.33039066,-0.71063054,-0.20751265,0.15401205,0.15647493,-0.15288544
263,290264691,0.9719705,-0.07792928,-0.14307116,0.1695156,-0.17637877,0.29916159999999997,-0.1703968,263,290264691,0.58528036,-0.33105013,-0.7102913000000001,-0.20818199,0.18991852,0.18331124,-0.47927952
264,290281358,0.9719370999999999,-0.07822273,-0.14402041,0.16876753,-0.19575712,0.13067718,-0.23497581,264,290281358,0.5847784,-0.3321842,-0.7099368,-0.20899424,0.14884533,0.105634235,-0.46730137
265,290298025,0.97188765,-0.07884501,-0.14501564,0.16790758,-0.021665222999999997,0.020195682,-0.17644024,265,290298025,0.5842191,-0.3333928,-0.7095941,-0.20979619,-0.13910732,-0.042444552999999996,-0.21027374
266,290314692,0.97183526,-0.07965363,-0.14590341,0.1670576,0.012823943999999999,0.12973458,0.09040928,266,290314692,0.58384734,-0.33429440000000005,-0.70933944,-0.21025643,-0.29268888,-0.14482768,0.15843391
267,290331359,0.971772,-0.08061102,-0.14673242,0.16623847,-0.03770172,0.16884466,0.44840622,267,290331359,0.58369863,-0.33527982,-0.7089169,-0.21052495,-0.1935211,0.04534698,0.42360497
268,290348026,0.9716915999999999,-0.08176679,-0.147593,0.16537997,-0.0377871,-0.041189805,0.5502262,268,290348026,0.5832808,-0.33654335,-0.7085779999999999,-0.21080819,-0.18841517,0.09683006,0.21668053
269,290364693,0.9716229999999999,-0.08304937,-0.14829187,0.16451672,-0.29070029999999997,-0.11936061,0.72953606,269,290364693,0.5824031,-0.33778244,-0.7087458999999999,-0.21068849,-0.52324474,-0.0866182,0.3284397
270,290381360,0.97145784,-0.08483794,-0.14917803,0.16377704,-0.42531654,-0.30445370000000005,0.21455288,270,290381360,0.58129025,-0.33835143,-0.7096538,-0.20979087,-1.0287626,-0.3170156,0.13971996
271,290398027,0.9711249,-0.0867562,-0.15042228,0.16360942,-0.57047296,-0.71413416,-0.3121624,271,290398027,0.5803704000000001,-0.33820259999999996,-0.7109024,-0.20834520000000004,-1.2849768,-0.14254047,-0.41336059999999997
272,290414694,0.97063005,-0.08755232,-0.15225375,0.16442499,-0.73924434,-1.2511264,-0.18897915,272,290414694,0.5796324,-0.33816424,-0.71187824,-0.20712663,-1.2982316,-0.04128843,-0.6982403
273,290431361,0.96999866,-0.08677181,-0.15452829999999998,0.16643092,-0.7034246999999999,-1.8950514999999999,-0.16252804,273,290431361,0.57879955,-0.33807054,-0.7128021999999999,-0.20642945,-2.358637,-0.07835738,-0.65515804
274,290448028,0.9692917999999999,-0.086666085,-0.15645097,0.16879112,-0.88853985,-2.9807901,-0.18846989,274,290448028,0.57808113,-0.33698362,-0.7139768,-0.20616041,-2.0948122,0.23626123,-0.13796329999999998
275,290464695,0.9686244,-0.08594217,-0.1584391,0.17112237,-1.6837772,-1.4603281000000001,0.64812565,275,290464695,0.57724303,-0.33531886,-0.7154557,-0.20609650000000002,-0.36679012,1.3484693,0.15579128
276,290481362,0.96789944,-0.08310229,-0.16146776,0.17377545,-1.3771051,0.33209398,0.39753056,276,290481362,0.5753874,-0.33519265,-0.71678436,-0.2068723,-0.522289,1.5081205,-0.7018546999999999
277,290498029,0.9670525,-0.08002376,-0.16555288,0.17607649,-1.5726628,0.06322355,-0.11623955,277,290498029,0.57364106,-0.33538482,-0.71813446,-0.20672843,-1.1039944,2.0028124,-0.87214184
278,290514696,0.9660511999999999,-0.077602856,-0.17111655,0.17733312,-3.4546193999999995,0.6500600999999999,-0.04424572,278,290514696,0.57208645,-0.33560568,-0.71955055,-0.20575163,-0.88234466,2.7014465,-0.42826462
279,290531363,0.96496314,-0.075692855,-0.17712584,0.17818037,-3.6450286,0.8694232,-0.008019446999999999,279,290531363,0.57036644,-0.3360116,-0.72105247,-0.20460322,1.0625565000000001,2.6974032,0.111605644
280,290548030,0.96391267,-0.07292051,-0.1832156,0.17886353,-1.6122178,2.063482,-0.018047333,280,290548030,0.5680066999999999,-0.33731636,-0.72258955,-0.20359541,2.0094887999999997,1.5196991000000002,-0.16413212
281,290564697,0.96297014,-0.07095635,-0.18912692,0.1785771,0.60328615,2.1669035,0.15855789,281,290564697,0.564938,-0.33982986,-0.72407925,-0.20265888,1.1349081,0.20924310000000002,-0.13537884
282,290581364,0.9619847,-0.07056797,-0.19561715,0.17704515,0.76546293,0.43876845,0.34054090000000004,282,290581364,0.5615349000000001,-0.34257212,-0.7257166,-0.20164123,0.28345063,-0.9558073,0.05084133
283,290598031,0.9609035,-0.07037768,-0.20265663,0.17506269,0.25926965,-0.42410415,0.4838848,283,290598031,0.55855817,-0.3445816,-0.7274567,-0.20020963,0.31032985,-1.1635371,0.28696059999999995
284,290614698,0.9595365,-0.07037628,-0.21078742,0.1729477,-0.01263854,0.16295347,0.5078354,284,290614698,0.5558725,-0.34688675,-0.7288255,-0.19871983,1.1046127000000001,-0.98809856,0.20242405
285,290631365,0.957917,-0.070942014,-0.21975318,0.17051773,0.4925233,-0.039407514,0.38101578,285,290631365,0.5529571999999999,-0.35011563,-0.72974366,-0.19781965,0.7471687,-1.0520595,0.1448574
286,290648032,0.9560668,-0.07212809,-0.22924164,0.16789143,0.66673535,-0.32620475,0.16092014,286,290648032,0.5501047,-0.35337270000000004,-0.73049706,-0.19719903,0.15383369,-1.3594841,0.34614372
287,290664699,0.9538853,-0.074131966,-0.23927724,0.16540603,0.8491724,-0.60474604,0.29375648,287,290664699,0.5474886999999999,-0.35620853,-0.7311593000000001,-0.19692279999999998,0.014682566000000001,-1.7468206000000002,0.5194607
288,290681366,0.9513947,-0.077943884,-0.25016309999999997,0.16185404,0.38482538,-0.11732927,-0.16584587,288,290681366,0.5448947,-0.35869140000000005,-0.73187,-0.19697036,-0.17565906,-2.1428156000000005,0.31527424
289,290698033,0.9485392,-0.08337765,-0.26206928,0.15699252,0.25885236,-0.7784579,-0.022704124,289,290698033,0.542647,-0.36057259999999997,-0.73261696,-0.19696446,0.37875947,-1.6295019,0.5123644
290,290714700,0.94534373,-0.08618426,-0.27423012,0.1539507,1.9239966,-1.0767882,1.3020171999999999,290,290714700,0.5410483,-0.36181778,-0.7333109999999999,-0.19649503,0.46078536,-0.97496486,0.56168747
291,290731367,0.94224143,-0.0857253,-0.2853507,0.15301213,2.5031404,0.46251210000000004,1.3967867,291,290731367,0.53995967,-0.36244440000000006,-0.734023,-0.19567434,0.6707769,-0.27071017,0.38480568
292,290748034,0.9392921000000001,-0.08386673,-0.29606409999999994,0.15181707,1.0953728,0.70034957,0.59011173,292,290748034,0.5386441999999999,-0.36335528,-0.7345586,-0.19560139999999998,1.0068271,-0.023335422999999998,0.25196934
293,290764701,0.9361501,-0.08211771,-0.30707908,0.15029238,0.3146506,0.9031061,-0.012746811,293,290764701,0.53737116,-0.36472607,-0.73475057,-0.19583021,1.2125483999999997,-0.064244665,0.15639591
294,290781368,0.9328763000000001,-0.08061292,-0.31814402,0.1484375,0.29008695,1.1763301000000002,-0.18574524,294,290781368,0.5364378000000001,-0.36616424,-0.73470026,-0.19589458,1.1626265,-0.04715475,0.1605196
295,290798035,0.9294913,-0.07960284,-0.32930925,0.14584407,0.38210770000000005,0.8308273000000002,-0.17580986,295,290798035,0.5356426,-0.36767644,-0.73445904,-0.19614165,0.93926895,-0.09873204,0.22467041
296,290814702,0.9259719000000001,-0.07904939999999999,-0.34048256,0.1428442,0.5642836999999999,0.17855813,-0.019378661999999998,296,290814702,0.5347523000000001,-0.36929277,-0.73412114,-0.19679871,0.31809178,-0.55522275,0.14782238
297,290831369,0.92230093,-0.07859178,-0.35154185,0.14002964,0.6034284000000001,-0.2393573,0.11047554,297,290831369,0.5341338999999999,-0.37052229999999997,-0.73383,-0.19725218,-0.25848222,-0.7875889,0.22530651
298,290848036,0.9185199000000001,-0.07795333,-0.36238816,0.13756853,0.6038641,-0.4767686,0.18355274,298,290848036,0.5338721,-0.37137413,-0.73352903,-0.19747888,-0.5889951,-0.5816899999999999,0.17207813
299,290864703,0.9146421999999998,-0.077098615,-0.37310538,0.13521728,0.2995353,-0.4277786,0.012998581,299,290864703,0.53359276,-0.37205815,-0.73330814,-0.19776592,-0.2016145,-0.13458051,-0.07731056
300,290881370,0.91064215,-0.07632924,-0.38381794,0.13264327,0.07496535,-0.11708531,-0.26761913,300,290881370,0.5331069,-0.37321603,-0.732842,-0.19862038,-0.025300326,0.003770105,-0.09168053
301,290898037,0.90652114,-0.07582676,-0.394467,0.12989007,-0.02488705,-0.07176666,-0.24106312,301,290898037,0.5324601999999999,-0.37472564,-0.73221207,-0.19983262,0.04049876,-0.011830763999999999,-0.026320457000000002
302,290914704,0.90233475,-0.07580884,-0.4049281,0.12682274,0.17838748,0.004278765,-0.19884396,302,290914704,0.53176206,-0.3760853,-0.73170114,-0.20100528,-0.12960666,-0.1618683,0.073200226
303,290931371,0.8981728999999999,-0.07589812,-0.41500926,0.12368531,0.29034513,-0.24944074,0.084508896,303,290931371,0.5312791,-0.37688917,-0.73144895,-0.20169353,-0.48211768,-0.50062567,0.32908154
304,290948038,0.8939693999999999,-0.07576971,-0.42485714,0.12074655,0.53373307,-0.35207614,0.057523727000000004,304,290948038,0.5312574000000001,-0.376731,-0.7315055,-0.20184109,-0.20444708,-0.59894675,0.18513107
305,290964705,0.8897559000000002,-0.07459538,-0.43444932,0.11844635,0.8873254,-0.20869511,0.00437355,305,290964705,0.53154725,-0.37612018,-0.7315958,-0.2018902,0.09550328599999999,-0.37390733,-0.31955147
306,290981372,0.88556457,-0.072719865,-0.44374537,0.11654571,0.8960594000000001,-0.10982231,0.06337643,306,290981372,0.5320226,-0.3756449,-0.73145247,-0.20204182,0.28947118,-0.42907873,-0.15676879999999999
307,290998039,0.88126606,-0.07093095,-0.4530036,0.11459692,0.6109168,-0.09739756,0.22158909,307,290998039,0.5323964,-0.37547338,-0.7310888000000001,-0.20269124,0.18069056,-0.62365603,0.39006424
308,291014706,0.87681633,-0.06926223,-0.46223354,0.11288053,0.67864925,0.23308778,0.29252148,308,291014706,0.53276753,-0.37533176,-0.73064554,-0.20357472,0.46702763,-0.5862566,0.38061047
309,291031373,0.8723799000000001,-0.067658186,-0.47118646,0.111196645,0.7652364,0.72518206,0.110173225,309,291031373,0.53324944,-0.37536582,-0.7300196,-0.20449351,0.6853665,-0.42305103,0.15338993
310,291048040,0.8678659,-0.066497415,-0.4800706,0.10920063,0.5336506,0.72562015,-0.07710743,310,291048040,0.5337024,-0.37568521,-0.7292054,-0.20562777,0.34555954,-0.10129116,-0.14316654
311,291064707,0.8631568000000001,-0.06606416400000001,-0.4890009,0.107143104,0.26336354,0.4387109,-0.19607353,311,291064707,0.5344163000000001,-0.37624308,-0.72800165,-0.20701407,0.45023578,0.18234053,-0.13620758
312,291081374,0.8583863000000002,-0.06575443,-0.49780726,0.105086006,0.2662768,0.482519,-0.13586235,312,291081374,0.53503096,-0.37709844,-0.7266315,-0.20867719,0.48757675,0.17807008,0.012587547
313,291098041,0.85366595,-0.065446004,-0.5063422000000001,0.10293026,0.34247193,0.524461,0.001046181,313,291098041,0.53567654,-0.37793884,-0.72527146,-0.21022598,0.48152468,-0.16170156,0.061686516
314,291114708,0.8489525,-0.06483274,-0.5146909000000001,0.10087422,0.16681309,0.8567033000000002,0.13323212,314,291114708,0.5367044,-0.37826377,-0.72408754,-0.21109939,0.49240150000000005,-0.1380635,0.03067875
315,291131375,0.84437835,-0.06382391,-0.5226565,0.09893359,-0.09464298,0.91295063,0.24545765,315,291131375,0.53806144,-0.37833354,-0.7229696,-0.21135114,0.5242541000000001,0.31798193,0.011599541000000001
316,291148042,0.8398521999999999,-0.06325669,-0.53044546,0.096334204,-0.030982472,0.9558384,-0.04612446,316,291148042,0.53930026,-0.3789071,-0.72156817,-0.21195449,0.53724605,0.57952017,0.18573952
317,291164709,0.8350492,-0.06314063,-0.5385317,0.093249634,0.02114656,0.55150414,-0.13846588,317,291164709,0.5400288000000001,-0.38023758,-0.71989787,-0.21339238,0.40863979999999994,0.2974498,-0.10294151
318,291181376,0.83019507,-0.063037835,-0.54648244,0.09036061,-0.07809632,0.054505225,-0.041646004,318,291181376,0.54058045,-0.38185152,-0.7181388000000001,-0.21503401,-0.19725376,0.014520743000000001,-0.33192540000000004
319,291198043,0.8254218000000001,-0.06274865,-0.55412006,0.08773774,0.11734699,-0.40811643,0.019633293,319,291198043,0.5415234,-0.38296607,-0.7165357,-0.21602507,-0.40662393,-0.21449332,0.076272964
320,291214710,0.8206781999999999,-0.061979257,-0.56154674,0.08553789,0.25524732,-0.86317253,0.21169567,320,291214710,0.542684,-0.38347515,-0.7151101,-0.21693137,-0.5385509,-0.563319,0.35577202
321,291231377,0.81589776,-0.059903245,-0.5688738,0.08432626,0.307793,-0.9612788000000001,0.23846626,321,291231377,0.5439998,-0.38341653,-0.7139385,-0.21759796,0.08960947400000001,-0.36872864,-0.011502266
322,291248044,0.81126624,-0.05654757,-0.57587224,0.08382293,0.31615370000000004,-0.13384369,0.027733802999999998,322,291248044,0.5453244,-0.3835613,-0.7126965999999999,-0.21809706,0.08207485,0.04027234,-0.14530087
323,291264711,0.8066909999999999,-0.05299085,-0.5826154,0.083705485,0.26095092,0.2319345,-0.23388481,323,291264711,0.5467518,-0.3837716,-0.7113366,-0.21859279999999998,-0.3042132,0.27311617,-0.14881706
324,291281378,0.8016763000000001,-0.05059595,-0.5897395999999999,0.08347575,-0.28792983,-0.03509405,-0.2061758,324,291281378,0.54815054,-0.38383448,-0.71004516,-0.21917714,-0.1313979,0.36071414,-0.41256428
325,291298045,0.79601055,-0.047853716,-0.5975195,0.08398462,-0.0665407,0.31512707,-0.21023655,325,291298045,0.5496124,-0.38406107,-0.7086483,-0.21964003,0.59588486,0.20889409,-0.18308926
326,291314712,0.79012066,-0.04381348,-0.6054349,0.085111916,0.48595828,0.39569790000000005,-0.24483013,326,291314712,0.5510293,-0.38459015,-0.7070864,-0.2201968,0.5404749,-0.2545551,0.23449898
327,291331379,0.78437483,-0.038839974,-0.6129594,0.08679857,1.1041795,0.40748495,-0.008890152,327,291331379,0.5528281999999999,-0.38452196,-0.70568705,-0.2202962,0.16533878,-0.38364324,0.1600666
328,291348046,0.77854246,-0.033767063,-0.6203764,0.08871459,1.0030967,-0.093161315,0.20425510000000002,328,291348046,0.55520463,-0.38357562,-0.7045228,-0.21969531,-0.5752457,-0.36287909999999995,0.1387968
329,291364713,0.7725901,-0.028401352,-0.62762874,0.09157486,0.28082213,-0.52624094,0.22750092,329,291364713,0.5579876,-0.38164604,-0.7037422,-0.21850382,-0.95008427,-0.061964944,-0.17430401
330,291381380,0.7662019,-0.023832455,-0.6351675999999999,0.0945227,-1.0799203000000002,-1.0066509,0.61691856,330,291381380,0.5606969,-0.379443,-0.703226,-0.21706215,-0.48427993,0.29482085,-0.25278568
331,291398047,0.75920993,-0.02164728,-0.64333946,0.09618693,0.07074810599999999,-1.1218063,-0.017698288,331,291398047,0.56269205,-0.37827826,-0.7023805999999999,-0.21666929,-0.34072226,0.033805218,-0.24683475
332,291414714,0.7525213000000001,-0.019085627,-0.650889,0.09847093,0.6267308000000001,-0.5274089,-0.43692207,332,291414714,0.5643179,-0.37749064,-0.70147103,-0.21676125,-0.6210446,-0.4035692,-0.33509064
333,291431381,0.74677175,-0.015514808,-0.6571343000000001,0.101347536,0.20220904,0.2131777,0.040940285,333,291431381,0.5664197,-0.37566468,-0.70110595,-0.21562962,-0.61581147,0.15043762,-0.24227047
334,291448048,0.7417569,-0.012614565,-0.6625701999999999,0.10316996,-0.22343652,0.64862555,0.54333305,334,291448048,0.5684445,-0.37382144,-0.70083994,-0.21436617,-0.26667240000000003,1.0350325,-0.21412277
335,291464715,0.7372406,-0.011318324,-0.6676167,0.103159264,-1.0555371999999998,0.25573862,0.59914017,335,291464715,0.56944054,-0.37341490000000005,-0.7002175,-0.21446466,-0.6556453000000001,1.3901748999999999,-0.47437572
336,291481382,0.7330829000000001,-0.011832821,-0.6724073,0.10160487,-1.5634016000000002,-0.4297364000000001,0.25058842,336,291481382,0.56950325,-0.37413028,-0.69952637,-0.21530473,-1.3555785,1.0335644,-0.5730152
337,291498049,0.7289595999999999,-0.012937428,-0.67707837,0.10010537,-1.6748452,-0.76499116,0.12359905,337,291498049,0.5692742,-0.37478006,-0.6992501,-0.21567744,-1.4833465000000001,0.5490218000000001,-0.24288177
338,291514716,0.72455376,-0.013723738999999999,-0.6817966,0.099962965,-0.56151414,-0.7196531,0.45592785,338,291514716,0.5690695,-0.37503123,-0.6993642,-0.21541126,-0.90952563,0.34681612,0.027680397000000002
339,291531383,0.720446,-0.013693071000000001,-0.6860574,0.10050395,-0.46490383,-0.3365175,0.36886978,339,291531383,0.5687728,-0.37504740000000003,-0.69979686,-0.21476021,-0.37313744,0.53313214,-0.18326378
340,291548050,0.7167013000000001,-0.013666389,-0.6899469,0.100655004,-0.095256306,0.2933033,0.31519318,340,291548050,0.56824917,-0.37530002,-0.70025176,-0.21422178,0.035403557,0.62299377,-0.16407108
341,291564717,0.7133951,-0.014047411999999999,-0.69345653,0.099969506,0.17732489,0.4549479,0.32073402,341,291564717,0.5674441,-0.37605414,-0.70050865,-0.21419339,0.20742181,0.5196486,0.004384995
342,291581384,0.71042764,-0.014473088,-0.6965838000000001,0.099296674,0.29460573,0.29504734,0.503108,342,291581384,0.5666125,-0.3770383,-0.70058846,-0.21440394,0.49956888,0.06891552,0.21983337
343,291598051,0.7076989,-0.014583088999999999,-0.6994094,0.0989027,0.7674514,0.49485478,0.29865646,343,291598051,0.5659008000000001,-0.37802657,-0.7005385000000001,-0.21470648,0.40870103,-0.5508609,0.19587994
344,291614718,0.70500755,-0.014793701999999999,-0.70219195,0.098376326,1.1585261999999998,0.3817859,0.25430012,344,291614718,0.56543267,-0.37876612,-0.700435,-0.21497372,0.35264266,-1.0409267,0.1254139
345,291631385,0.7024949,-0.015002151000000002,-0.7047755,0.09784216,1.2793153999999998,0.14922899,0.23579979,345,291631385,0.5652688,-0.37914726,-0.7003155,-0.21512215,0.21634422,-1.0376421,0.10096359
346,291648052,0.70031506,-0.015471708,-0.7069969,0.09736838,0.97365505,-0.012558383000000001,0.3158493,346,291648052,0.5652143000000001,-0.3795989,-0.7000016,-0.21549037,0.38206524,-0.65341556,0.0874567
347,291664719,0.6981831000000001,-0.01634737,-0.7091905,0.09658027400000001,0.73270184,0.06022772,0.415987,347,291664719,0.5650611999999999,-0.38054746,-0.6993409,-0.21636242,0.38730505,-0.5761248000000001,0.15835476
348,291681386,0.6962822,-0.017155161000000002,-0.7111819,0.09551286,0.83111995,0.02676069,0.41908549999999994,348,291681386,0.5649149,-0.3814385,-0.6986164,-0.21751274,0.31832940000000004,-0.6136100999999999,0.08862591
349,291698053,0.69454217,-0.017493524,-0.7129956000000001,0.094596,0.60669106,0.11553726,0.21132849999999997,349,291698053,0.56501687,-0.38181353,-0.6980258,-0.21848394,0.039990492,-0.5091479999999999,-0.06999874
350,291714720,0.6931928,-0.017631363,-0.7143723000000001,0.09408029,0.30534193,0.17158575,0.054930687,350,291714720,0.56537753,-0.38169459,-0.6976131999999999,-0.21907552,-0.20741645,-0.13808005,-0.23644733
351,291731387,0.69227344,-0.018027341000000002,-0.7153251,0.09353225,-0.43426242,0.11084319,0.20655537,351,291731387,0.5656770999999999,-0.38150388,-0.6973538,-0.21946007,-0.36058226,0.8193224,-0.51239204
352,291748054,0.69172883,-0.01942131,-0.71598077,0.092257306,-1.2031466,-0.10627846,0.5198908,352,291748054,0.56531566,-0.3822775,-0.6969776999999999,-0.2202386,-0.45744297,1.3248351999999999,-0.49456120000000003
353,291764721,0.69133145,-0.021097768,-0.7165444999999999,0.090472065,-1.1146381,-0.01947738,0.29097843,353,291764721,0.56441736,-0.38356894,-0.6966609,-0.2212973,-0.6920828,1.1195818000000002,-0.14477253
354,291781388,0.6911833000000001,-0.02166793,-0.7167924,0.08950111,-0.6658263000000001,-0.45195177,0.002225876,354,291781388,0.5636151,-0.38474400000000003,-0.69647187,-0.22189651,-0.7863920999999999,0.75329375,-0.16528606
355,291798055,0.6916783000000001,-0.02144087,-0.71629953,0.08967789,-0.5110172000000001,-0.5580138000000001,0.121977806,355,291798055,0.56299776,-0.38518015,-0.69682914,-0.22158448,-0.8018916,0.4038138,-0.42764187
356,291814722,0.6924299,-0.020789538,-0.7154911,0.090481095,-0.5393077,-0.47245413,0.073498726,356,291814722,0.5624517,-0.38513872,-0.6976062,-0.22059639,-0.5327257,0.3122402,-0.16321945
357,291831389,0.69290495,-0.020135453,-0.71491593,0.09153257,-0.25217268,0.000102,0.40662003,357,291831389,0.5618702,-0.3850876,-0.6983995,-0.21965486,0.19370168,0.15692241,0.21653652
358,291848056,0.69305813,-0.019304873,-0.7146158,0.09288628,0.5232237,0.50999564,0.2874565,358,291848056,0.5611373000000001,-0.38553035,-0.6988329000000001,-0.21937236,0.7801999,-0.21957108,0.36250782
359,291864723,0.6931664000000001,-0.018563552,-0.714388,0.09397534,1.0305499,0.6675849,0.3070717,359,291864723,0.56056696,-0.38607776,-0.69899064,-0.21936603,0.7339763000000001,-0.83805704,0.21714973
360,291881390,0.69324434,-0.017935661999999998,-0.71423715,0.09466555,1.3902712,0.5588281,0.197505,360,291881390,0.56046635,-0.38603926,-0.6991782,-0.21909305,0.66823757,-1.0730823999999999,0.22298813
361,291898057,0.6935131999999999,-0.017534457,-0.7139255,0.09512232,1.1718583,0.23021692,0.32526493,361,291898057,0.56078506,-0.38561288,-0.69927114,-0.21873192,0.6011970999999999,-0.92794555,0.07011318
362,291914724,0.69371074,-0.017293751,-0.7136796,0.09557061,1.0027926999999999,0.23738602,0.1298685,362,291914724,0.56116074,-0.38533607,-0.69914126,-0.21867089999999997,0.51010597,-0.7585166,0.1373272
363,291931391,0.6939868,-0.017529713,-0.71339715,0.09563133,0.75958866,0.15164658,0.22804259999999998,363,291931391,0.5613374,-0.3855493,-0.69870144,-0.2192469,0.36815712,-0.5811776999999999,0.14350796
364,291948058,0.6941651,-0.018041401999999998,-0.71326303,0.09524173,0.59142065,0.18108985,0.21077728,364,291948058,0.5615018,-0.38590646,-0.69808435,-0.22016153,0.22934888,-0.47915545,0.14490223
365,291964725,0.69438535,-0.018723672,-0.71314704,0.094369195,0.37325993,0.15967692,0.20061016,365,291964725,0.56168747,-0.38621923,-0.6974155,-0.22125632,0.289015,-0.24829137,-0.052882195
366,291981392,0.69470525,-0.019330554,-0.7129526999999999,0.09335564,0.20584425,0.19035038,0.21793175,366,291981392,0.5619298,-0.38645548,-0.6967408,-0.2223514,0.1457157,-0.055265144,-0.018248558
367,291998059,0.69529754,-0.019997366000000003,-0.7125034,0.09222859,0.08903549,0.029988335,0.29553318,367,291998059,0.5622479,-0.3865584,-0.6960963000000001,-0.22338495,-0.12440597,0.11781144,-0.046862602
368,292014726,0.6961509,-0.020514013,-0.71178323,0.091233045,-0.29359007,-0.22622195,0.2545929,368,292014726,0.56261945,-0.3864921,-0.6955885,-0.22414453,-0.37579409999999996,0.28525674,-0.14979649
369,292031393,0.6970016,-0.020829618,-0.7110074000000001,0.0907158,-0.43286679999999994,-0.39185765,0.21918964,369,292031393,0.5630443,-0.38629302,-0.69519603,-0.22463745,-0.35098597,0.27872044,-0.025530815
370,292048060,0.6976974,-0.02059602,-0.7102937,0.09100976599999999,-0.41540197,-0.38681498,0.19159889,370,292048060,0.56358963,-0.3858149,-0.6949609,-0.22481863,-0.18108259,0.17657076,-0.025047302
371,292064727,0.6982887,-0.019557243000000002,-0.7095967,0.09213382,-0.06398819,-0.21357246,0.0934248,371,292064727,0.5643066999999999,-0.3850657,-0.6948481,-0.22465368,-0.12089458,0.006697565999999999,-0.050866127000000004
372,292081394,0.69906783,-0.01808085,-0.7086448000000001,0.093838505,0.051788844,-0.006675815,0.13912582,372,292081394,0.56518954,-0.3841007,-0.6948201999999999,-0.22417165,-0.12881632,-0.07889449,-0.06684971
373,292098061,0.6999506999999999,-0.016746016000000002,-0.7075963000000001,0.09540496,0.000907,0.094351985,0.24026203,373,292098061,0.5661626999999999,-0.38297877,-0.694846,-0.22355536,-0.13321418,-0.0022585979999999997,-0.008489609
374,292114728,0.70079774,-0.01573354,-0.70663565,0.09647184,-0.087718554,0.07694989999999999,0.2808962,374,292114728,0.5670218,-0.38228533,-0.6946451,-0.22318918,0.002585151,0.18515836,0.056372643
375,292131395,0.70182693,-0.014780435,-0.7055258000000001,0.09726030000000001,-0.13787262,-0.025558084,0.14512539,375,292131395,0.5676886,-0.38188797,-0.69434077,-0.22312099,-0.07542758,0.40379527,-0.20395851
376,292148062,0.7030804,-0.01383173,-0.7041758,0.09812688,-0.2631664,0.054432407,0.19648552,376,292148062,0.5680767,-0.38177866,-0.6940733,-0.22315231,-0.08887099,0.3939968,-0.24108696
377,292164729,0.70454437,-0.012900072,-0.70260185,0.09903096,-0.15570359,0.1181009,0.2834797,377,292164729,0.568389,-0.3815582,-0.69395936,-0.22308813,-0.257326,0.24399456,-0.017569542
378,292181396,0.7062574,-0.012129836000000001,-0.7008187,0.099559635,-0.12768044,-0.0017214970000000002,0.27180672,378,292181396,0.5686996999999999,-0.38109246,-0.69402474,-0.22288963,-0.22693226,0.13428971,-0.074560165
379,292198063,0.7080105999999999,-0.011258865,-0.69899064,0.10006012,-0.1939185,0.09906173,0.1543312,379,292198063,0.569017,-0.38043484,-0.6942566,-0.22248037,-0.2031031,0.124781474,-0.1469183
380,292214730,0.709816,-0.010701301000000002,-0.6971215999999999,0.10036884,0.003111747,0.15291506,0.23759651,380,292214730,0.569314,-0.37985647,-0.69445175,-0.22209956,0.19812770000000002,0.012726157,0.034708977
381,292231397,0.7114678000000001,-0.010543957,-0.6954121,0.10054903,0.41809529999999995,0.48477948,0.22137928,381,292231397,0.5695173000000001,-0.3796467,-0.6943803000000001,-0.22216035,0.6452182,-0.26438049999999996,0.21311092
382,292248064,0.712987,-0.010506093999999999,-0.69381475,0.10082724,0.8459058,0.65985984,0.17710686,382,292248064,0.5696751999999999,-0.37975064,-0.69404304,-0.22263141,0.6800509,-0.45729935,0.06326198599999999
383,292264731,0.7146766999999999,-0.010893884,-0.6921037,0.10058238,0.99009174,0.22082052,0.13142586,383,292264731,0.5698803000000001,-0.38001123,-0.69349724,-0.22336140000000002,0.38674736,-0.7602867,-0.012282372
384,292281398,0.71635485,-0.011346051000000001,-0.69041497,0.10019992,0.65844995,-0.10284802,0.21672726,384,292281398,0.57038337,-0.3797833,-0.69303113,-0.22391132,0.06871235,-0.71054906,0.088030815
385,292298065,0.7179493,-0.011692109,-0.6888137,0.09976734,0.52822953,-0.05699044,0.25447655,385,292298065,0.5712151999999999,-0.37914842,-0.69257855,-0.22426644,0.11904881,-0.43425640000000004,0.13328743
386,292314732,0.7195459,-0.011827613999999998,-0.6871933000000001,0.099423155,0.4170497,0.037448067,0.25950432,386,292314732,0.57212687,-0.37854218,-0.691991,-0.2247794,0.26866794,-0.36231518,0.098674774
387,292331399,0.72121596,-0.011963228999999999,-0.68546665,0.09922604,0.58854717,0.20844567,0.14658737,387,292331399,0.5729186,-0.37838215,-0.6911122,-0.22573394,0.45641434,-0.47420475,0.043058395
388,292348066,0.7227579000000001,-0.012383703999999999,-0.6838818,0.09888951,0.8782164000000001,0.16904171,0.18658924,388,292348066,0.5736773000000001,-0.3785307,-0.6899393,-0.22714172,0.47430790000000006,-0.7681995,0.15968227
389,292364733,0.72424155,-0.012829324,-0.6823899,0.09828247,0.87941974,0.4243338,0.11999225599999999,389,292364733,0.5746271,-0.3785196,-0.6886694999999999,-0.22860788,0.5205923,-0.5135724,-0.000877
390,292381400,0.7260232,-0.013357333999999998,-0.6805886,0.09755387,0.6665151999999999,0.5739373000000001,0.20710373,390,292381400,0.57573247,-0.37867257,-0.68713295,-0.23019223,0.5883156,0.09745321400000001,-0.003351212
391,292398067,0.72827965,-0.014401666,-0.67835426,0.09613953,0.21136414,0.6702916,0.34922790000000004,391,292398067,0.57655424,-0.37947527,-0.6852524999999999,-0.23240827,0.34129936,0.2876881,-0.09301472
392,292414734,0.73084164,-0.016205506,-0.67587876,0.09381648,-0.046212196,0.3540837,0.38169956,392,292414734,0.57708305,-0.3805692,-0.6833401,-0.23492405,-0.13401926,0.07526106,0.035282135
393,292431401,0.73324007,-0.018607133999999997,-0.67357314,0.09120159,-0.04815229,-0.19689763,0.24523354,393,292431401,0.5778024,-0.38111308,-0.68170273,-0.2370221,-0.5116026,-0.1594481,-0.009633064
394,292448068,0.73563355,-0.0206722,-0.671144,0.08937361,-0.04638877,-0.34199673,-0.029810905,394,292448068,0.5789305,-0.38095367,-0.6803333,-0.23845592,-0.1386491,-0.20642203,-0.053708075999999993
395,292464735,0.73774785,-0.022152372000000004,-0.6688801,0.0885592,0.020861357,0.06249823,0.027469635,395,292464735,0.5802607,-0.38077150000000004,-0.6788481,-0.2397433,0.32358864,0.24634379,0.055711746
396,292481402,0.7399014,-0.023142084,-0.66649354,0.088332504,-0.24132963,0.4433304,0.31903362,396,292481402,0.58134395,-0.38124096,-0.6770829,-0.24135904,0.21636054,0.62544113,-0.07489014
397,292498069,0.74225885,-0.024501234,-0.66392326,0.08753919,-0.35078794,0.36101255,0.27705956,397,292498069,0.5820486999999999,-0.38208872,-0.67533636,-0.24320595,-0.38052723,0.59781426,-0.28648758
398,292514736,0.74480104,-0.026128737000000003,-0.66116107,0.086373955,-0.40377036,-0.08375285,0.22152328,398,292514736,0.58289963,-0.38241938,-0.6740052,-0.24433814,-0.7136764,0.20785633,0.01747322
399,292531403,0.74752843,-0.0274245,-0.65810966,0.08571176,-0.27119899999999997,-0.43214840000000004,0.12686062,399,292531403,0.583974,-0.38214767,-0.67300695,-0.24494933,-0.36551207,0.22609006,-0.040416718
400,292548070,0.7501624,-0.028337905,-0.65505433,0.08580735,-0.3243638,-0.55524576,0.11956215,400,292548070,0.58487594,-0.3820443,-0.67206526,-0.24554314,-0.12717664,0.086551145,-0.16567421
401,292564737,0.75249755,-0.029069541,-0.6523078,0.08603844,-0.43420208,-0.3709814,0.19431591,401,292564737,0.5856956,-0.38201123,-0.6711801,-0.24606101,-0.38643109999999997,0.36642826,-0.118159294
402,292581404,0.7549701,-0.02907474,-0.6493909999999999,0.086441055,-0.74418324,-0.13253663,0.19602871,402,292581404,0.5863639,-0.3819407,-0.6705273,-0.2463589,-0.6462256,1.0566322,-0.33647442
403,292598071,0.75817543,-0.0288327,-0.64562726,0.086659595,-1.2631267,-0.023103137000000003,0.48623562,403,292598071,0.5864598000000001,-0.38254806,-0.66993296,-0.24680461,-0.7633468000000001,1.5589285,-0.18264389
404,292614738,0.7612286,-0.030174327999999997,-0.6420728,0.0858431,-1.7282996,-0.4646992999999999,0.8710966,404,292614738,0.5858448,-0.3841155,-0.66917974,-0.24787173,-0.4029733,0.90902174,0.15949726
405,292631405,0.7632408,-0.03249629,-0.6397414,0.08452230000000001,0.13858339,-0.3773985,0.03719139,405,292631405,0.585382,-0.3853011,-0.6685133000000001,-0.24892123,-0.36476576,-0.7778851999999999,0.11024952
406,292648072,0.76508474,-0.032306466,-0.6373972,0.085627146,0.9157110999999999,-0.35897166,-0.6568041,406,292648072,0.5854595,-0.38529736,-0.6683741999999999,-0.24911852,-0.22033304,-1.1513111999999999,-0.3589716
407,292664739,0.767439,-0.03160553,-0.6343201,0.087647006,1.0619646,-0.048250705,-0.0446949,407,292664739,0.5860473,-0.38458946,-0.6685267,-0.24841991,-0.06958182,-0.44864170000000003,0.008112906999999999
408,292681406,0.7708031999999999,-0.031432327,-0.63010275,0.08860384,0.52818525,0.29082070000000004,0.63795185,408,292681406,0.5865376,-0.38401690000000005,-0.6686437,-0.24783252,-0.50556886,0.8777935,-0.044830322
409,292698073,0.77550274,-0.03210192,-0.6243663,0.08796349,-0.9530959000000001,-0.02843191,0.9701328000000001,409,292698073,0.5861585,-0.38425773,-0.6688214,-0.24787688,-1.1045586,1.4082097,-0.22217178
410,292714740,0.7797929,-0.034512087999999996,-0.6190361999999999,0.08678725,-1.1514913999999998,-0.7447348000000001,0.8115081999999999,410,292714740,0.585494,-0.38475594,-0.6689743,-0.24826205,-0.5150328,-0.23982315,0.47639942
411,292731407,0.78180677,-0.037259467000000004,-0.61648875,0.08565616,-0.31204823,-1.3547216999999998,-0.7515248999999999,411,292731407,0.5853474,-0.3841283,-0.6693665,-0.24852231,0.105213135,-1.5788741000000002,-0.1421566
412,292748074,0.7825297,-0.03651139,-0.6152823000000001,0.08802075,0.8622905999999999,-0.20510818,-0.8321152,412,292748074,0.58594203,-0.38273484,-0.669929,-0.24775374,1.263449,-1.2925242000000001,-0.30297184
413,292764741,0.7838082,-0.034139045,-0.61321837,0.09191421400000001,2.3194141,1.3476806000000001,0.24546528,413,292764741,0.5869807,-0.38146496,-0.6700702,-0.24687076,1.5532296,-0.6584483,0.63019276
414,292781408,0.7861975999999999,-0.033536162,-0.60998845,0.0932123,1.6435181,1.8339919999999998,0.56377697,414,292781408,0.58769804,-0.38107333,-0.66960245,-0.24703714,0.83920914,0.22700389,-0.030047417000000003
415,292798075,0.7892366999999999,-0.035590752999999996,-0.6061489999999999,0.09180318,0.5225728000000001,0.62566495,0.37492466,415,292798075,0.5880108000000001,-0.3814037,-0.6688286999999999,-0.24787761,-0.53415483,0.33495852,0.06209755
416,292814742,0.7923125,-0.038382806,-0.60227555,0.08965285,-0.7094842,-1.2598493999999998,0.41070270000000003,416,292814742,0.58858556,-0.38064733,-0.66861665,-0.24824846,-1.494715,0.1501864,0.21359825
417,292831409,0.79493296,-0.039260115,-0.59878045,0.089488044,-1.314257,-2.1740742,0.452981,417,292831409,0.5893497,-0.37885624,-0.6691039000000001,-0.24786235,-1.4063616,-0.10427349,-0.15055084
418,292848076,0.7975744,-0.037035014,-0.5950357,0.091878764,-1.1546693000000001,-1.5007105,0.16717815,418,292848076,0.59043276,-0.37636882,-0.6700706,-0.24645893,-1.1724926000000002,0.07615042,-0.19351864
419,292864743,0.7998888000000001,-0.034827527000000004,-0.5915931,0.09480602,-0.35868958,-0.43423378,-0.18595123,419,292864743,0.5914246,-0.3739272,-0.6710699999999999,-0.24507406,-0.55703026,-0.009806184,-0.3258028
420,292881410,0.8021595,-0.034762047000000004,-0.5882357,0.09652045,-0.050347187,0.20787429999999998,-0.059235573,420,292881410,0.5918369000000001,-0.37240937,-0.671796,-0.24439973,0.11651149400000001,0.41259855,-0.17474747
421,292898077,0.8044519,-0.03669539,-0.58494496,0.096725725,-0.051979724000000005,0.4070207,0.043265343,421,292898077,0.59139526,-0.3721178,-0.67217636,-0.24486697,-0.20934626,0.9806103999999999,-0.24037075
422,292914744,0.80727774,-0.039375484,-0.5809458000000001,0.09622876,-0.44790834,-0.5529114,0.28919506,422,292914744,0.590291,-0.37233907,-0.672711,-0.24572529,-1.3272867,0.7493434,-0.23924065
423,292931411,0.8105161999999999,-0.04141533,-0.5763043999999999,0.09605870400000001,-1.5960908,-0.9227565999999999,0.5801611,423,292931411,0.5888912,-0.37233132,-0.67373985,-0.24627649999999998,-1.168743,0.63587165,-0.17834473
424,292948078,0.81298894,-0.043519054,-0.5726614000000001,0.096020125,-1.3280957,-0.38368747,-0.049137115,424,292948078,0.58717406,-0.37340403,-0.6742946,-0.24723224,0.55237025,0.6496101,-0.30591965
425,292964745,0.81499004,-0.04423362,-0.5695256,0.097368866,-0.042996295,1.050365,-0.53161526,425,292964745,0.5849206,-0.3756711,-0.67438334,-0.24889185,0.5211222,0.22608805,-0.051315308
426,292981412,0.81727463,-0.04623072599999999,-0.56601363,0.09776967,0.34948665,0.509069,0.010714531000000001,426,292981412,0.58263445,-0.37765172,-0.67467946,-0.25044894,-0.5606151999999999,0.29029885,-0.09052563
427,292998079,0.8196079,-0.04950318,-0.5624248000000001,0.097346984,-0.53293043,-0.8493271000000001,0.51515675,427,292998079,0.5805431999999999,-0.37869644,-0.6756408,-0.25113526,-1.9211881999999998,0.22219802,0.008785248
428,293014746,0.8218310999999999,-0.052594613,-0.55880284,0.09783864,-0.34282684,-1.9719663,0.5314121,428,293014746,0.5791097,-0.37764746,-0.6777289000000001,-0.25039682,-1.8979146,-0.17408285,0.29561709999999997
429,293031413,0.82434624,-0.052367564000000005,-0.55459577,0.10069957,-0.66224205,-1.8196261000000002,0.4204054,429,293031413,0.5782903,-0.37490138,-0.6805899999999999,-0.24865101,-0.69161123,-0.46988859999999993,-0.093512535
430,293048080,0.8268566999999999,-0.04907717,-0.55029494,0.10526493,0.12121331,-0.39519109999999996,-0.30814552,430,293048080,0.5777852,-0.37199829999999995,-0.683388,-0.24650194,0.884367,-0.16750710000000002,-0.3457079
431,293064747,0.82950616,-0.04494672,-0.5456908,0.11012152,0.91048986,1.2722698000000001,-0.4298563,431,293064747,0.5768384,-0.37039190000000005,-0.6854384,-0.24544345,1.140942,-0.23917139,-0.005067825
432,293081414,0.83226293,-0.04328544,-0.5410005999999999,0.11308816,0.6619752,1.1392685,0.012638092,432,293081414,0.5753020000000001,-0.37059405,-0.68660134,-0.24549319,-0.33901507,-0.033240847000000004,-0.11965084
433,293098081,0.8345476999999999,-0.04504384,-0.5370924,0.11418669,-0.18358639,-0.2839735,0.17700863,433,293098081,0.57361835,-0.3705834,-0.68796206,-0.24563989,-1.57871,-0.054450214000000004,-0.15041828
434,293114748,0.83639896,-0.047098033,-0.533611,0.116118684,0.12926649,-1.520383,-0.20085335,434,293114748,0.5725521,-0.36855364,-0.69026273,-0.24472547,-0.9073084000000001,-0.5967302,0.21477318
435,293131415,0.83871263,-0.04594397,-0.52925533,0.11976975,0.19012414,-1.629138,0.58509064,435,293131415,0.57190543,-0.3650584,-0.6932577,-0.24300411,-0.10741675,-0.47919524,0.24006939
436,293148082,0.8414396999999999,-0.041679937,-0.52408004,0.124851696,-0.39888927,-0.4124102,0.917861,436,293148082,0.5711996,-0.36139637,-0.69652325,-0.24078977,0.149945,0.019177187,-0.16831684
437,293164749,0.8441125,-0.03721447,-0.51893556,0.12961826,-0.5582236,0.7821073000000001,0.6602144,437,293164749,0.57012403,-0.3592042,-0.6991755999999999,-0.23892473,-0.6798436999999999,0.44520283,-0.10284519
438,293181416,0.8465775,-0.03595237,-0.5142064000000001,0.13270926,-1.0279287,0.35422298,-0.5034456,438,293181416,0.5681999,-0.35738254,-0.70222574,-0.23728965,-2.1661669999999997,1.7583953,-0.9972038000000001
439,293198083,0.848833,-0.036692485,-0.5096267,0.13573033,-0.5289383000000001,0.54802215,-1.4912633999999998,439,293198083,0.5665916,-0.3553725,-0.705206,-0.23530711,0.07796445,1.4082801,-0.5455284
440,293214750,0.8514113000000001,-0.03627842,-0.5044541,0.13897659,-0.67435735,-0.19969352,-0.46301556,440,293214750,0.5648201,-0.35365236,-0.7079158,-0.2340181,1.7237607,0.8765874,0.2929039
441,293231417,0.8545482,-0.033528753,-0.49820986,0.14288393,-0.38632694,0.48847684,0.72238827,441,293231417,0.5621430000000001,-0.35334570000000004,-0.710284,-0.23375113,0.9115654000000001,0.18603553,-0.28315926
442,293248084,0.8582506,-0.030354405,-0.49109033,0.14601596,-0.61115146,0.3375844,0.932333,442,293248084,0.55906874,-0.35343966,-0.71292394,-0.2329433,-1.8258693,-0.029272374,-0.55195427
443,293264751,0.8621302,-0.028377408,-0.48354134,0.14872661,-0.82132185,-0.094962664,-0.5595131,443,293264751,0.5562869,-0.35173148,-0.7168125,-0.23024005,-3.7630748999999994,0.76816934,-0.9441738000000002
444,293281418,0.865424,-0.02878158,-0.47682244,0.15119216,-0.5613975,-1.2658583,-1.0738211000000002,444,293281418,0.5545675999999999,-0.34794796,-0.72136503,-0.22587685,-0.54939526,0.60901815,-0.22616673
445,293298085,0.86909527,-0.027696477,-0.46879187,0.15539072,-0.53251445,0.122754045,-0.67891026,445,293298085,0.55245787,-0.3443541,-0.7257471,-0.22249195,2.6246259999999997,0.3518913,0.3801365
446,293314752,0.8731844999999999,-0.024844404,-0.45963004,0.16024248,0.35500383,2.4141479,0.5044794,446,293314752,0.5494899999999999,-0.3433152,-0.7290613,-0.22060344,2.802548,0.4697802,-0.12972546
447,293331419,0.8776845999999999,-0.023663936,-0.45011840000000003,0.16281591,1.4601993999999998,2.0730312,0.30486012,447,293331419,0.5457849,-0.3445377,-0.73160887,-0.21945804,-0.64322156,0.66657007,-0.5409775
448,293348086,0.88239646,-0.02479635,-0.44018838,0.16432224,1.5444688999999998,-0.2256456,-0.5356121,448,293348086,0.54188716,-0.3452705,-0.73449916,-0.21830833,-2.9628522,-0.6187469,-1.0603399
449,293364753,0.8865947,-0.026515692,-0.43056327,0.16693729999999998,0.2263585,-3.7563405,-0.2963667,449,293364753,0.53874743,-0.343462,-0.7381776999999999,-0.21651676,-2.4077268,-2.2454987,0.38619804
450,293381420,0.89007807,-0.025086332000000003,-0.4213757000000001,0.17198870000000002,0.42232817,-3.3312627999999997,-0.08982754,450,293381420,0.5369829,-0.33824867,-0.7428878000000001,-0.21296908,0.46900886,-2.061331,0.84786797
451,293398087,0.8939065999999999,-0.019923093,-0.41062522,0.17868115,1.296176,1.6227186000000002,0.22497082,451,293398087,0.53612566,-0.33255628,-0.7473003,-0.20861129999999997,2.7024052000000003,-0.36724898,0.4760008
452,293414754,0.89861345,-0.015547051999999999,-0.39803964,0.18390954,2.3550307999999998,3.9298427000000005,0.22476482,452,293414754,0.53455997,-0.32978624,-0.7503565,-0.20604087,1.8661025000000002,1.1656889,-0.5108309
453,293431421,0.9035496,-0.014783373,-0.38522282,0.18705335,0.8402158000000002,2.6126132,-0.084303856,453,293431421,0.5318944,-0.32987276,-0.7523299,-0.20560396,0.6405678000000001,0.75152296,-0.59493923
454,293448088,0.90790784,-0.017005902,-0.37406084,0.18841071,0.2928878,-0.9071655000000001,-0.22120571,454,293448088,0.5285609,-0.33077487,-0.7539846,-0.20668693,-1.0489614999999999,-0.9889657,0.19779968
455,293464755,0.9116770000000001,-0.018388862,-0.36328492,0.19114634,0.19089481,-1.8042728,-0.14023876,455,293464755,0.5262958000000001,-0.32882643,-0.7566175,-0.20595337,-0.8884774,-2.1183498,0.8309716999999999
456,293481422,0.9152724,-0.017622402,-0.35173154,0.19559318,0.6435460999999999,1.2153778999999998,-0.27226353,456,293481422,0.526496,-0.32369938,-0.7596602,-0.20233087,2.8781192000000004,-0.912226,1.1297035
457,293498089,0.9192790999999999,-0.016820928,-0.33920792,0.1989648,1.6504308,4.657879,0.13095379,457,293498089,0.52713823,-0.32022488,-0.76145023,-0.19943827,4.1853622999999995,1.1878577,-0.010066986
458,293514756,0.92337096,-0.018964553000000002,-0.32728976,0.19978483,1.9279302,3.5310980000000005,0.5375861999999999,458,293514756,0.5262954000000001,-0.32090488,-0.76167464,-0.1997139,2.0145513999999998,0.88294077,-0.2130909
459,293531423,0.92703915,-0.02278394,-0.3167072,0.19945389,1.4095938000000001,-0.7313348000000001,1.2426796,459,293531423,0.5242273000000001,-0.32331124,-0.7613850000000001,-0.20235966,-0.84130186,-1.1711584,0.6145506
460,293548090,0.9304689,-0.02531086,-0.30553433,0.2006036,1.1479675,-1.8149755,0.13537407,460,293548090,0.5230117,-0.32328409999999996,-0.76192486,-0.20351282,-1.0478417,-2.603898,0.75154686
461,293564757,0.93358713,-0.025565159,-0.29357904,0.20390941,0.19600767,0.0927164,-0.018914223,461,293564757,0.524475,-0.31951383,-0.76312834,-0.20117871,2.0879438,-1.3606468,1.0170231
462,293581424,0.93671024,-0.025421396000000002,-0.28150916,0.20660587,1.152735,2.7201157000000005,0.38358212,462,293581424,0.5266699,-0.31679726,-0.7632653,-0.19921075,3.4072862,0.45901236,0.37894344
463,293598091,0.94006664,-0.026902457999999997,-0.26977974,0.20682262,1.7054151999999998,1.2451832,0.81056213,463,293598091,0.52680975,-0.31798705,-0.762295,-0.20065571,1.0023963,0.48523232,-0.000429
464,293614758,0.94318753,-0.028571274,-0.25864655,0.20661247,0.06756819,-0.9635676,0.49738216,464,293614758,0.52596015,-0.32015237,-0.76119846,-0.20358239,-0.7820838999999999,-0.25819780000000003,0.13866520000000002
465,293631425,0.9459118000000001,-0.029611286,-0.2480658,0.20698628,-0.70888484,-1.7144811000000002,0.089756966,465,293631425,0.525818,-0.3209195,-0.7605611,-0.205119,-0.9394938,-0.7806352,0.021965027
466,293648092,0.94831663,-0.029621137000000002,-0.2378368,0.2079848,-1.5614593,0.29298714,-0.12270355,466,293648092,0.52685905,-0.3200108,-0.7603062,-0.20481208,0.82994586,0.31416634,0.14939785
467,293664759,0.95048046,-0.031025685,-0.22858222,0.20827979,-0.8940059000000001,1.4210329,0.07889366,467,293664759,0.5273846999999999,-0.32052379999999997,-0.75965965,-0.20505635,0.87375015,1.0019549,-0.13647175
468,293681426,0.9526444,-0.034020837000000005,-0.21997906,0.20718670000000003,-0.71250767,1.1707156,-0.022249222000000003,468,293681426,0.5273809,-0.3227795,-0.7584314999999999,-0.20607147,0.8312191999999999,0.8832745999999999,-0.07074928
469,293698093,0.9546561,-0.037809476,-0.21181433,0.20577349,-0.7792986999999999,0.63075894,0.110681534,469,293698093,0.52708167,-0.32549152,-0.7571475000000001,-0.20728879,0.18317111,0.09017965,0.046998978
470,293714760,0.95634,-0.0418489,-0.20425087,0.20481729999999998,-0.4161364000000001,-0.013661447,0.38261795,470,293714760,0.5271442,-0.32770815,-0.7559340999999999,-0.20806499,0.20818712,-0.5415536999999999,0.34794998
471,293731427,0.9576471,-0.046361517000000005,-0.19818565,0.20369372,0.05052175,-0.2978092,0.8406886999999998,471,293731427,0.52748793,-0.32944074,-0.7548597,-0.20835770000000003,-0.15690386,-1.2931534,0.35935593
472,293748094,0.9585521,-0.051579215,-0.19425018,0.20196609,0.34858567,-1.1461986000000002,0.7434559000000001,472,293748094,0.52793854,-0.3306387,-0.75402236,-0.20835084,-0.47165236,-1.2387606000000002,0.20587729999999996
473,293764761,0.9591816999999999,-0.05505679,-0.19145197,0.20072629,0.6362437,-1.9379946,0.9425049000000001,473,293764761,0.5285626999999999,-0.33124045,-0.75329983,-0.20842612,-0.24501267,-1.2086455,0.16399002
474,293781428,0.9596644,-0.056206245,-0.18903832,0.20038910000000001,0.7556421,-1.2729778,0.6714525,474,293781428,0.52932864,-0.33119687,-0.7526958,-0.20873405,-0.30280262,-0.9536094999999999,0.2102871
475,293798095,0.96004385,-0.05606281,-0.18701087,0.2005135,0.53042644,-0.63527924,0.38619614,475,293798095,0.5300554,-0.33076137,-0.75224507,-0.20920356,-0.36873648,-0.67305875,-0.021936417000000003
476,293814762,0.96030265,-0.05592248,-0.18558928,0.20063417,0.06674889999999999,-0.18386064,0.07277107,476,293814762,0.5309682,-0.32997248,-0.75186837,-0.20948866,-0.21912315,-0.44438365,-0.016766548
477,293831429,0.9604617,-0.056066174,-0.18439846,0.20093086,0.07278353,-0.3050781,0.150424,477,293831429,0.5319142,-0.32898444,-0.7515623,-0.20974118,-0.48551932,-0.23828235,-0.007688522
478,293848096,0.9605353000000001,-0.05583219,-0.18311623,0.20181441,-0.096503615,-0.6137640000000001,-0.041083336,478,293848096,0.53288203,-0.327397,-0.7515493000000001,-0.20981462,-0.61236316,-0.09717360000000001,-0.1727705
479,293864763,0.9605818000000002,-0.05505251,-0.18143383,0.20332170000000002,-0.61307704,-0.40885955,-0.24882126,479,293864763,0.53385377,-0.32522792,-0.75184125,-0.20967264,-0.5506559,0.10494716,-0.35934162
480,293881430,0.96057945,-0.054147395999999993,-0.1796557,0.20514637,-0.728833,-0.038051404,-0.42249107,480,293881430,0.5348871000000001,-0.32294065,-0.7521706,-0.20939286,-0.18439864,0.39775795,-0.43948364
481,293898097,0.9606164,-0.05343859,-0.17785916,0.20671839,-0.70766526,0.32602364,-0.3532219,481,293898097,0.53577906,-0.32104144,-0.7523991999999999,-0.20921162,0.09927909,0.86079234,-0.54003334
482,293914764,0.9607511000000001,-0.052954644,-0.1761074,0.20771433,-0.79370046,0.47900242,-0.24769783,482,293914764,0.5362316999999999,-0.31993958,-0.7525254,-0.20928614,0.046616755,0.9702917,-0.38573742
483,293931431,0.96097296,-0.05299403,-0.17421928,0.2082696,-0.73445004,0.6109854,0.024638176,483,293931431,0.53642005,-0.31942293,-0.7525509,-0.20950046,-0.001280282,0.85040826,0.16384602
484,293948098,0.96121806,-0.05360636,-0.17217061,0.20868549,-0.45010066,0.74797446,0.18589306,484,293948098,0.5366678,-0.31903726,-0.75252646,-0.2095411,0.11069747,0.46749946,0.25657463
485,293964765,0.9614096,-0.054440178,-0.17021641,0.20918947,-0.13024446,0.7643435000000001,0.12986374,485,293964765,0.5370925999999999,-0.31857133,-0.75251204,-0.20921382,0.34579465,0.20770925,0.018512726
486,293981432,0.9615864,-0.055255543,-0.16843,0.20960826,0.14319213,0.5933364000000001,-0.06517887,486,293981432,0.5375523,-0.3181657,-0.7524778,-0.20877272,0.4099384,0.115038544,-0.28567790000000004
487,293998099,0.96177125,-0.05602496,-0.1668739,0.20980018,0.15827768,0.2644625,-0.17501926,487,293998099,0.53792864,-0.31793696,-0.75242364,-0.20834702,0.24668097,0.056143995,-0.43838024
488,294014766,0.96197313,-0.056791812000000004,-0.16543487,0.2098086,-0.019894889,0.16774222,0.0018892289999999999,488,294014766,0.5383584,-0.31790712,-0.7521931,-0.2081145,0.3013889,0.114656225,-0.07805252
489,294031433,0.96221644,-0.05775911,-0.16400984,0.20954758,0.007803843,0.30326742,0.37160778,489,294031433,0.5387119,-0.31831363,-0.75177044,-0.20810574,0.18351352,0.010995161000000002,0.285038
490,294048100,0.9624475,-0.059107747,-0.16281202,0.2090432,0.19081882,0.11171988,0.4198885,490,294048100,0.5390326,-0.318862,-0.75131184,-0.2080922,-0.07944634,-0.25634935,0.3182478
491,294064767,0.9626238000000001,-0.06050456,-0.1618349,0.20859155,0.2532745,-0.29986817,0.28495502,491,294064767,0.53955454,-0.31907290000000005,-0.75092596,-0.20780827,-0.09893801,-0.42785397,0.0869112
492,294081434,0.9627636999999999,-0.06131662,-0.16093071,0.20840661,0.34555596,-0.47615233,0.16567326,492,294081434,0.54016304,-0.31898865,-0.75063646,-0.20740253,-0.05394083,-0.38088185,-0.15629387
493,294098101,0.9628848,-0.06128094,-0.16024569,0.20838585,0.3357567,-0.5334941999999999,-0.015413284,493,294098101,0.54076535,-0.3186324,-0.75044286,-0.20708138,-0.19217421,-0.39246932,-0.36409949999999996
494,294114768,0.96299386,-0.060849175,-0.15968663,0.20843759,0.2289089,-0.48295835,-0.008901596,494,294114768,0.54138917,-0.31798682,-0.7502918000000001,-0.20699009999999998,-0.24701624,-0.25648403,-0.16363335
495,294131435,0.96312475,-0.0601729,-0.15900506,0.20854989999999998,0.07347273,-0.24102531,0.2538185,495,294131435,0.541953,-0.31720483,-0.75018764,-0.20709282,-0.29488778,-0.09807938,0.20848656
496,294148102,0.96321934,-0.059588722999999996,-0.15839876,0.20874265,0.024594247000000003,-0.234738,0.26398468,496,294148102,0.5424508000000001,-0.3163126,-0.75018686,-0.20715736,-0.376352,-0.11446534,0.17014408
497,294164769,0.96327144,-0.05907139,-0.15781148,0.20909387,-0.07142815,-0.24415489,0.046401977999999997,497,294164769,0.5430053,-0.31526488,-0.7502599,-0.20703697,-0.2977756,-0.022569891,-0.08420086
498,294181436,0.963306,-0.058418784,-0.15715636,0.20961039999999997,-0.31770188,-0.18955587,-0.10683727,498,294181436,0.5435028000000001,-0.31430176,-0.7503579,-0.20684009999999997,-0.06776331,0.13834502,-0.35192108
499,294198103,0.96330875,-0.057828635,-0.15668783,0.21011147,-0.47848335,0.04358888,-0.12006760000000001,499,294198103,0.5438367,-0.31374687,-0.7503642,-0.20678224,-0.031053102000000003,0.31244385,-0.3051443
500,294214770,0.96332866,-0.05763468,-0.15635544,0.21032150000000002,-0.34218314,0.18998168,-0.06548214,500,294214770,0.5439449000000001,-0.31357756,-0.75032,-0.20691483,-0.21985225,0.34797883,-0.0663681
501,294231437,0.96336776,-0.057696300000000006,-0.15591970000000002,0.21044922,-0.26909205,0.07834506,0.035777092,501,294231437,0.54402095,-0.3134436,-0.7503010999999999,-0.20698614,-0.36948076,0.19804098,0.024392128
502,294248104,0.9633883,-0.057816513,-0.15541634,0.21069382,-0.22314070000000003,-0.15600824,0.024920464,502,294248104,0.54415476,-0.31304777,-0.7504055000000001,-0.20685498,-0.37786028,0.03919881,-0.089419365
503,294264771,0.9633927999999999,-0.057644956,-0.15480752,0.21116820000000003,-0.14559399,-0.20320457,0.095098495,503,294264771,0.54432696,-0.31232348,-0.75069374,-0.20645070000000001,-0.17423014,0.07492087,-0.07686710000000001
504,294281438,0.9634219999999999,-0.056926742,-0.15411127,0.21173823,-0.019991335,-0.11548043,0.15849209,504,294281438,0.5444696,-0.31149653,-0.75105625,-0.20600493,0.06388671,0.122802265,-0.06520367
505,294298105,0.963483,-0.05600151,-0.15350027,0.21215133,0.026455551,0.112772286,0.17696571,505,294298105,0.54455215,-0.31090996,-0.75131613,-0.20572563,0.34978348,0.102784894,0.047449112
506,294314772,0.96359783,-0.05540453,-0.15299349,0.21215166,0.14987248,0.42570117,0.21823311,506,294314772,0.5445365,-0.31081194,-0.7513638000000001,-0.20574009999999998,0.37030956,0.082596086,0.17197514
507,294331439,0.96374416,-0.055257805,-0.15263852,0.21178123,0.27546665,0.44985995,0.07967472,507,294331439,0.5444175,-0.31105140000000003,-0.7512972,-0.20593712,0.21351343,-0.08299986,0.049211502000000004
508,294348106,0.96386766,-0.055301074000000006,-0.1522848,0.21146193,0.23098756,0.17103767,-0.027377129,508,294348106,0.5443911,-0.31127942,-0.7511785,-0.20609507,0.10596079,-0.26937202,-0.08274269
509,294364773,0.96394795,-0.055396374000000005,-0.1518575,0.21137825,0.24451591,0.08331236,-0.018782616000000002,509,294364773,0.5445406,-0.31139502,-0.75100636,-0.20615289,0.17262845,-0.26949224,-0.09948444
510,294381440,0.9640004999999999,-0.055393323,-0.15147467,0.21141432,0.27886325,0.086938076,0.11645985,510,294381440,0.54478,-0.31141955,-0.7508279,-0.20613329,0.19662122,-0.24079308,-0.015331268
511,294398107,0.96408325,-0.055327105999999994,-0.15112658,0.21130282,0.3721685,0.17969601,0.13153172,511,294398107,0.5450176,-0.3113725,-0.75067407,-0.20613620000000002,0.17384122,-0.16779353,0.06397533400000001
512,294414774,0.9642046999999999,-0.055268085999999994,-0.15070185,0.21106750000000002,0.3003907,0.14470877,0.081926346,512,294414774,0.5452471999999999,-0.31122088,-0.75056463,-0.20615688,0.015558289,-0.16348386,-0.00587368
513,294431441,0.9643052,-0.055229142,-0.15032978,0.21088396,0.14312518,-0.12967473,-0.011014938,513,294431441,0.5455246,-0.31085646,-0.75050956,-0.20617343,-0.026153699,-0.19847257,-0.12613106
514,294448108,0.9643886999999999,-0.055043228,-0.14995761,0.21081573,0.030337077999999996,-0.14600392,0.077510834,514,294448108,0.54586685,-0.3103062,-0.7505035,-0.20611829,-0.054252405,-0.13816978,-0.12109947
515,294464775,0.96447325,-0.05454277,-0.14956564,0.21083765,-0.004284408,-0.005029321,0.14779568,515,294464775,0.546333,-0.30962062,-0.75050277,-0.20591654,0.13049446,0.001884214,0.05701732599999999
516,294481442,0.96459514,-0.054063864,-0.14921099,0.21065389,-0.0016503079999999999,0.2453607,0.2622366,516,294481442,0.5467882,-0.30915159999999997,-0.7504310000000001,-0.20567496,0.14768574,0.17143813,0.102371216
517,294498109,0.9647661,-0.05386945,-0.14894463,0.21010907,-0.034084048,0.4077381,0.09496784,517,294498109,0.5470983,-0.30893925,-0.7503448,-0.20548360000000002,0.10872609,0.14206718,0.029388427999999998
518,294514776,0.9649455,-0.05408545,-0.14870282,0.20940006,-0.13623337,0.31162792,-0.018708229,518,294514776,0.5473031,-0.30881208,-0.75031984,-0.20522079,-0.013051815,0.023191815,-0.12108517
519,294531443,0.96508384,-0.054535877,-0.14851642,0.20877694,-0.16828448,0.04756652,-0.07243061,519,294531443,0.5475180000000001,-0.30857658,-0.7503675999999999,-0.20482583,-0.103689,-0.03394234,-0.19873714
520,294548110,0.96517694,-0.05496282,-0.14841056,0.20830959,-0.07395843,-0.1143356,-0.00066,520,294548110,0.54778457,-0.30806348,-0.75051236,-0.20435479999999998,-0.15320696,-0.00684162,-0.13541126
521,294564777,0.9652659,-0.055044517,-0.14826457,0.20797911,-0.004096657,-0.106534824,0.043628692999999996,521,294564777,0.5481083000000001,-0.30733824,-0.75071186,-0.20384568,-0.047945764,0.12042587,-0.09034729
522,294581444,0.96539193,-0.054787297,-0.14803277,0.20762729999999996,-0.09156253,0.027183646000000002,0.05704403,522,294581444,0.54841393,-0.30669427,-0.75088006,-0.20337394,0.032273483,0.18572865,-0.09626198
523,294598111,0.96553975,-0.054605138,-0.14783221,0.20712972,-0.21750762,0.1795381,0.10786915,523,294598111,0.54867536,-0.30631393,-0.7509281,-0.20306349,0.12461786,0.2580038,0.015300751000000001
524,294614778,0.96569186,-0.054727457,-0.147708,0.20647554,-0.22471590000000002,0.2920855,0.15532112,524,294614778,0.54877675,-0.30645657,-0.75084794,-0.20287117,0.15614437,0.28934879999999996,-0.019741058
525,294631445,0.96582794,-0.055154234,-0.14783856,0.20563089999999998,-0.26084789999999997,0.26603699999999997,0.07026291,525,294631445,0.54867,-0.30709368,-0.75071895,-0.20267375,-0.10140738,0.19178139,-0.16889954
526,294648112,0.96592146,-0.056065414,-0.14820518,0.20467956,-0.19943324,-0.11408800000000001,-0.17324162,526,294648112,0.54838854,-0.30790412,-0.75062287,-0.20256153,-0.332176,0.0448909,-0.25409794
527,294664779,0.9659419,-0.057045437000000004,-0.14856486,0.20405002,-0.24514063,-0.4573272,-0.14613056,527,294664779,0.5480995,-0.30859616,-0.7505791999999999,-0.20245256,-0.47683138,-0.14382343,-0.29712963
528,294681446,0.9659018,-0.057666887,-0.1489339,0.20379622,-0.20301726,-0.49684745,0.046369553,528,294681446,0.5479433000000001,-0.30890188,-0.7506435,-0.20217058,-0.49101326,-0.15957227,-0.05633831
529,294698113,0.9658696,-0.05797436,-0.14915797,0.20369788,-0.021319335,-0.34002003,0.2686119,529,294698113,0.5478114000000001,-0.3088228,-0.7509013000000001,-0.201691,-0.310181,-0.12517676,0.21212960000000003
530,294714780,0.96584564,-0.058213703,-0.14936121,0.20359424,0.018391987,-0.20233499,0.33703136,530,294714780,0.54752886,-0.30852753,-0.75144356,-0.20088889,-0.4112567,-0.06261805,0.11421299
531,294731447,0.9657629999999999,-0.058829482999999995,-0.14990656,0.20340756,-0.11569444,-0.34650192,0.01570034,531,294731447,0.5470668000000001,-0.30802003,-0.75221753,-0.20002799,-0.50209683,-0.2309851,-0.17177677
532,294748114,0.96561646,-0.05977351,-0.15048368,0.20340317,-0.096177176,-0.57890654,-0.22041988,532,294748114,0.5466232,-0.30705935,-0.75316393,-0.19915488,-0.4309779,-0.294518,-0.33377647
533,294764781,0.9654140999999999,-0.06005977,-0.15098156,0.20390931,0.07657632,-0.7093710999999999,-0.23608685,533,294764781,0.54614544,-0.30588084,-0.7541925,-0.19838458,-0.64988405,-0.23966154,-0.48661613
534,294781448,0.9651581,-0.060067847,-0.15156683,0.20468307,0.10456987,-1.2382618,-0.11502361,534,294781448,0.545428,-0.30458379999999996,-0.7554105999999999,-0.19771872,-1.1381233,-0.4873557,-0.40885162
535,294798115,0.9649280000000001,-0.05975584,-0.15194465,0.20557709,-0.30925208,-1.200404,0.38022614,535,294798115,0.5447397,-0.30285928,-0.75686616,-0.1966965,-1.0033736999999998,-0.39817145,0.2072258
536,294814782,0.96464825,-0.059183847000000005,-0.15237303,0.20673548,-0.38142484,-0.69196945,0.43668365,536,294814782,0.5440765000000001,-0.30090657,-0.75850356,-0.19521597,-0.94658136,-0.41123042,0.2694435
537,294831449,0.9641988000000001,-0.05924853,-0.15335725,0.20808093,0.021884264,-0.98344785,0.13709259,537,294831449,0.54323846,-0.29862884,-0.76040477,-0.19364445,-1.2869226,-0.7237613,-0.02259636
538,294848116,0.96365803,-0.059551768,-0.15440664,0.20971741,0.28663903,-1.6807034,-0.09311962,538,294848116,0.5419401999999999,-0.29561323,-0.7628248000000001,-0.19238713,-1.6822560000000002,-0.82428026,-0.33486843
539,294864783,0.96303344,-0.058943786,-0.15499516,0.21230811,0.015758893,-2.2607033,-0.16982270000000002,539,294864783,0.54033697,-0.29136540000000005,-0.7658404000000001,-0.19139327,-1.8398006000000002,-0.9696241,-0.40187929999999994
540,294881450,0.9623309000000001,-0.056495294,-0.15500684,0.21611638,-0.10314833,-2.190589,0.11215973,540,294881450,0.5391186,-0.28558242,-0.76926434,-0.18980822,-1.4700103,-0.66479605,-0.13661766
541,294898117,0.9616353000000001,-0.05224997,-0.15451658,0.22058566,0.061841678,-1.0274473,0.38201046,541,294898117,0.5383277,-0.27882147,-0.7728484999999999,-0.18753105,-0.42202866,-0.11205118,0.14005756
542,294914784,0.96098244,-0.047111995999999996,-0.15371366,0.22510286,0.13181286,0.44684392,0.09642506,542,294914784,0.53746384,-0.27232826,-0.77628326,-0.18535185,0.45063028,0.2961188,0.021557807999999998
543,294931451,0.9602992,-0.042548135,-0.15298158,0.22938517,-0.11661286,1.06039,-0.18547439999999998,543,294931451,0.5361191,-0.26695976,-0.77943367,-0.18382855,0.6879597,0.53235096,-0.37403297
544,294948118,0.9594719999999999,-0.038290255,-0.1531095,0.23347482,-0.42045492,0.9907176999999999,-0.084189415,544,294948118,0.53456163,-0.26270238,-0.7822066999999999,-0.18271478,0.6514187,0.67641973,-0.48135567
545,294964785,0.9586116,-0.034572492999999996,-0.15362243,0.23722251,-0.30466202,1.0242873,-0.38568783,545,294964785,0.5330949,-0.2593118,-0.7845272,-0.18189356,0.69771177,0.75857604,-0.19916248
546,294981452,0.9578164,-0.031673584,-0.15395519,0.24059970000000003,-0.2621437,1.294545,-0.24228191,546,294981452,0.53151697,-0.25688255,-0.7864869999999999,-0.18149367,0.92916167,0.7797718000000001,-0.088952065
547,294998119,0.9570811,-0.02989569,-0.15446606,0.24340971,-0.4920518,1.4628202,-0.23326969,547,294998119,0.52986723,-0.25540394,-0.7881196999999999,-0.18132278,1.0743706,0.8004321999999999,-0.25707626
548,295014786,0.9563898000000001,-0.02900776,-0.15525682,0.24571986,-0.5743067,1.460971,-0.21303082,548,295014786,0.52830505,-0.2550735,-0.7892329,-0.18150464,1.2948955,0.75765324,-0.07523918
549,295031453,0.95578295,-0.02904277,-0.15636173,0.24737084,-0.133551,1.3075557,0.08614731,549,295031453,0.52682424,-0.25576824,-0.78981006,-0.18231809,1.0946274,0.5042773,0.18443108
550,295048120,0.95530576,-0.029505212000000003,-0.15763988,0.24834618,0.15374641,1.0451815999999998,0.12720108,550,295048120,0.52546877,-0.25694022,-0.7900531999999999,-0.18352352,0.9175264999999999,0.30155843,0.049015045
551,295064787,0.95491713,-0.029468765,-0.15875450000000002,0.24913447,0.1286744,0.83654493,0.09423351,551,295064787,0.52429396,-0.2583649,-0.7900585,-0.18485616,0.9286469,0.1416044,-0.043301582000000005
552,295081454,0.9545646999999999,-0.028598726,-0.15988815,0.24986005,0.36937159999999997,0.6475304000000001,0.28121853,552,295081454,0.52339387,-0.2596782,-0.7899295000000001,-0.18611422,0.98310226,0.120173305,-0.002518654
553,295098121,0.9542776,-0.027369441,-0.16138133,0.2501349,0.47251263,0.6681759,0.5319271,553,295098121,0.5226734000000001,-0.26109862,-0.78958225,-0.18761814,1.1347477,0.20095167,0.34809494
554,295114788,0.95402676,-0.026086746,-0.16315834,0.25007516,0.6641569,1.3320361,0.20762729999999996,554,295114788,0.52192146,-0.26290062,-0.789038,-0.18947588,0.87541443,-0.16576067,0.41738033
555,295131455,0.953874,-0.025537444,-0.16483043,0.24961776,0.9372684000000001,1.0783457,0.04573536,555,295131455,0.52137154,-0.2646381,-0.7884432,-0.19104035,0.45472994,-0.44735727,0.13378811
556,295148122,0.95369446,-0.02541713,-0.16666077,0.24910055,0.8062165,-0.015126435,0.33823013,556,295148122,0.5210011999999999,-0.26628068,-0.7877228000000001,-0.19273238,0.32151399999999997,-0.8109945,0.13843918
557,295164789,0.95333964,-0.024542995,-0.16894563,0.24900708,0.65997475,-0.58170235,0.6158371,557,295164789,0.5206587,-0.2675478,-0.7870746999999999,-0.19454297,-0.16724849,-0.83032113,0.14115524
558,295181456,0.9526595999999999,-0.023470964,-0.17304124,0.24890053,0.77107096,-1.0092798,0.68510056,558,295181456,0.52078474,-0.26807776,-0.78635716,-0.19636907,-0.40280074,-1.1762141000000002,0.47530649999999997
559,295198123,0.95190716,-0.022095056000000002,-0.17715654,0.24901018,0.8581485999999999,-0.779175,0.43847942,559,295198123,0.5212026,-0.26777503,-0.7857422,-0.19812709,-0.31090295,-0.7025315,0.25279713
560,295214790,0.9512322,-0.019574044,-0.18055117,0.24936189,0.012977721000000001,-0.34675008,-0.21641254,560,295214790,0.5210579000000001,-0.26742798,-0.7855076999999999,-0.19989897,-0.47978820000000005,0.052812535,-0.83661556
561,295231457,0.9504332,-0.01656527,-0.18436733,0.24983393,-1.6046517,-0.18201827,0.055351257,561,295231457,0.52101547,-0.2668345,-0.7855619,-0.20058726,-0.47420150000000005,0.9593668,-0.34739590000000004
562,295248124,0.94941294,-0.014876262,-0.19016933,0.24946986,-2.7511723,0.86939085,0.44387245,562,295248124,0.52108645,-0.26664190000000004,-0.7855443,-0.20072920000000002,-0.3277947,2.1625412,0.008274078
563,295264791,0.9484264000000001,-0.013281751000000001,-0.19592194,0.24886023,-2.725876,0.83225375,0.020104408,563,295264791,0.52046084,-0.26733232,-0.7855911999999999,-0.20124914,0.5161236,2.5549063999999997,-0.24945545
564,295281458,0.9474855,-0.012101816999999999,-0.20144519,0.24809368,-2.5059178,1.2452219,-0.32934856,564,295281458,0.519212,-0.2689351,-0.7857381999999999,-0.20176494,0.92898554,2.0841856,-0.38262272
565,295298125,0.9465379999999999,-0.011927061999999999,-0.20759985,0.24664111,-2.1372378,1.5782104,0.124180794,565,295298125,0.5180844,-0.27143833,-0.78564256,-0.20168437,1.2395483,1.5615733,0.002279282
566,295314792,0.94556403,-0.013444309,-0.2151683,0.2437962,-0.93517643,1.4935377,0.18023682,566,295314792,0.5167408,-0.27472365,-0.78542143,-0.20154378,0.6619801,0.67827755,0.004738808
567,295331459,0.94451386,-0.015659902,-0.22360645,0.24011339,-0.17384570000000002,-0.015034306,0.40152264,567,295331459,0.5150257,-0.27821314,-0.7853561,-0.20140201,-0.15562046,-0.44168293,-0.11473656
568,295348126,0.9432004999999999,-0.016838843,-0.23215602,0.23706315,0.11142277,-1.1075983,0.58826256,568,295348126,0.5135261,-0.2812475,-0.785435,-0.20070773,-0.5626701999999999,-1.0782733999999998,0.07958794
569,295364793,0.9415511999999999,-0.017371658,-0.2409055,0.23484045,0.43856394,-1.1411129999999998,0.26058102,569,295364793,0.5123955,-0.28352126,-0.7856637,-0.19949959,-0.3627861,-1.1481135,0.20620346
570,295381460,0.9395669,-0.017736858,-0.25045934,0.23275610000000002,0.84152585,-1.1847007999999999,0.18146706,570,295381460,0.51139665,-0.28520933,-0.78602123,-0.1982441,-0.10460988,-1.0640216,0.187253
571,295398127,0.9373616,-0.01802269,-0.26058635,0.23049785,0.7868331000000001,-0.87045836,0.37761209999999995,571,295398127,0.5106417000000001,-0.28655392,-0.78636867,-0.19686826,-0.16940717,-1.4032274,0.33953285
572,295414794,0.9351014999999999,-0.017806418,-0.27050626,0.22825548,0.6571385999999999,-0.8796225000000001,0.30924702,572,295414794,0.5102095,-0.2875899,-0.7865465,-0.19576508,-0.24398585,-1.1471661,0.21944141
573,295431461,0.9325245999999999,-0.016582305,-0.28020504,0.22718751,-0.24855758,-0.06936677,-0.049196243,573,295431461,0.51002586,-0.28799587,-0.7868901,-0.19425961,0.7466636,-0.305349,0.015394211000000001
574,295448128,0.9296791999999999,-0.015330955,-0.29035574,0.22618853,0.02664252,0.56966746,0.11801052,574,295448128,0.5098285,-0.28878877,-0.78704405,-0.19297272,0.72748977,0.0898018,0.28052235
575,295464795,0.92664564,-0.014514943999999998,-0.30144647,0.22417206,0.6184903,0.945564,0.4629345,575,295464795,0.5095411,-0.28986478,-0.78716004,-0.19164069,0.7502266,-0.06672934400000001,0.09832859
576,295481462,0.9235837,-0.013374861000000002,-0.31233126,0.22196729999999998,0.86367506,0.834277,0.6723776,576,295481462,0.50956804,-0.29095125,-0.78710705,-0.19013482,0.40618340000000003,-0.26859295,0.5100126
577,295498129,0.9205184999999999,-0.011835135,-0.32241088,0.22036977,0.8299901,0.77344227,0.33896446,577,295498129,0.51011485,-0.29177234,-0.78684604,-0.18848287,0.73690903,-0.34169835,0.31524658
578,295514796,0.9174413,-0.010255983,-0.3321716,0.21877939,0.47032222,0.76175034,-0.06422615,578,295514796,0.5105318,-0.29268175,-0.7864974,-0.18739551,0.8868813,-0.17449701,0.10647583
579,295531463,0.91432875,-0.009417808,-0.34196609999999994,0.21674746,0.36384422,0.68494123,0.040039062,579,295531463,0.51088756,-0.29415959999999997,-0.7858906999999999,-0.18665658,0.7009194000000001,-0.3340192,0.31967735
580,295548130,0.91107243,-0.009078306999999999,-0.3519943,0.21440709,0.34297013,0.49508327,0.22244072,580,295548130,0.5112867,-0.29559398,-0.78533345,-0.18564087,0.53025454,-0.28889552,0.17649746
581,295564797,0.9076529000000001,-0.008644865,-0.36210865,0.2120725,0.25919658,0.525215,0.22174263,581,295564797,0.5119534,-0.29674563,-0.7848375,-0.18405697,0.51798546,-0.04394388,0.35525513
582,295581464,0.90403426,-0.008568842,-0.3725312,0.20946428,0.6943933000000001,0.36392897,0.033826827999999996,582,295581464,0.51290005,-0.29839972,-0.7837743,-0.18327518,0.20688762,-0.1261135,0.30812836
583,295598131,0.9002319999999999,-0.00840124,-0.38302496,0.20690459,0.7364989000000001,-0.040534962,-0.031719208,583,295598131,0.5135842,-0.29981002,-0.7828815,-0.18287322,0.4757366,-0.7175158,-0.22568321
584,295614798,0.8962701,-0.008189194,-0.39356315,0.20432048,0.54748446,0.119064175,-0.01661396,584,295614798,0.5147387,-0.3008985,-0.7818541999999999,-0.18223307,0.40454817,-0.83435094,0.31164074
585,295631465,0.8921441999999999,-0.008418992,-0.40422198,0.20154028,0.6872514000000001,0.6933657,0.15721512,585,295631465,0.51645017,-0.30137274,-0.780942,-0.18051,0.7610191999999999,-0.6750223000000001,0.49751663
