PacketCounter_femur,SampleTimeFine_femur,Quat_W_femur,Quat_X_femur,Quat_Y_femur,Quat_Z_femur,FreeAcc_X_femur,FreeAcc_Y_femur,FreeAcc_Z_femur,PacketCounter_tibia,SampleTimeFine_tibia,Quat_W_tibia,Quat_X_tibia,Quat_Y_tibia,Quat_Z_tibia,FreeAcc_X_tibia,FreeAcc_Y_tibia,FreeAcc_Z_tibia
1,846592252,-0.23644279999999998,-0.6963459,0.22111592,-0.6405506999999999,0.32851928,-0.15922515,0.044680595,1,846592252,0.58377486,0.116959095,-0.7950345,-0.115965046,-0.27177566,0.0059379567,0.051926612999999996
2,846608919,-0.23633586,-0.69627637,0.22103985,-0.64069206,0.25516412,-0.104156926,0.042895317,2,846608919,0.58380663,0.11703208,-0.795013,-0.11587898,-0.21641105,0.008122908,0.08279228
3,846625586,-0.23611626,-0.6962357,0.22089626,-0.6408666999999999,0.12156159999999999,-0.22004393,0.08266926,3,846625586,0.5837964,0.1171075,-0.79502696,-0.11575794,-0.13609973,0.042031948,0.09646702
4,846642253,-0.23582068,-0.69629,0.22070843,-0.64098126,0.05413808,-0.2506616,0.037121773,4,846642253,0.58375835,0.11722715,-0.7950653,-0.11556526,-0.088560246,0.03303809,0.10947799999999999
5,846658920,-0.23553477,-0.69643754,0.22055228,-0.64097977,0.034345392,-0.25450414,0.08296871,5,846658920,0.583701,0.11739055,-0.7951203,-0.11530998,-0.032387473,0.09441042,0.08636951400000001
6,846675587,-0.23536827,-0.6965712,0.22047985,-0.6409206999999999,-0.11360717,-0.22924617,0.10623073599999999,6,846675587,0.5836364,0.11756910400000001,-0.795187,-0.11499514400000001,0.00434241,0.057598617000000005,0.13414574
7,846692254,-0.23520017,-0.6966810999999999,0.22039144,-0.6408933000000001,-0.14282885,-0.20275508,0.12377453,7,846692254,0.58355385,0.11769424,-0.79526544,-0.11474374,0.03957297,0.040223558,0.123147964
8,846708921,-0.23506811,-0.69680494,0.22039673,-0.64080524,-0.112262845,-0.059715845,0.08534145,8,846708921,0.5834754,0.117755935,-0.7953429,-0.114542045,0.04094221,-0.03240362,0.14809418
9,846725588,-0.23504072,-0.69690436,0.220421,-0.64069897,-0.12961835,-0.0027146765000000002,0.124614716,9,846725588,0.58338845,0.11773979,-0.7954257,-0.11442652,0.030282876,-0.06516012,0.13428593
10,846742255,-0.23492466,-0.6969884,0.22040369,-0.6406561,-0.115521945,-0.05721764,0.10252571,10,846742255,0.58330077,0.11774327,-0.7955068000000001,-0.11430628,0.024008421000000002,-0.052189099999999995,0.11534405
11,846758922,-0.23474558,-0.69713056,0.22036524,-0.6405803000000001,-0.02292293,-0.1264766,0.059326172,11,846758922,0.5831863,0.11767283,-0.79560924,-0.11424997,-0.019707138,0.06686809,0.09638882
12,846775589,-0.23458946,-0.69730717,0.22036923,-0.640444,-0.04171154,-0.22647697,0.09110832,12,846775589,0.5830388000000001,0.11758136,-0.7957347,-0.11422271,-0.06735965599999999,0.04104279,0.11530304
13,846792256,-0.23457545,-0.6974225000000001,0.2204617,-0.6402915,-0.011554446000000001,-0.19413687,0.084742546,13,846792256,0.58287704,0.11754467,-0.7958717,-0.1141317,-0.05230561,0.010723368999999998,0.09893036
14,846808923,-0.23461817,-0.69753265,0.22064118,-0.6400939999999999,-0.0022932987,-0.1455845,0.09157657599999999,14,846808923,0.58270794,0.11755101,-0.79601556,-0.11398559,-0.05095693,0.029917878999999998,0.112698555
15,846825590,-0.23462103,-0.6976455,0.22076236,-0.6399281,-0.03617736,-0.107113555,0.11056709,15,846825590,0.58251524,0.11750913,-0.79617834,-0.11387675,-0.051977935999999995,-0.029230354,0.093997
16,846842257,-0.23462535,-0.6977021,0.22082315,-0.6398439,-0.03801229,0.021695843,0.055488586,16,846842257,0.58231485,0.11750126,-0.7963438,-0.11375303,-0.04193103,-0.05556968,0.09790707
17,846858924,-0.23446837,-0.6978061,0.22075593,-0.63981116,-0.037300456,-0.02304061,0.08449173,17,846858924,0.5821101,0.117542446,-0.7965095,-0.11359702,-0.006573069,-0.0407097,0.10291289999999999
18,846875591,-0.23434499999999997,-0.69787985,0.22070073,-0.6397951,-0.11840610000000001,-0.0035942001,0.11750316599999999,18,846875591,0.5819015000000001,0.117568366,-0.7966768,-0.11346613,0.018021403000000002,-0.03953352,0.13333797
19,846892258,-0.23427843,-0.6979769,0.22071539,-0.6397085,-0.14992891,-0.03803073,0.0862875,19,846892258,0.5816975000000001,0.11761024,-0.79683626,-0.113348566,0.06407043,-0.039839227000000005,0.14410782
20,846908925,-0.23418394,-0.69809586,0.22073969999999998,-0.63960487,-0.1789809,-0.10923637,0.06486225,20,846908925,0.5815044,0.11765592,-0.79698485,-0.11324748,0.09803814400000001,-0.0071096676,0.112724304
21,846925592,-0.23411319,-0.69820696,0.22075519,-0.6395042,-0.25185144,-0.14194246,0.11094952,21,846925592,0.58132285,0.11768835,-0.7971265000000001,-0.113149844,0.108701505,0.04291298,0.12205219
22,846942259,-0.23405705,-0.6983026999999999,0.2207416,-0.63942474,-0.18053348,-0.158486,0.08277702,22,846942259,0.58113134,0.1176837,-0.79727393,-0.11309872,0.05532814,0.029569631000000002,0.120373726
23,846958926,-0.23399028,-0.69839376,0.22071384,-0.6393594,-0.12351008,-0.091933005,0.12713432,23,846958926,0.58095866,0.117715925,-0.7974057,-0.11302401,0.01472548,-0.010393911,0.13198185
24,846975593,-0.233925,-0.6984514000000001,0.22070104,-0.63932484,-0.11159024,-0.05035445,0.101919174,24,846975593,0.5807827,0.11772919400000001,-0.7975435000000001,-0.11294142,0.011893124,-0.0041506914,0.109015465
25,846992260,-0.23383172,-0.6984744,0.2207305,-0.63932353,-0.13209717,-0.15362079999999997,0.07944584,25,846992260,0.5805958999999999,0.11772455,-0.7976886999999999,-0.11288134,0.017893553,0.014911499,0.11640835
26,847008927,-0.23385575,-0.6984286,0.22081517,-0.63933563,-0.19723125,-0.13839811,0.115345,26,847008927,0.5804142,0.11767421,-0.79782826,-0.11288161,0.062411077,0.026293281,0.14677429
27,847025594,-0.23399718,-0.6983404999999999,0.22094537,-0.63933516,-0.21948072,-0.106998555,0.09728813,27,847025594,0.58023334,0.11763178,-0.7979681,-0.11286785,0.10216285,0.012120325,0.14463615
28,847042261,-0.23418027,-0.69826365,0.22114766,-0.6392821,-0.2768469,-0.08956265,0.11646366,28,847042261,0.58008546,0.11752283,-0.7980832,-0.11292782400000001,0.16176616,0.019842697,0.15706825
29,847058928,-0.23429358,-0.6982735999999999,0.22134945,-0.63915986,-0.29820573,-0.12639502,0.056919098,29,847058928,0.5799658000000001,0.11738539,-0.7981792,-0.11300712,0.15612648,-0.009045737,0.14932442
30,847075595,-0.23441534,-0.6983176,0.22157206,-0.63899,-0.20652105,-0.06536178,0.06547642,30,847075595,0.5798534000000001,0.11721049,-0.79826814,-0.11313687,0.13625081,0.01988796,0.12558079
31,847092262,-0.23456855,-0.6983519,0.22179128,-0.6388203,-0.19381166,-0.17312320000000003,0.10147953,31,847092262,0.57976097,0.11704503,-0.7983435000000001,-0.11325022,0.05226046,0.039847943999999996,0.123472214
32,847108929,-0.23474392,-0.69833076,0.22197667,-0.63871455,-0.06938172,-0.09509571,0.09985256,32,847108929,0.57966965,0.11691574,-0.79841644,-0.113337025,0.0036463903000000003,0.016744195,0.12213135
33,847125596,-0.23484679,-0.6983130999999999,0.22211663,-0.63864714,-0.079870455,-0.09656251,0.07570171,33,847125596,0.5795848000000001,0.116787024,-0.7984896,-0.11338874,-0.0058757085,-0.0048691737,0.10588550599999999
34,847142263,-0.23493777,-0.6983038,0.22219191,-0.63859767,-0.07143184,-0.054926857,0.08970547,34,847142263,0.57950723,0.11665937,-0.79855853,-0.11343036599999999,0.013872555,0.009889945,0.11476421
35,847158930,-0.23499212,-0.69836116,0.22229290000000002,-0.63848,-0.12937595,-0.08956052,0.07076645,35,847158930,0.5794302,0.11653918,-0.7986281999999999,-0.113457575,0.037797827,-0.007864135,0.1316204
36,847175597,-0.23496765,-0.6984621999999999,0.22236167,-0.6383543,-0.14375839,-0.1582893,0.08158207,36,847175597,0.5793552,0.11644249999999999,-0.7986929,-0.11348383,0.05972311,0.019891256,0.13526058
37,847192264,-0.2350377,-0.69856143,0.22251622,-0.6381661999999999,-0.17847487,-0.16398989,0.10578632,37,847192264,0.5792809,0.11630917,-0.7987623,-0.11351065,0.03842724,0.04634927,0.12815857
38,847208931,-0.23519364,-0.6985932,0.22271763,-0.6380037,-0.09920549999999999,-0.14380947,0.08973503,38,847208931,0.57920086,0.11613112,-0.79883504,-0.11359019,0.014232411,0.009434426,0.12655449
39,847225598,-0.23538937,-0.69862866,0.22296536,-0.63780606,-0.07437287,-0.13832915,0.089310646,39,847225598,0.57912576,0.116010986,-0.7989042,-0.11360936,-0.031549405,0.0068050919999999996,0.10929489
40,847242265,-0.23545316,-0.6986724,0.22308254,-0.6376936,-0.008565128,-0.09739677599999999,0.08361721,40,847242265,0.57903445,0.11591439,-0.79898775,-0.11358587,-0.049281478,0.010203422,0.10259342
41,847258932,-0.23545618,-0.69872767,0.22315022,-0.63760835,0.0031485710999999998,-0.068300866,0.11587715,41,847258932,0.57894903,0.11591069,-0.79906356,-0.11349100599999999,-0.039858617,-0.007671300000000001,0.12263775
42,847275599,-0.23548187,-0.6988209,0.2232654,-0.63745636,-0.07188216,-0.11336376,0.106422424,42,847275599,0.57885295,0.11586688,-0.7991531,-0.11339591,2.1010216999999997e-05,-0.013108531999999999,0.13507652
43,847292266,-0.2354366,-0.69896907,0.22338472,-0.6372688,-0.16950652,-0.07618193,0.07633495,43,847292266,0.5787613,0.11574156599999999,-0.79924184,-0.11336711,0.04101686,0.018375335,0.117432594
44,847308933,-0.23542455,-0.6990763000000001,0.22348952,-0.6371189,-0.16368932,-0.12287334,0.10684489999999998,44,847308933,0.5786707,0.11561011,-0.7993278,-0.113356456,0.07330555,0.0011760693,0.12740993
45,847325600,-0.23554626,-0.69913954,0.22373204,-0.63691926,-0.19420063,-0.11235952,0.11993789999999999,45,847325600,0.57858074,0.1154649,-0.7994109,-0.11337859,0.080080666,0.014616127,0.1284275
46,847342267,-0.23570964,-0.6991835999999999,0.22396131,-0.63672966,-0.22001794,-0.14405209,0.11059569999999999,46,847342267,0.5785007,0.11531165,-0.79948634,-0.11341004,0.037859965,0.027989912999999998,0.12154961
47,847358934,-0.23585437,-0.69919604,0.22415371,-0.6365949000000001,-0.14693016,-0.10761210000000002,0.09954071,47,847358934,0.57841265,0.11514021,-0.7995643,-0.11348439,0.024792057000000003,-0.024188852,0.12283325
48,847375601,-0.23603608,-0.69919366,0.22437143,-0.6364534000000001,-0.09261125,-0.028232591,0.10981274,48,847375601,0.57830256,0.11489452,-0.79966116,-0.11361191,-0.007830106,-0.012638372,0.07038784
49,847392268,-0.23607244,-0.69923186,0.22448519,-0.63635784,0.02638548,-0.11803619,0.052194595,49,847392268,0.57819104,0.11476038400000001,-0.799756,-0.11364774,-0.048420507,-0.05556616,0.09794712
50,847408935,-0.2361738,-0.69926435,0.2247143,-0.6362036999999999,-0.0840126,0.004616325,0.06921100599999999,50,847408935,0.57806796,0.11460133,-0.79986084,-0.11369608,-0.025930185,-0.022902423999999998,0.09269047
51,847425602,-0.23621910000000002,-0.6992816,0.22483514,-0.63612527,-0.08944167,-0.10105982,0.094610214,51,847425602,0.57795477,0.11450496,-0.7999573,-0.11369031,0.023252947000000003,-0.012920333999999999,0.13881588
52,847442269,-0.23633827,-0.6993401,0.2250387,-0.6359446,-0.14353722,-0.11013679,0.12064743,52,847442269,0.5778466,0.114385605,-0.80004877,-0.11371649,0.08160011,0.02714889,0.13122559
53,847458936,-0.23653094,-0.6993651999999999,0.22525814,-0.63576776,-0.20664522,-0.11442131,0.10457897,53,847458936,0.5777463,0.11428901,-0.8001311,-0.11374452,0.07591126,-0.005211652,0.14655018
54,847475603,-0.23669688,-0.699377,0.22539987,-0.6356426,-0.15001743,-0.07626765,0.09896088,54,847475603,0.57764673,0.11413208,-0.8002158,-0.1138116,0.045246176,-0.01464781,0.13262653
55,847492270,-0.23679021,-0.6994333,0.22550519,-0.63550866,-0.09637314,-0.022325704,0.08692169,55,847492270,0.57756007,0.114052944,-0.8002882,-0.113820985,0.023161307000000003,-0.03936946,0.12200165
56,847508937,-0.23679915,-0.69953907,0.22561109999999998,-0.6353513000000001,-0.09527944,-0.059819777000000005,0.09070206,56,847508937,0.5774755,0.113967136,-0.8003558000000001,-0.11386064,-0.0017019297,-0.029226852999999997,0.10084057
57,847525604,-0.23682468,-0.69967324,0.22570245,-0.6351614999999999,-0.05701251,-0.006840614,0.103767395,57,847525604,0.5773653,0.11374562,-0.80044836,-0.11399031400000001,-0.011659777,-0.0031644965000000003,0.120983124
58,847542271,-0.23675879999999996,-0.69980997,0.22568971,-0.63504004,-0.037934788,-0.06611603,0.10219002,58,847542271,0.5772574,0.113631345,-0.8005344,-0.114046276,-0.021996357,0.0042871459999999995,0.08509349999999999
59,847558938,-0.23668417,-0.69989914,0.22567342,-0.63497525,-0.077497475,-0.08022841,0.089533806,59,847558938,0.5771739,0.11368935,-0.8005992,-0.11395610000000002,-0.0027934647999999997,-0.0035897857,0.12844372
60,847575605,-0.23669522,-0.69998085,0.22566849,-0.63488275,-0.16960196,-0.12580885,0.10488510000000001,60,847575605,0.57708806,0.11373443,-0.8006656,-0.11387923,0.022877445,0.04338867,0.1240654
61,847592272,-0.23667634,-0.7000454,0.22564389,-0.6348275,-0.13819465,-0.14835818,0.07451248,61,847592272,0.57698095,0.11365935,-0.8007512,-0.11389502,0.024916777,-0.0023723107,0.11155033
62,847608939,-0.23674092,-0.7001021,0.22569227,-0.63472366,-0.115625486,-0.07879212,0.11261368,62,847608939,0.57688344,0.11359702,-0.80083054,-0.11389313,0.0124121215,0.0012526783,0.12345123
63,847625606,-0.2367467,-0.700212,0.22574818,-0.6345805,-0.09110824,-0.119752206,0.09234333,63,847625606,0.57674557,0.11336121,-0.8009455,-0.11401767,-0.006743386,0.008388665,0.106108665
64,847642273,-0.23678164,-0.7003199000000001,0.22584727,-0.634413,-0.07530089999999999,-0.13554373,0.103731155,64,847642273,0.57661337,0.11323875,-0.8010491999999999,-0.11408078,-0.019547548,0.0051851653999999995,0.1099329
65,847658940,-0.23686458,-0.7003630999999999,0.22597276,-0.6342897,-0.10406713,-0.10312676,0.10848999,65,847658940,0.57645595,0.113027945,-0.8011735,-0.114212014,-0.017229272,-0.0011917152,0.08654785
66,847675607,-0.23691073,-0.70038646,0.22607052,-0.6342118,-0.11263416,-0.11741884,0.12598515,66,847675607,0.5763210999999999,0.11311775,-0.80127126,-0.11411763,-0.03491496,0.0048522986,0.09397029999999999
67,847692274,-0.23697023,-0.70037717,0.22612849999999998,-0.634179,-0.030931454,-0.09493277,0.089990616,67,847692274,0.576153,0.1129788,-0.80140406,-0.11417223,-0.010662909,-0.022082577000000003,0.13071632
68,847708941,-0.23695482,-0.70038074,0.226175,-0.6341644000000001,-0.07602184,-0.10783427,0.12286663,68,847708941,0.5759977,0.11295181,-0.8015247,-0.11413599,0.014619983000000001,0.0038981219,0.112792015
69,847725608,-0.236994,-0.70036775,0.22622961,-0.6341446,-0.17663653,-0.07067871,0.08046627,69,847725608,0.57584494,0.11285681,-0.80164784,-0.11413605,0.055082085999999995,-0.0067825564000000005,0.12960243
70,847742275,-0.23701479999999997,-0.7004355,0.22627303,-0.63404644,-0.17304692,-0.08047841,0.07942104,70,847742275,0.5757178000000001,0.11284955599999999,-0.8017468000000001,-0.11408928,0.09215305,-0.04410682,0.14905548
71,847758942,-0.23702712,-0.7005432,0.22634526,-0.6338971,-0.17035995,-0.052360255,0.076685905,71,847758942,0.57560915,0.11294027400000001,-0.8018294,-0.11396686,0.077905886,0.0063434094,0.13202667
72,847775609,-0.23700002,-0.70070094,0.2263576,-0.6337285,-0.12152316,-0.08907483,0.09142399,72,847775609,0.575505,0.11299544,-0.801909,-0.11387801,0.041951592999999995,0.0028191688,0.13040066
73,847792276,-0.23702003,-0.7008141,0.22639763,-0.6335814000000001,-0.12910214,-0.075433835,0.11067867,73,847792276,0.5753984999999999,0.11301197,-0.8019897,-0.11383224,-0.004523008,-0.002527652,0.13746452
74,847808943,-0.23702444,-0.70088816,0.22637516,-0.63350594,-0.12541083,-0.08570224,0.117510796,74,847808943,0.5753134,0.11316857,-0.80205226,-0.11366438,0.0070960675,-0.013265898,0.10681343
75,847825610,-0.23697612,-0.7009458000000001,0.22632898,-0.6334768,-0.17049205,-0.081732094,0.11556053,75,847825610,0.5752187,0.11320228,-0.8021267,-0.11358487,0.06320634,0.013456933,0.1354351
76,847842277,-0.23690055,-0.7010089,0.22627369,-0.6334550999999999,-0.16741814,-0.109307446,0.07095814,76,847842277,0.57513446,0.11320999,-0.80219525,-0.113519445,0.07799753,0.030942574,0.115073204
77,847858944,-0.23680216,-0.70115995,0.22625177,-0.6333325,-0.17765155,-0.11956792,0.07007027,77,847858944,0.57505083,0.11319636599999999,-0.80226475,-0.11346582,0.071468264,-0.016119251,0.13055325
78,847875611,-0.23671639999999997,-0.70132077,0.22624734,-0.63318807,-0.12708159,-0.1150391,0.104530334,78,847875611,0.574976,0.1132491,-0.80232555,-0.113363296,0.021590905,0.015424126000000002,0.13470745
79,847892278,-0.23667371,-0.70146537,0.2262626,-0.63303834,-0.14656375,-0.066654466,0.11512470000000001,79,847892278,0.5749017,0.113224275,-0.80238867,-0.113317855,0.012102333,0.007998746999999999,0.1374321
80,847908945,-0.23663847,-0.7015688,0.22631073,-0.6329196,-0.14401604,-0.14022532,0.109025955,80,847908945,0.5748177,0.11319691,-0.8024581999999999,-0.11327796400000001,0.028948504,0.024537196,0.12150192
81,847925612,-0.23669234,-0.7015989,0.22637826,-0.63284194,-0.17003447,-0.11097776,0.11889267,81,847925612,0.5747291,0.113087036,-0.8025329000000001,-0.11330884,0.039810788,0.0020553693,0.12264061
82,847942279,-0.23680413,-0.701567,0.22648267,-0.6327981,-0.1722915,-0.12698531,0.08400631,82,847942279,0.57465225,0.11303438,-0.8025948,-0.11331297,0.0643315,0.0014126578,0.123007774
83,847958946,-0.23694429999999997,-0.7015568,0.22662339,-0.63270664,-0.19885825,-0.062105086,0.07956505,83,847958946,0.5745911,0.11294616,-0.8026441,-0.11336243,0.07879547,0.012600598999999999,0.13262749
84,847975613,-0.23707503,-0.70159453,0.22675395,-0.6325691,-0.14132445,-0.05178281,0.08374596,84,847975613,0.574539,0.11285501,-0.8026865,-0.11341589,0.064391844,0.0013621438,0.11363602
85,847992280,-0.23706660000000002,-0.7017165,0.22682132,-0.63241273,-0.11631318,-0.09000688,0.07828617,85,847992280,0.5744982,0.112798735,-0.80271983,-0.11344281,0.01847424,-0.018926518,0.13269329
86,848008947,-0.23700733,-0.7018505,0.22685203,-0.6322751,-0.100893244,-0.12686998,0.09051895,86,848008947,0.574469,0.11284964,-0.80274296,-0.11337699999999999,0.009882849,0.0049519297,0.096580505
87,848025614,-0.23697515,-0.70192206,0.22689892,-0.63219094,-0.115885876,-0.096147,0.10750294,87,848025614,0.574419,0.11280548,-0.8027829000000001,-0.11339062,0.008174316,-0.005334807,0.12355423
88,848042281,-0.23689210000000002,-0.7020158000000001,0.2268797,-0.63212484,-0.08521085,-0.07792019,0.07118225,88,848042281,0.5743881,0.112847075,-0.80280685,-0.11333611,0.019013353,0.0031138148999999998,0.109867096
89,848058948,-0.236879,-0.70207274,0.22687794,-0.6320670999999999,-0.11150866,-0.0557448,0.09488964,89,848058948,0.5743538,0.11287435,-0.8028346,-0.113287665,0.005317373,-0.0044604247,0.120396614
90,848075615,-0.23690039,-0.7020865,0.22687359,-0.63204545,-0.14763215,-0.09327676,0.11633682,90,848075615,0.5743129,0.11286597,-0.8028692,-0.11325785,0.017685685,0.01403449,0.122626305
91,848092282,-0.23692381,-0.70216733,0.22689070000000003,-0.6319409,-0.103443526,-0.0867237,0.07836914,91,848092282,0.5742600999999999,0.11277237,-0.8029135000000001,-0.11330409,0.02834806,-0.01111591,0.12264347
92,848108949,-0.23694852,-0.70227695,0.22695804,-0.6317855,-0.12462518,-0.08038744,0.10318756,92,848108949,0.574217,0.1127645,-0.80294776,-0.113287225,0.009210521999999999,-0.012445257,0.12500095
93,848125616,-0.23696494,-0.70238787,0.22700015,-0.631641,-0.11123759,-0.10777392,0.09214115,93,848125616,0.5741614,0.112753406,-0.80298895,-0.1132879,0.014571704,0.0074777934,0.11023331
94,848142283,-0.23699076,-0.7025035,0.22706804,-0.6314781,-0.10342866,-0.10957588,0.09745979,94,848142283,0.57409745,0.11270577,-0.8030385999999999,-0.11330788,-0.0017407188,-0.004008537,0.12426758
95,848158950,-0.23694749999999998,-0.7026151999999999,0.22707936,-0.6313661,-0.08427198,-0.071393505,0.11567974,95,848158950,0.5740396,0.11270219999999999,-0.8030835999999999,-0.11328537,-0.0058748145,-0.001069286,0.11811733
96,848175617,-0.23685613,-0.7027101,0.2270436,-0.63130754,-0.04042662,-0.044414483,0.08048725,96,848175617,0.57396173,0.112691335,-0.80314296,-0.11326902,-0.024465282,-0.012952183999999999,0.096440315
97,848192284,-0.23679546,-0.7027671999999999,0.22700243,-0.6312816,-0.06446594,-0.10877348,0.10365105,97,848192284,0.5738839,0.11267601,-0.8032055,-0.11323664,-0.011697326999999999,-0.012660221000000001,0.12280941
98,848208951,-0.23675874,-0.7028107,0.22697279,-0.63125765,-0.12161641599999999,-0.11053419999999999,0.12056541400000001,98,848208951,0.573814,0.11273137,-0.80326116,-0.113141604,0.008277579,0.032054104,0.11664963
99,848225618,-0.23669975,-0.7028842,0.22692057,-0.6312166,-0.11240427,-0.10911266,0.10279846,99,848225618,0.57372504,0.11273040599999999,-0.80332935,-0.11310851,0.02688995,0.020499546,0.13245201
100,848242285,-0.23669545,-0.70292497,0.22695252,-0.6311611,-0.1314516,-0.097113475,0.09343815,100,848242285,0.5736449,0.11276749,-0.80338883,-0.11305606,0.02363292,-0.015373891,0.11611462
101,848258952,-0.23670378,-0.7030090999999999,0.22701880000000002,-0.6310408000000001,-0.15883517,-0.11029414,0.091659546,101,848258952,0.57356733,0.112815246,-0.8034482,-0.11298101,0.035471953,0.014360093,0.11450291
102,848275619,-0.23667264,-0.70312953,0.22707227,-0.63089895,-0.11994873,-0.17809892,0.08251189999999999,102,848275619,0.5734905,0.11287773,-0.8035065,-0.11289292599999999,0.039596215,0.011962637,0.12280941
103,848292286,-0.23672134,-0.703245,0.22721371,-0.63070107,-0.1490305,-0.09733643,0.07451630000000001,103,848292286,0.5734099,0.11283035,-0.8035689,-0.112904556,0.03693328,0.014344447,0.12190437
104,848308953,-0.23681928,-0.7032993000000001,0.22736855,-0.6305478,-0.13532,-0.08335458,0.10979271,104,848308953,0.5733235,0.11277574,-0.80363756,-0.11290931,0.057760663,0.01065056,0.11660385
105,848325620,-0.23690693,-0.70338684,0.22747812,-0.6303778,-0.12606958,-0.030864792000000002,0.092004776,105,848325620,0.5732498,0.112777375,-0.8036939000000001,-0.11288124,0.05330739,-0.042642415,0.15097237
106,848342287,-0.23696119,-0.70344186,0.22753738,-0.63027453,-0.2158568,-0.04482586,0.11724949,106,848342287,0.5731956,0.11278482,-0.80373764,-0.112838045,0.04067131,0.0037674784999999996,0.11706352
107,848358954,-0.23697939999999998,-0.70345885,0.22752350000000002,-0.6302538000000001,-0.16986379999999998,-0.119797245,0.092944145,107,848358954,0.57313275,0.11273781,-0.8037871,-0.112851165,0.028821995,-0.0047161235,0.109874725
108,848375621,-0.23697019,-0.70351017,0.22751300000000002,-0.6302036999999999,-0.08694866,-0.070914626,0.0912447,108,848375621,0.57306993,0.11272449999999999,-0.8038359,-0.11283564,-0.0033714694,-0.009268746999999999,0.111050606
109,848392288,-0.23689006,-0.70358264,0.22744833,-0.6301765,-0.07945165,-0.1317791,0.097649574,109,848392288,0.57301295,0.11274366,-0.8038823,-0.112776265,0.0022079932999999998,0.018488033,0.10500239999999998
110,848408955,-0.23684543,-0.7036737,0.22743921,-0.6300946999999999,-0.07704911,-0.10077383,0.094530106,110,848408955,0.5729430999999999,0.112783074,-0.8039354000000001,-0.11271306,-0.014909208,-0.0022022172,0.12605667
111,848425622,-0.23682247,-0.70375526,0.227494,-0.6299924,-0.08873515,-0.09253045,0.11080551,111,848425622,0.5728771,0.11280374,-0.8039868,-0.11266151,0.01712288,-0.006071115,0.12010956
112,848442289,-0.23679419,-0.70383936,0.2275433,-0.6298914000000001,-0.17236196,-0.10258507,0.0871315,112,848442289,0.5728061,0.11280943,-0.8040419,-0.11262316,0.041166615,0.008179569,0.108688354
113,848458956,-0.23676965,-0.7039214,0.22759919,-0.62978876,-0.14177957,-0.06787451,0.09183121,113,848458956,0.57273734,0.11278967,-0.8040951999999999,-0.11261233,0.03757968,0.032577794,0.119454384
114,848475623,-0.23677020000000001,-0.703978,0.22762515,-0.6297158,-0.17312409,-0.15312694,0.12937927,114,848475623,0.5726746,0.11279095,-0.80414414,-0.112580575,0.033433963,0.026376205,0.11403179
115,848492290,-0.23679687,-0.70403117,0.22764842,-0.6296379,-0.12096939999999999,-0.053059182999999996,0.103972435,115,848492290,0.5726116,0.11282712,-0.8041921,-0.11252268,0.02419349,-0.009453592,0.115021706
116,848508957,-0.23677485,-0.70404994,0.22766148,-0.6296205,-0.14436042,-0.09256398,0.10768032,116,848508957,0.5725603,0.11285893,-0.80423146,-0.112470105,0.055431213,-0.029787516,0.14500618
117,848525624,-0.23677889,-0.7040635999999999,0.22765002,-0.62960786,-0.23882633,-0.05972959,0.119997025,117,848525624,0.5725167,0.11286908400000001,-0.80426526,-0.11244018,0.08401449999999999,0.011327581000000001,0.14237595
118,848542291,-0.23683842,-0.7040135999999999,0.22765107,-0.62964094,-0.17325763,0.009292998,0.12442207,118,848542291,0.5724812,0.11281841,-0.80429304,-0.11247275,0.08704131,-0.011440734,0.12599754
119,848558958,-0.23678516,-0.7040592,0.22763003,-0.6296176,-0.11014444400000001,-0.13886368,0.06185913,119,848558958,0.57245886,0.112877145,-0.8043085999999999,-0.11241643,0.039758037999999996,-0.020144664,0.12228489
120,848575625,-0.23680954,-0.7041103,0.22766349,-0.62953913,-0.15018941,-0.09382191,0.12118721,120,848575625,0.5724427,0.112916276,-0.8043201,-0.112377696,0.026364692999999998,0.009343624,0.10873699
121,848592292,-0.23684965,-0.7041619,0.22770876,-0.62945,-0.16377638,-0.12337971,0.09167289999999999,121,848592292,0.5724225000000001,0.11290511,-0.80433506,-0.11238339999999998,0.041315924,0.014394793000000001,0.10792732
122,848608959,-0.23696302,-0.7041594,0.22779667,-0.6293783000000001,-0.1336384,-0.07245921,0.08173369999999999,122,848608959,0.572404,0.11289546,-0.8043475999999999,-0.11239799,0.03307187,-0.014870652,0.13379860000000002
123,848625626,-0.23698436,-0.7042016,0.22783516,-0.6293092,-0.098461874,-0.109939985,0.073488235,123,848625626,0.57239413,0.112891324,-0.804354,-0.11240748,0.011247618999999999,-0.009344070999999999,0.118683815
124,848642293,-0.23699467,-0.7042154,0.2278337,-0.6292904,-0.16632202,-0.08665374,0.11278343,124,848642293,0.5723746999999999,0.112891,-0.8043668,-0.11241346,0.014623111999999999,0.010450013000000001,0.120773315
125,848658960,-0.23697908,-0.7041919,0.22779042,-0.6293380999999999,-0.12198795400000001,-0.12996876,0.099843025,125,848658960,0.57235324,0.11285754,-0.8043821,-0.11244769,-0.0065489295,0.014534041000000001,0.09860802
126,848675627,-0.23698963,-0.70419276,0.22776416,-0.6293428000000001,-0.04457474,-0.10441877,0.07712746,126,848675627,0.5723337,0.11284452,-0.80439705,-0.11245347,0.0120909875,-0.0240549,0.12091732
127,848692294,-0.23698628,-0.7042229,0.22775102,-0.629315,-0.12494989,-0.06842335,0.11274147,127,848692294,0.5723191999999999,0.11284433,-0.80440956,-0.11243815,0.01738171,0.0012917372000000001,0.12228298
128,848708961,-0.23695593,-0.7042533000000001,0.22770897,-0.62930775,-0.16662449999999998,-0.086447544,0.09944725,128,848708961,0.5723056,0.11288535,-0.8044161,-0.11241908,0.04129223,-0.021411033,0.11786842
129,848725628,-0.23693343,-0.7043001,0.22767985,-0.6292743000000001,-0.12817407,-0.101737395,0.071442604,129,848725628,0.57229936,0.1128788,-0.80442065,-0.112424,0.05021174,-0.017165124,0.12197113
130,848742295,-0.23695329,-0.70431083,0.2276769,-0.6292559,-0.1602703,-0.07167513,0.11557484,130,848742295,0.57228625,0.112853155,-0.8044296999999999,-0.11245311,0.023783566000000003,-0.0015537504000000001,0.1328106
131,848758962,-0.23694688,-0.7043590999999999,0.22766013,-0.6292101999999999,-0.12308182599999999,-0.14922597,0.08261013,131,848758962,0.5722925,0.11294048,-0.8044218000000001,-0.11239047,0.025504617,0.0048267622,0.11020279
132,848775629,-0.23693828,-0.7044109000000001,0.22763619,-0.62916434,-0.10309082,-0.090381265,0.09728049999999999,132,848775629,0.5722904999999999,0.11301071,-0.8044182,-0.11235513,0.0049803155,0.028721637999999997,0.10704136
133,848792296,-0.23693794,-0.70444256,0.2276687,-0.6291171999999999,-0.11820075,-0.09321764,0.08337879,133,848792296,0.57226944,0.11292703400000001,-0.804434,-0.11243223,-0.024481822,-0.0073061916,0.10502719999999999
134,848808963,-0.23700835,-0.70439476,0.22766972,-0.6291438,-0.09922891,-0.09987598,0.12441254,134,848808963,0.57225186,0.11292849,-0.8044437,-0.11245141,-0.0036191219,-0.016690215,0.12980938
135,848825630,-0.23703890000000002,-0.70437926,0.22769526,-0.6291404,-0.139525,-0.10505176,0.08801937,135,848825630,0.5722403,0.112930775,-0.8044513000000001,-0.11245401,0.03564406,0.020374157,0.11527443
136,848842297,-0.23702559,-0.7044083999999999,0.22772738,-0.629101,-0.13776127,-0.042925662999999996,0.09376812,136,848842297,0.5722268,0.11290105,-0.80445886,-0.112498164,0.057061963,-0.021783909,0.13273429999999997
137,848858964,-0.23703173,-0.70442146,0.22774829999999996,-0.6290766,-0.19766161,-0.071403116,0.09741211,137,848858964,0.5722262,0.11288627,-0.80445784,-0.11252363,0.05733644,-0.0077397507,0.10265064
138,848875631,-0.23705567,-0.70440984,0.22775048,-0.62907976,-0.11905244,-0.09390271,0.105615616,138,848875631,0.5722333000000001,0.112863354,-0.8044472,-0.11258687,0.048545226,0.026162025,0.12215996
139,848892298,-0.23711158,-0.7043431,0.227714,-0.6291467,-0.1647814,-0.09183108,0.13697338,139,848892298,0.57224107,0.11283234,-0.80443776,-0.11264624,0.027551102,-0.0158968,0.13491249
140,848908965,-0.23721062,-0.7042566,0.22769818,-0.62921184,-0.19763787,-0.118677,0.109399796,140,848908965,0.5722458,0.11273466,-0.8044319000000001,-0.11276162,0.059502725,0.021687966,0.14349174
141,848925632,-0.23728426,-0.7042036,0.22767565,-0.6292517,-0.14624822,-0.08142622,0.09052467,141,848925632,0.5722560999999999,0.112656616,-0.80442005,-0.112871796,0.072687306,0.0031171676,0.12796783
142,848942299,-0.23733558,-0.7041752,0.22768068,-0.6292622,-0.13001241,-0.08856444,0.10874081,142,848942299,0.57228017,0.11262231,-0.80439913,-0.11293298,0.012476941,-0.017928645,0.11885643
143,848958966,-0.23741402,-0.7041019000000001,0.22769903,-0.62930804,-0.13098586,-0.07573602,0.100559235,143,848958966,0.57230014,0.112593286,-0.80438083,-0.112990856,-0.003170498,-0.013502501,0.10509491
144,848975633,-0.23738326,-0.7041019000000001,0.22769691,-0.6293203,-0.06989206,-0.12714513,0.0960598,144,848975633,0.57230705,0.11256382,-0.80437136,-0.11305239999999998,-0.015950331,0.027772937,0.098033905
145,848992300,-0.23733464,-0.7041163,0.22766382,-0.62933457,0.0009457392,-0.13408598,0.06679535,145,848992300,0.57231396,0.11253563,-0.8043655,-0.11308692,-0.04529311,-0.005194329,0.0942173
146,849008967,-0.23730056,-0.70410526,0.22767168,-0.62935674,-0.030797794,-0.14239329,0.10317993,146,849008967,0.5723104,0.11259758,-0.8043646,-0.11304981,-0.04927835,-0.004144320999999999,0.11668491
147,849025634,-0.23736626,-0.7040714,0.22771965,-0.62935257,-0.12009586,-0.12990315,0.11257076,147,849025634,0.57229185,0.11263354,-0.8043748000000001,-0.11303504,-0.003897172,0.011522818999999998,0.119208336
148,849042301,-0.23746306,-0.70400214,0.22776254,-0.6293781999999999,-0.12750134,-0.07025504,0.10342407,148,849042301,0.572263,0.112659276,-0.80439216,-0.11303188,0.044674877,-0.026008246000000002,0.12979317
149,849058968,-0.23749977,-0.7039386999999999,0.22780554,-0.62941957,-0.1718681,-0.06610161,0.10676669999999999,149,849058968,0.57224846,0.11268868,-0.8043965000000001,-0.11304658,0.07434488,-0.005803401999999999,0.115727425
150,849075635,-0.23751652,-0.70388585,0.22778805,-0.6294787,-0.1566168,-0.06885339,0.10303783400000001,150,849075635,0.57224506,0.11279154599999999,-0.8043918999999999,-0.11299316,0.04895828,0.03400856,0.115395546
151,849092302,-0.23756522,-0.7037861999999999,0.22771502,-0.6295982,-0.16507399,-0.08626136,0.124661446,151,849092302,0.5722546,0.11285936,-0.804379,-0.112969264,0.037529167,-0.0035214466,0.15095425
152,849108969,-0.23758315,-0.7036882,0.22767927,-0.62971395,-0.18191709,-0.09699635,0.08143997,152,849108969,0.57225573,0.11281822,-0.804375,-0.113033205,0.071161605,-0.03777654,0.12364960000000001
153,849125636,-0.23751421,-0.70368797,0.22765578,-0.6297486999999999,-0.16791964,-0.10696246,0.061938285999999995,153,849125636,0.5722676999999999,0.112841606,-0.8043600999999999,-0.11305571,0.06971101,0.014769065,0.106684685
154,849142303,-0.23754009999999998,-0.7036199000000001,0.2276145,-0.62982976,-0.16877659,-0.060739085,0.12199116,154,849142303,0.5722589,0.11264312,-0.8043645,-0.11326633,0.041343637,-0.008069040999999999,0.11376953
155,849158970,-0.23762943,-0.70355886,0.22764365,-0.6298537,-0.11972432599999999,-0.061268925999999994,0.12839699,155,849158970,0.57227385,0.112532906,-0.8043519,-0.11338979,0.043347657000000005,-0.03287272,0.13024235
156,849175637,-0.2376195,-0.703547,0.227644,-0.6298708000000001,-0.17245813,-0.1288721,0.047657013,156,849175637,0.5723068,0.11252408,-0.80432,-0.11345772400000001,0.06416699,0.0039676903,0.11551379999999999
157,849192304,-0.23761316,-0.7035482,0.227644,-0.6298716999999999,-0.11451653,-0.090795435,0.10698891,157,849192304,0.57235616,0.11255059,-0.80427545,-0.11349806,0.0051533147,0.028932522999999998,0.12498093
158,849208971,-0.23768935,-0.7035108,0.22767591,-0.62987316,-0.05675877,-0.12655807,0.12264347,158,849208971,0.57237893,0.112451866,-0.8042543000000001,-0.11363117,-0.028154138,-0.006768084000000001,0.097875595
159,849225638,-0.23774706,-0.7034640999999999,0.22770506,-0.629893,-0.03290541,-0.11473166,0.12246989999999998,159,849225638,0.5723759,0.112312704,-0.80425686,-0.11376572,-0.071538895,0.013374289,0.11233330000000001
160,849242305,-0.23775889,-0.7033756,0.22772749,-0.62997925,-0.069223806,-0.12491558,0.12459183,160,849242305,0.5723609000000001,0.11225072,-0.80426437,-0.113849774,-0.05713349,-0.0052158423,0.12615679999999999
161,849258972,-0.23779392,-0.7032338,0.22773564,-0.63012147,-0.08808914,-0.10072991,0.11527634,161,849258972,0.5723409,0.11211148,-0.80428123,-0.11396837,-0.002559824,0.008458293,0.09956074
162,849275639,-0.23780198,-0.70314467,0.22778542,-0.6301998000000001,-0.10764854,-0.06069595,0.06726742,162,849275639,0.5723172,0.11204865,-0.8042951999999999,-0.11405088,0.03626453,0.009690013,0.07356548
163,849292306,-0.23783042,-0.7030566999999999,0.22775438,-0.6302985,-0.10149209,-0.08150568,0.08522415,163,849292306,0.5722934000000001,0.112024665,-0.8043058000000001,-0.11411885,0.011354458500000001,-0.017419482,0.15294266
164,849308973,-0.23786566,-0.70294535,0.22770402,-0.63042766,-0.12776007,-0.08802119,0.1202507,164,849308973,0.5722706999999999,0.11200511,-0.80431587,-0.11418104,0.026821109,0.010208339,0.10153198
165,849325640,-0.23786172,-0.70283985,0.22767094,-0.6305588000000001,-0.15227456,-0.13373506,0.075387,165,849325640,0.5722443,0.11202447,-0.8043295,-0.11419817,-7.644143e-05,0.042798653,0.10610771
166,849342307,-0.23786439,-0.7027093000000001,0.22760612,-0.63072664,-0.103836186,-0.11015523,0.12829780000000002,166,849342307,0.5722038,0.11191128,-0.8043589,-0.1143048,-0.07790767400000001,0.044921353,0.13310814
167,849358974,-0.23791094,-0.7024672,0.22748464,-0.63102233,0.03003947,-0.10414664400000001,0.18674183,167,849358974,0.57210404,0.111699365,-0.8044358,-0.11447054,-0.19513263,0.101062894,0.10595417
168,849375641,-0.23781020000000003,-0.7021319,0.22722557,-0.63152665,0.09887269,-0.17321986,0.17242718,168,849375641,0.5719449000000001,0.1114184,-0.8045504,-0.11473478,-0.23254019,0.12245828,0.08634186
169,849392308,-0.23770356,-0.701669,0.22701956,-0.6321551,0.009508073,-0.27139422,0.15842056,169,849392308,0.57176864,0.1112214,-0.8046763000000001,-0.11492026,-0.19976023,0.02298272,0.10353565
170,849408975,-0.23776196,-0.70106417,0.22691092,-0.6328428,-0.10714161,-0.20712052,0.16435719,170,849408975,0.57155454,0.11100571599999999,-0.8048266,-0.11514132,-0.059884038,0.08594833,0.11972332
171,849425642,-0.23788956,-0.70032454,0.22692053,-0.63361,-0.29254684,-0.1654453,0.15502357,171,849425642,0.571358,0.110826515,-0.8049571999999999,-0.11537596,0.06601857400000001,-0.02971694,0.15798473
172,849442309,-0.23807591,-0.69960713,0.22696365,-0.63431644,-0.29896238,-0.08164168,0.11739826,172,849442309,0.5711771,0.11046864,-0.8050765999999999,-0.11578079,0.18458281,-0.044722147000000004,0.20206165
173,849458976,-0.23843040000000001,-0.69878364,0.22719991,-0.6350062,-0.48491899999999993,-0.010821827,0.18411349999999999,173,849458976,0.57106745,0.11013343,-0.80514723,-0.116148785,0.26548734,-0.047874405999999994,0.18999481
174,849475643,-0.23874384,-0.6979251999999999,0.22741888,-0.6357536,-0.5387135999999999,-0.065560594,0.14619255,174,849475643,0.5710118000000001,0.109709285,-0.805176,-0.11662407,0.34194085,0.06538514,0.19094086
175,849492310,-0.23923461,-0.69700015,0.22771622,-0.63647735,-0.5884324000000001,0.024248473,0.20308495,175,849492310,0.571044,0.10925054599999999,-0.80513304,-0.11719296,0.37491974,-0.045471195,0.20777798
176,849508977,-0.23975886,-0.6960239,0.22804591,-0.63722986,-0.6242522,-0.0060993335,0.18088341,176,849508977,0.5711699,0.10881132,-0.8050276,-0.11771037,0.37198994,-0.06345806,0.18603325
177,849525644,-0.24033578,-0.69498897,0.22843629,-0.63800174,-0.58315605,0.008526236999999999,0.1948576,177,849525644,0.57138807,0.10832117,-0.80485505,-0.118282385,0.34643614,-0.031438664,0.20839977
178,849542311,-0.24101748,-0.69381654,0.22890787,-0.6388509,-0.58078235,0.14235418,0.23856639999999998,178,849542311,0.5717076999999999,0.10785905,-0.8046101999999999,-0.11882567,0.3533594,-0.070345365,0.20736885
179,849558978,-0.24148396,-0.69253635,0.22924922,-0.6399406999999999,-0.6793409,0.06568397599999999,0.18760681,179,849558978,0.57213545,0.107433364,-0.80428106,-0.119379826,0.44060618,-0.08504053,0.14707184
180,849575645,-0.24202392,-0.6910708999999999,0.22959194,-0.6411967,-0.98257244,0.12846977,0.12340641,180,849575645,0.5726956,0.10696479,-0.8038523,-0.12000025,0.6051582,-0.03284411,0.14597702
181,849592312,-0.24263749,-0.68952733,0.22994351,-0.6424993,-0.93793035,-0.0015946532,0.030077934,181,849592312,0.57335484,0.10634963,-0.80334026,-0.120825484,0.6301151999999999,-0.07201196,0.08348179
182,849608979,-0.24329434,-0.68787986,0.23030339,-0.64388645,-0.8356167,0.23319855,0.048329353,182,849608979,0.5741203,0.105802774,-0.80273426,-0.12169438,0.46809378,-0.18900982,0.08101939999999999
183,849625646,-0.24397439,-0.68611026,0.23049209,-0.6454479000000001,-0.6853628,0.3831277,0.12595844,183,849625646,0.5750244999999999,0.10552419,-0.80201083,-0.12243474,0.35143122,-0.26021612,0.12355423
184,849642313,-0.24457075,-0.6841781,0.2304442,-0.64728755,-0.53430563,0.48865777,0.24728012,184,849642313,0.57604927,0.10558319,-0.8011819,-0.12299283,0.24231710000000004,-0.26491958,0.20631313
185,849658980,-0.24484722,-0.6820188,0.23006709,-0.6495919,-0.34656635,0.35320958,0.24828625,185,849658980,0.5771734000000001,0.10592987,-0.8002670999999999,-0.12337917,0.046234548,-0.2425144,0.042775154
186,849675647,-0.24464689,-0.6795839,0.22924964,-0.6525018,-0.17494906,0.25101107,0.16387367,186,849675647,0.5784121,0.106773145,-0.79927546,-0.123278916,-0.23973687,-0.23335971,-0.1835022
187,849692314,-0.24400905,-0.67673486,0.2278297,-0.65618855,0.14672641,0.19361609,0.11793518,187,849692314,0.5796458000000001,0.1080585,-0.7983041000000001,-0.122657165,-0.48178977,0.08561597,-0.21510887
188,849708981,-0.24245070000000002,-0.6735333,0.22550726,-0.66084605,0.35077605,-0.17391308,0.172225,188,849708981,0.5807372,0.10954665,-0.7974344,-0.12183004,-0.7922667,0.20167384,-0.282403
189,849725648,-0.24061093,-0.6699659,0.22281557,-0.66603726,0.45717943,-0.06485284,0.17704487,189,849725648,0.5817031,0.11130413,-0.79669,-0.12049212,-0.8884153,-0.10862064,-0.23114395
190,849742315,-0.2385855,-0.66605824,0.22010319,-0.6715643,0.7543588999999999,0.06365716,0.31747437,190,849742315,0.5824993,0.11330248400000001,-0.79613656,-0.11842269,-0.9503524999999999,0.039493676,-0.05185604
191,849758982,-0.23579904,-0.6618739,0.21715225,-0.67761856,0.6211357,-0.20027499,0.33019733,191,849758982,0.5828687,0.11493631,-0.7959421,-0.11631945,-1.1334323999999998,0.5376781999999999,-0.14177799
192,849775649,-0.23265521,-0.6570473000000001,0.21399029,-0.6843749,0.48558933,-0.5973745,0.36496258,192,849775649,0.5827551999999999,0.11594916,-0.79615706,-0.11439567,-1.4007428,0.69398224,-0.25560570000000005
193,849792316,-0.2299909,-0.65102476,0.21110484,-0.69188595,0.6353739,-0.84976476,0.42167854,193,849792316,0.5821774000000001,0.11663129,-0.7967744000000001,-0.11232703,-1.5840596000000002,0.80840564,-0.116316795
194,849808983,-0.22740883,-0.64371806,0.20814444,-0.70042026,1.0011921,-1.5430466999999999,0.31782818,194,849808983,0.5811941999999999,0.116993316,-0.79776704,-0.109971225,-1.4546916,0.99814045,-0.15338612
195,849825650,-0.2255382,-0.6357884,0.20617734,-0.70879966,0.7274307,-2.2725675,0.09758949,195,849825650,0.57985157,0.11667801,-0.79908097,-0.1078336,-1.2066745,1.0102801,-0.06107235
196,849842317,-0.22597848,-0.6273678,0.20648956,-0.7160346,-0.19912423,-2.1802723,0.08918381,196,849842317,0.57834125,0.115997285,-0.80055296,-0.105740204,-0.67974627,0.81561494,-0.004377365
197,849858984,-0.22735661,-0.61826485,0.20852157,-0.7228945,-0.34249179999999996,-1.5552291999999999,-0.18524456,197,849858984,0.5765965000000001,0.114745304,-0.8022528,-0.10373442599999999,-0.5362138000000001,0.8101735,-0.026456833
198,849875651,-0.22956292,-0.6084592,0.21058510000000003,-0.7298853,0.064742595,-0.497086,-0.34094238,198,849875651,0.5746366,0.11294892,-0.8041126999999999,-0.10216909,-0.22574854,0.44619602,-0.010212898
199,849892318,-0.23288946,-0.5971103,0.21394035,-0.7371918000000001,-0.7433323000000001,-0.06810921,0.07760048,199,849892318,0.572754,0.111214064,-0.80590755,-0.10048593,-0.07782497,0.13926964,-0.045524597
200,849908985,-0.23463117,-0.5868897,0.21606441,-0.7441945,0.50428087,-0.30734417,-0.57052994,200,849908985,0.5708009,0.10982288400000001,-0.80773747,-0.09841644,-0.29444882,0.34516135,-0.08377361
201,849925652,-0.23547739999999998,-0.5775911,0.21724877,-0.75082755,0.60345495,-0.3014366,-0.445508,201,849925652,0.56881607,0.108482435,-0.8095916999999999,-0.09613309,-0.31178,0.65863407,0.020171165
202,849942319,-0.23677593,-0.56645405,0.2174723,-0.7587972,-0.71602196,-0.2835719,0.3757229,202,849942319,0.5667944,0.10669228,-0.8114887,-0.094060265,-0.031037007999999998,0.59787303,0.21560097
203,849958986,-0.23875086,-0.5547805,0.21839339,-0.7664996000000001,-0.6076405,-0.025751597999999997,-0.14490604,203,849958986,0.564641,0.10454753,-0.81345564,-0.0924171,0.010907432,-0.02016735,0.024366379
204,849975653,-0.23980494,-0.5446411999999999,0.21896712,-0.77324855,0.5397293000000001,-0.18144569,-0.9644594000000001,204,849975653,0.5626633000000001,0.10285301,-0.8152376,-0.09065904,0.15976438,-0.5978938,0.07952213
205,849992320,-0.23994005,-0.53380287,0.21831657,-0.7809108,-1.4786993,1.6524142,-0.11886215,205,849992320,0.56091714,0.101851314,-0.81679726,-0.08854745,0.4105857,-0.6484495,-0.07794475599999999
206,850008987,-0.23976637,-0.524262,0.21690957,-0.7877894,0.1890075,0.5392836999999999,-0.40564728,206,850008987,0.5592786,0.10113719,-0.81826115,-0.08618451,0.60824805,-0.46201935,0.118906975
207,850025654,-0.23946504,-0.51723635,0.21585068,-0.79280007,0.28056514,0.37658077,-0.5205536000000001,207,850025654,0.5577015000000001,0.10026531,-0.81967217,-0.08398723599999999,0.50822467,-0.22315098,0.42679882
208,850042321,-0.23818609,-0.5090007000000001,0.21409775,-0.79896694,-1.6194311000000001,0.67205775,0.93639946,208,850042321,0.5560925,0.099322334,-0.8210858,-0.08194311,0.5739254,-0.39472154,0.38912964
209,850058988,-0.23734312,-0.5005938,0.21194206,-0.80508083,-0.24970125,0.38295916,0.08058739,209,850058988,0.5543734,0.09844017,-0.82253414,-0.08010847,0.37482497,-0.23623794,-0.023609161
210,850075655,-0.23654899,-0.49204484,0.20941909,-0.81122166,-0.44271708,0.30160479999999995,0.13300037,210,850075655,0.5528932,0.09742363,-0.82378656,-0.078697845,0.26518962,0.2234069,0.14011192
211,850092322,-0.23621726,-0.48371106,0.20746131,-0.8168139,-0.9221111999999999,-0.6599143,-0.2538271,211,850092322,0.5514653,0.09596899,-0.82502216,-0.07755483,0.57758164,0.11583587,0.3170843
212,850108989,-0.23618695,-0.47572598,0.20643122,-0.82175845,-0.40181455,-0.4637916,-0.33859158,212,850108989,0.54968834,0.09412639999999999,-0.82650745,-0.076604724,0.34911472,0.36844042,-0.11591053
213,850125656,-0.23588662,-0.46779552,0.20480953,-0.8267878000000001,0.3402132,-0.30383244,-0.37365723,213,850125656,0.5478045,0.09213298,-0.8280386000000001,-0.07598939999999998,-0.23119912,0.42529595,0.042110443
214,850142323,-0.23507267,-0.46004049999999996,0.20210676,-0.8320196,0.7643575,0.06578869400000001,-0.47944259999999994,214,850142323,0.5458773,0.09033584,-0.8295965000000001,-0.07501477,-0.65426713,-0.13992085,0.022713661
215,850158990,-0.23464507,-0.4512887,0.19908838,-0.83764213,0.32882294,-0.1518514,-0.5189971999999999,215,850158990,0.54388577,0.08851597,-0.83121884,-0.07367960000000001,-0.43381270000000005,-0.30778244,-0.33342648
216,850175657,-0.23487628,-0.44261688,0.19718553,-0.84263974,0.09745919,-0.5174454,-0.6970682,216,850175657,0.5419951,0.08660388,-0.8327452,-0.07264129,-0.27947209999999995,-0.35316318,-0.17782497
217,850192324,-0.23568735,-0.43412915,0.19697845,-0.8468667,0.6277653,0.10052339,-0.3227949,217,850192324,0.54017955,0.08478782,-0.8341620999999999,-0.072046615,-0.45830706,-0.76190054,0.23258781
218,850208991,-0.23597342,-0.425922,0.19676612,-0.85099393,0.10748562,0.33545159999999996,0.10111332,218,850208991,0.5384073,0.0835271,-0.83554435,-0.07075606,-0.2592777,-0.5827458000000001,0.0728693
219,850225658,-0.23528709,-0.41809526,0.19537725,-0.85537386,0.26345244,-0.10271454,0.0132312775,219,850225658,0.5365736999999999,0.08228967,-0.8369924999999999,-0.0689997,0.022408962,0.53949845,-0.18223381
220,850242325,-0.23441914,-0.4104627,0.19314462,-0.85980445,0.47807813,0.05572854,-0.13511086,220,850242325,0.5345938,0.080535926,-0.8384872,-0.0682854,0.06347902,-0.00562272,0.16967869
221,850258992,-0.23438689,-0.40290108,0.19110583,-0.86383593,-0.006268225,0.41680047,-0.0340271,221,850258992,0.53278023,0.07904617,-0.83985084,-0.06743921,0.4711036,-1.3120847,0.37720108
222,850275659,-0.2344603,-0.39552513,0.1897171,-0.8675229,-0.68924415,0.8586693999999999,0.20885372,222,850275659,0.5314326,0.0784543,-0.8408701,-0.06604612,0.65480536,-1.4854916,0.61276627
223,850292326,-0.23398165,-0.38804293,0.18848418,-0.8712918,-1.1124533,1.5868336,0.6380358,223,850292326,0.5303815,0.07854923,-0.8416306,-0.06467981,0.8603389000000001,-1.0732195,0.6352701
224,850308993,-0.23263285,-0.38072962,0.18656074,-0.8752844000000001,-0.8676019,0.85787493,0.7299099,224,850308993,0.52933383,0.07869165,-0.8423625,-0.063553765,1.078427,-0.23424629999999996,0.26303577
225,850325660,-0.23054436,-0.37427822,0.18398082,-0.8791566999999999,-0.7955141,-0.3040562,0.27567959999999997,225,850325660,0.5281684,0.078284375,-0.8431593000000001,-0.06318461,0.8168813,0.59751284,0.16611099
226,850342327,-0.22877382,-0.36795035,0.18127689,-0.8828444,-0.5189090000000001,-0.15484095,-0.099173546,226,850342327,0.5271839,0.07759073,-0.8438348,-0.06324587,0.40160853,-0.07788275,0.56113243
227,850358994,-0.22799644,-0.36145738,0.17877343,-0.8862318000000001,-0.43487105,0.18196362,0.2006731,227,850358994,0.5266305,0.077431634,-0.84421843,-0.06293194,0.63950455,-0.7489137,0.75419044
228,850375661,-0.22740154,-0.35515204,0.17614844,-0.8894536,-0.8025707,0.5733147,0.40251446,228,850375661,0.52647406,0.07775766,-0.84432137,-0.06245297599999999,0.97501045,-0.76589555,0.61803627
229,850392328,-0.2264864,-0.34895322,0.1734269,-0.8926696,-1.1401854999999999,0.46088952,0.5470991,229,850392328,0.52662104,0.07827035,-0.8442016,-0.062192217,1.0737125,-0.377469,0.49302864
230,850408995,-0.22528875,-0.34277612,0.17094167,-0.8958396999999999,-1.4483302,-0.4099165,0.40736008,230,850408995,0.52685887,0.078434154,-0.8440535,-0.06198311,0.95945716,0.7504979,0.14217758
231,850425662,-0.22401868,-0.33664906,0.16857117,-0.8989254999999999,-0.9857413,-1.0512494,0.22050667,231,850425662,0.52706885,0.077852234,-0.84394085,-0.06246126,0.67064303,1.3914843000000001,0.16920185
232,850442329,-0.2231295,-0.33051497,0.16602525,-0.901892,-0.48083973,-1.4914005,-0.02868557,232,850442329,0.5272123000000001,0.07669761,-0.8439258,-0.06288215,0.50972265,1.372135,0.076916695
233,850458996,-0.22312355,-0.32414457,0.16319595,-0.9047175,-0.13413225,-1.0147177,-0.5356816999999999,233,850458996,0.52738965,0.075073026,-0.84392506,-0.063365854,0.16987431,0.81352454,-0.04465103
234,850475663,-0.22386722,-0.31774068,0.16034962,-0.90731066,0.11348119,-0.4035856,-0.13186646,234,850475663,0.52797765,0.073772565,-0.8436568999999999,-0.06356462,-0.13953601,-0.6326553,0.22559166
235,850492330,-0.22466524,-0.31102145,0.15785873,-0.90987474,0.085582495,0.40209875,0.05154991,235,850492330,0.52882564,0.07322617599999999,-0.84322876,-0.06282467,-0.14400269,-0.76196873,0.12309837
236,850508997,-0.22500613,-0.30420065,0.155876,-0.9124348,0.068698354,-0.3066571,0.11735630000000001,236,850508997,0.52954733,0.07261009,-0.8428701,-0.06227159,-0.15116985,0.1508855,-0.08742523
237,850525664,-0.22493587,-0.29754558,0.15441717,-0.91489136,0.02747575,-1.0170207,-0.09155273400000001,237,850525664,0.52985334,0.071389295,-0.84279853,-0.062046025,-0.29504067,0.8375984000000001,-0.29639912
238,850542331,-0.22503811,-0.29082453,0.15301399,-0.9172600000000001,0.5587823000000001,-1.2916166,-0.492095,238,850542331,0.52989423,0.06955669,-0.8429404,-0.061853845,-0.6601946999999999,1.2116598,-0.27542496
239,850558998,-0.2260589,-0.2838653,0.15167908,-0.91940826,0.87193364,-1.190365,-0.5386572,239,850558998,0.52994347,0.06730948,-0.84309715,-0.061779007000000004,-0.57717395,0.2508553,-0.031280518
240,850575665,-0.22768421,-0.27655378,0.15067829,-0.92139786,0.765721,0.14751062,-0.208642,240,850575665,0.53022045,0.0654878,-0.84310466,-0.061257900000000004,-0.23674046,-0.9433200999999999,0.21668625
241,850592332,-0.22921823,-0.26917508,0.14972442,-0.92335635,0.37668434,0.67092884,0.44065379999999993,241,850592332,0.5307135000000001,0.06451343,-0.8429361999999999,-0.06033221,-0.0051314104,-0.89462566,0.45083523
242,850608999,-0.22978207,-0.26258606,0.14850551,-0.9253082,-0.056177717,0.17952108,0.6428795,242,850608999,0.53119683,0.06397287,-0.84273696,-0.059432752,0.02573841,-0.37874284,0.3284607
243,850625666,-0.22956623,-0.2567659,0.14736570000000002,-0.9271754000000001,-0.25332925,-0.6224010999999999,0.19861603,243,850625666,0.5315074000000001,0.06326909,-0.8426564000000001,-0.058542,0.23154378,0.3409763,-0.02529049
244,850642333,-0.22958449999999997,-0.251239,0.14641283,-0.9288346,-0.02920817,-0.69141626,0.013186455,244,850642333,0.5316005,0.06188875,-0.8427393,-0.057979565,0.28864777,0.43786776,0.03936863
245,850659000,-0.23029618,-0.24580497,0.14540148,-0.93027014,0.17250855,-0.25411156,0.10035324,245,850659000,0.53166705,0.060463145,-0.8428394,-0.057414215,0.22639628,-0.017085107,0.17567062
246,850675667,-0.23136248,-0.24017565,0.14419479999999998,-0.9316628,-0.24729164,-0.10224041,-0.07280636,246,850675667,0.5319491999999999,0.059501655,-0.8427958000000001,-0.056436405,0.20944639,-0.26191244,0.26381874
247,850692334,-0.23223701,-0.23446155,0.14320236,-0.93305266,-0.29516512,0.08532512,0.24873447,247,850692334,0.5325654000000001,0.05884969,-0.8425187,-0.055438254000000006,0.20861089,-0.50225556,0.37138462
248,850709001,-0.23254670000000002,-0.2292353,0.14208448,-0.93444407,-0.15654345,0.59573877,0.46132755,248,850709001,0.53341246,0.058493227,-0.84206134,-0.054613485999999996,-0.09426435,-0.38148390000000004,0.4462223
249,850725668,-0.23239647,-0.22441958,0.14069791,-0.93585896,0.31091005,0.39589202,0.2935934,249,850725668,0.53410155,0.058459274000000006,-0.8416841,-0.053722207,0.046636425,-0.49945965,0.1144886
250,850742335,-0.23231591,-0.21985409,0.13893168,-0.9372254999999999,0.5819041,0.18391255,-0.2063942,250,850742335,0.5344814,0.058411375,-0.8414845999999999,-0.053119692999999996,-0.0746806,-0.35508909999999994,-0.20938683
251,850759002,-0.2325574,-0.21544032,0.13699551,-0.93847495,0.63806623,0.42060518,0.016950607,251,850759002,0.5350161,0.05851357,-0.8411599000000001,-0.05276515,-0.33188546,-0.74453807,0.29527378
252,850775669,-0.23292832,-0.21111727,0.13488953,-0.9396697,0.22122145,1.1178274,0.57437897,252,850775669,0.5357744000000001,0.059087235,-0.84067005,-0.052236807,0.31719127,-1.4467376,0.7519435999999999
253,850792336,-0.23315008,-0.20708138,0.13279462,-0.94081056,-0.4617029,1.3061447,0.6236,253,850792336,0.5364852,0.06001942,-0.8401615,-0.052058462,0.99842525,-1.6174464,0.49153137
254,850809003,-0.23239167,-0.20363906,0.13075449,-0.9420344999999999,-0.826664,0.80150807,0.99075985,254,850809003,0.53719205,0.06154550599999999,-0.8396062,-0.051947404,0.96959203,-1.165356,0.41848850000000004
255,850825670,-0.23072733,-0.20088884,0.12817287,-0.94338787,-0.24657886,0.010224936,0.95052624,255,850825670,0.5378359,0.06363998,-0.8390559000000001,-0.05165285,0.49624974,0.13577329,0.4175167
256,850842337,-0.22959068,-0.19836745,0.12509426,-0.9446110999999999,0.44919914,-0.95708776,0.30612946,256,850842337,0.53811157,0.06542251,-0.83873457,-0.051772725,-0.21501097,0.91835123,-0.10116291
257,850859004,-0.22896628,-0.19552338,0.123146564,-0.9456111999999999,0.62154585,-2.0333971999999996,-0.5913515,257,850859004,0.53829724,0.06719067,-0.8384596,-0.052031535999999996,-1.1961903999999999,1.0906133999999998,-0.14925098
258,850875671,-0.2284221,-0.19218339,0.122138135,-0.94655794,0.84403193,-1.6917871,-0.45206260000000004,258,850875671,0.53855544,0.06863268,-0.8381784999999999,-0.052004945,-1.0487452,1.2368377000000002,-0.23645115
259,850892338,-0.22814557,-0.18885224,0.1212922,-0.94740325,0.8712279,-1.0916986000000002,-0.5055084,259,850892338,0.5386662,0.06901287,-0.8380417,-0.05255897,-0.69611055,1.3298583000000002,-0.24958324
260,850909005,-0.22837435,-0.18574281,0.120484784,-0.94806576,0.5001304,-0.75432324,-0.29001713,260,850909005,0.53855145,0.068373926,-0.83808374,-0.05388345,-0.45864636,0.7332960000000001,-0.23144817
261,850925672,-0.22853567,-0.18292807,0.11943140599999999,-0.9487073,0.4879261,-0.46014740000000004,-0.016911507,261,850925672,0.53830177,0.06712038,-0.83824426,-0.05543195,-0.42807692,0.23649627,-0.002175331
262,850942339,-0.22885132,-0.18009204,0.118460655,-0.94929516,0.31693745,-0.24750377,-0.20413208,262,850942339,0.5379206999999999,0.06603701,-0.8385066999999999,-0.05645535,-0.48346746,-0.029149163999999998,-0.06491947
263,850959006,-0.22910695,-0.17743810000000002,0.1173605,-0.9498698,0.5984434000000001,-0.33719924,-0.18812943,263,850959006,0.53729004,0.0653145,-0.8389375,-0.056898955,-0.17294806,-0.08601991,-0.48015976
264,850975673,-0.2292966,-0.17508857,0.11583863,-0.95044667,0.7271033,0.0061309044,-0.063337326,264,850975673,0.53645796,0.06459821,-0.8394834000000001,-0.057515699999999996,0.0767159,-0.2921381,-0.18536758
265,850992340,-0.22956124,-0.17281012,0.11419798,-0.9509982,-0.08484845,-0.05029212,0.38533783,265,850992340,0.53562146,0.06404009999999999,-0.8400122999999999,-0.05820689,0.11854719999999999,-0.3516107,0.4280138
266,851009007,-0.22965820000000003,-0.17058504,0.11291466,-0.9515296,-0.5153166,-0.25567317,0.26073265,266,851009007,0.53480107,0.063577965,-0.8405488999999999,-0.058510605,0.36642447,-0.016894171,0.22390079999999998
267,851025674,-0.22969572,-0.16858763,0.1119337,-0.95199233,-0.47697413,-0.36349198,0.1837349,267,851025674,0.53402734,0.06274097,-0.84106576,-0.059051197,0.5507466999999999,0.22990836,0.10226536
268,851042341,-0.22979067,-0.16684516,0.111207925,-0.95236135,-0.36031124,-0.34716657,0.36712265,268,851042341,0.53338534,0.061651822,-0.841492,-0.059921663,0.483159,0.20962809999999998,0.34084034
269,851059008,-0.22992375,-0.16568321,0.11030615,-0.9526369,-0.29710892,-0.32641244,0.43420410000000004,269,851059008,0.5329076,0.060446285,-0.8418129000000001,-0.060886227,0.50102663,0.085442916,0.36180687
270,851075675,-0.23023127,-0.16471498,0.109689355,-0.95280176,-0.49129233,-0.30556026,0.384861,270,851075675,0.5326695,0.05933795,-0.8419771,-0.06178484,0.72361696,-0.20148972,0.37212276
271,851092342,-0.2305426,-0.16378124,0.10943946,-0.9529162,-0.7748835999999999,-0.060131412,0.42547894,271,851092342,0.5327446,0.058551636,-0.8419388000000001,-0.062403824000000004,0.75609964,-0.23090646,0.42318535
272,851109009,-0.23073506,-0.16283485,0.10945152,-0.95303035,-0.84552586,-0.07658015,0.23949432,272,851109009,0.5330383000000001,0.057949804,-0.8417641,-0.062813625,0.68632245,-0.027441049,0.30167866
273,851125676,-0.23085602,-0.16199157,0.109529406,-0.9531358,-0.53662676,-0.024907948,0.210042,273,851125676,0.53348607,0.057353918,-0.8414925,-0.06319688,0.43770766,0.0026141517,0.22657013
274,851142343,-0.23107342,-0.16129899,0.109413624,-0.95321405,-0.25530252,-0.11532422,0.076013565,274,851142343,0.53407127,0.056808807,-0.84114766,-0.06333476,0.17369057,0.04458645,0.13411903
275,851159010,-0.23151457,-0.16049255,0.10939883,-0.95324475,-0.11616619,-0.46411705,-0.08512783,275,851159010,0.53475535,0.056250922,-0.84076065,-0.06320037,0.07128767,0.18367155,-0.01630783
276,851175677,-0.23206632,-0.1595692,0.10942651,-0.9532624,0.08467017,-0.35542166,-0.022064208999999998,276,851175677,0.5354219,0.055487067,-0.8403931,-0.06311862,0.00238086,0.17469268,0.036951065
277,851192344,-0.23267108,-0.15863824,0.10934010000000001,-0.95328027,0.10264847,-0.0799424,0.010088920999999999,277,851192344,0.53600407,0.05462327,-0.8400663,-0.06328160000000001,-0.06991083,-0.018496283999999998,0.07660198
278,851209011,-0.23327877,-0.15763858,0.109110445,-0.9533239,0.0663009,0.08399927,-0.049990654,278,851209011,0.5365327,0.053875927000000004,-0.83976066,-0.063499674,-0.17885506,-0.26259140000000003,0.049334526
279,851225678,-0.23380186,-0.15657352,0.108837344,-0.95340246,0.10346677,0.009657632,-0.10485554,279,851225678,0.5370431999999999,0.053356299999999995,-0.8394690999999999,-0.06347874,-0.2619022,-0.27076063,-0.050053596
280,851242345,-0.2341906,-0.15547188,0.10856354,-0.9535186,0.25448605,-0.15526319,-0.083909035,280,851242345,0.53751886,0.053010895999999995,-0.83920366,-0.06325177,-0.2849741,-0.10742474,-0.06268692
281,851259012,-0.2345406,-0.15435207,0.10820401,-0.95365536,0.4186137,-0.22297479,-0.0051784515,281,851259012,0.5378949000000001,0.052620873,-0.83900696,-0.062989995,-0.31699592,0.09008248,0.025802612000000003
282,851275679,-0.23500241,-0.15323669,0.107711814,-0.9537773,0.40590766,-0.2906442,0.03842926,282,851275679,0.53810245,0.052060722999999996,-0.838915,-0.06290627,-0.28971922,0.11192051,0.031546593
283,851292346,-0.23555988,-0.15212461,0.107320234,-0.9538619,0.33404583,-0.2694577,0.018536568,283,851292346,0.53818995,0.051445358,-0.8388948,-0.06293362,-0.21656170000000002,-0.11795832,0.0068330765
284,851309013,-0.23614092,-0.151077,0.10694804,-0.9539267,0.27023393,-0.107637525,0.052594185,284,851309013,0.5382186999999999,0.050921115999999995,-0.8389131999999999,-0.06286832,-0.16879117,-0.098037474,0.01884079
285,851325680,-0.23670120000000003,-0.15016222,0.10666326400000001,-0.9539639000000001,0.21102943,-0.096107386,0.10733414,285,851325680,0.5381843000000001,0.05035424,-0.8389639999999999,-0.06294343,-0.15182476,-0.12187019,0.03020668
286,851342347,-0.23716535,-0.1494981,0.10636687,-0.95398605,0.2609867,-0.0038265698,0.14752483,286,851342347,0.5380959,0.04980389,-0.8390386000000001,-0.06314155,-0.1796843,-0.29364523,0.11032677
287,851359014,-0.23753484,-0.14894265,0.10610706,-0.9540099,0.24944995,0.008258999,0.14080143,287,851359014,0.53798205,0.049425832999999995,-0.8391274999999999,-0.0632257,-0.16692215,-0.33812770000000003,0.10829353
288,851375681,-0.23776066,-0.1485322,0.10582791,-0.9540487,0.3062518,-0.07575039,0.134202,288,851375681,0.5378258,0.04920705400000001,-0.8392411,-0.063217595,-0.10739708,-0.20765373,0.066319466
289,851392348,-0.23798409,-0.14822681,0.10557343,-0.9540687,0.25062364,0.0024731429999999997,0.08848953,289,851392348,0.5375850000000001,0.048954225999999997,-0.8393896999999999,-0.06348857,-0.10716776,-0.078655005,0.080002785
290,851409015,-0.23819312,-0.14796044,0.105320446,-0.95408577,0.1790196,0.1250551,0.0903635,290,851409015,0.53732246,0.048720356,-0.8395461,-0.063823216,-0.15697270000000002,-0.40849417,0.16730404
291,851425682,-0.23837346,-0.1476606,0.10510605,-0.9541109,0.06396846,0.22018915,0.04311657,291,851425682,0.53710663,0.048749442999999996,-0.839671,-0.06397544,-0.09347446,-0.50379574,0.07169151
292,851442349,-0.23832807,-0.14745624,0.10483693,-0.95418334,0.11417827,0.21877481,0.049074173,292,851442349,0.5368651,0.048967183,-0.83979815,-0.06416652,-0.05117955,-0.5113394,0.053567885999999995
293,851459016,-0.2381049,-0.147378,0.10433443,-0.95430624,0.007910291,0.080480225,-0.0037965775,293,851459016,0.5366552,0.04953488,-0.8399044,-0.0640969,0.0019678079999999997,-0.22819875,0.061676025
294,851475683,-0.23777729999999997,-0.14740933,0.103674665,-0.9544551,-0.027536768,-0.32919216,0.09696007,294,851475683,0.5364415,0.05005456,-0.8400135,-0.06404967,0.09224648,0.04650243,0.10530186
295,851492350,-0.23751168,-0.14757054,0.10312135,-0.9545563,-0.07886347,-0.29634464,0.10608482,295,851492350,0.53621614,0.050503977,-0.840126,-0.064111225,0.15760346,0.13166699,0.16978264
296,851509017,-0.23732319999999998,-0.14776592,0.10257711,-0.95463157,-0.24490902,-0.46155379999999996,0.19634056,296,851509017,0.53602695,0.05094047,-0.8402144,-0.0641878,0.22356838,0.15302020000000002,0.17799664
297,851525684,-0.23714171,-0.14789514,0.10229114,-0.9546872999999999,-0.39078209999999997,-0.42861912,0.025880814,297,851525684,0.535958,0.051380742,-0.84023535,-0.06413925,0.27029645,0.21111003,0.10394764
298,851542351,-0.23697399,-0.1479105,0.10217106,-0.9547394,-0.40386686,-0.45543227,0.03947735,298,851542351,0.5359592,0.051662974,-0.84022087,-0.06409024,0.24535061,0.36582655,0.04745388
299,851559018,-0.236803,-0.14785473,0.1022627,-0.95478076,-0.30029625,-0.607893,0.09556007400000001,299,851559018,0.5359574,0.051704846,-0.8402177,-0.064113185,0.19298372,0.27636704,0.06714344
300,851575685,-0.23668609999999998,-0.14769582,0.10257419999999999,-0.95480084,-0.18366359,-0.36949795,-0.040545463999999996,300,851575685,0.5359856,0.05169243,-0.8402107,-0.06397958,0.13545870000000002,0.28503793,0.058535576
301,851592352,-0.23662847,-0.14757311,0.1024963,-0.9548424000000001,-0.018795205,-0.53584284,0.11317253,301,851592352,0.5360059,0.051598877,-0.8402173000000001,-0.063798055,0.062695384,0.39252388,0.08244419
302,851609019,-0.23674087,-0.14746642,0.10242965,-0.9548382,-0.021159384,-0.6012089,0.09537506,302,851609019,0.5360163,0.051357745999999996,-0.84023786,-0.06363561,-0.024897107999999998,0.41324446,0.13256645
303,851625686,-0.23710303,-0.14725213,0.102702364,-0.95475227,-0.08422239,-0.54831815,0.08989906,303,851625686,0.5360058000000001,0.050886497,-0.8402759,-0.0636013,0.0051761129999999995,0.30404034,0.09069252
304,851642353,-0.23757803,-0.14698905,0.10311735400000001,-0.9546299000000001,-0.10023829,-0.23434679,0.016667366,304,851642353,0.53601885,0.050239883,-0.8403040999999999,-0.06363228,0.03972585,0.022179637000000002,0.053625107000000005
305,851659020,-0.23801056,-0.14673752,0.10355767,-0.9545132,-0.010250779,-0.048136952999999996,0.07697201,305,851659020,0.53603023,0.049614333,-0.84033537,-0.06361406,0.010110832,-0.19305925,0.07335091
306,851675687,-0.2383475,-0.14653964,0.103954956,-0.9544163,0.10455458599999999,0.15578853,0.11497307,306,851675687,0.53607696,0.049184732,-0.8403424999999999,-0.0634605,-0.0455126,-0.3368724,0.13171482
307,851692354,-0.23862551,-0.14638236,0.10415516,-0.95434904,0.12872404,0.20331995,0.11326885,307,851692354,0.5361259,0.04890004,-0.8403404000000001,-0.06329349999999999,-0.09435689,-0.36462665,0.16927433
308,851709021,-0.23885788,-0.14624915,0.104267225,-0.95429903,0.16456814,0.20075321,0.09513664,308,851709021,0.5361746999999999,0.04875389,-0.84032845,-0.06315128,-0.11906267,-0.39015517,0.15220833
309,851725688,-0.23906709,-0.14605378,0.10431909,-0.9542709999999999,0.112316884,0.35497802,0.07536602,309,851725688,0.53621525,0.04876471,-0.8403025,-0.063143045,-0.13184492,-0.42520764,0.15947914
310,851742355,-0.23922561,-0.14578275,0.104281105,-0.9542769,0.041633926,0.46953320000000004,0.043453217,310,851742355,0.53632504,0.049111985,-0.8402200000000001,-0.06304004,-0.08884953,-0.6666373999999999,0.13725471
311,851759022,-0.23918734,-0.14546989999999999,0.1041951,-0.95434356,0.06172405,0.49256065,0.027431487999999997,311,851759022,0.5364555999999999,0.049771722000000004,-0.8401142,-0.06282248,-0.0041658343,-0.8621234,0.049962044000000004
312,851775689,-0.23872773,-0.14534289,0.10391841,-0.9545082,0.25808594,0.49459064,0.03217411,312,851775689,0.53660053,0.051036794,-0.83999795,-0.06211839,-0.009798808,-1.0226469,0.0022192001
313,851792356,-0.23787831,-0.14548129999999998,0.10311553,-0.9547863999999999,0.41174117,0.46279353,0.09659481,313,851792356,0.53676397,0.053063944,-0.83985305,-0.060956105999999996,-0.05119028,-0.65012646,0.045666695
314,851809023,-0.23691425,-0.14583346,0.10187197,-0.95510554,0.37371950000000004,0.11271719,0.13036251,314,851809023,0.53681606,0.05538582400000001,-0.83974755,-0.05987784,-0.041669074,-0.15765938,0.051869392
315,851825690,-0.23604977,-0.14628269,0.100483075,-0.95539796,0.22392201,-0.35623306,0.098342896,315,851825690,0.53666717,0.057440165,-0.8397763,-0.058866557,-0.13532548,0.21606322,0.14342499
316,851842357,-0.23541750000000003,-0.14670926,0.09938112,-0.95560396,0.10308454,-0.6851715,-0.015095711000000001,316,851842357,0.53628474,0.05900481,-0.8399431,-0.05842014400000001,-0.14429460000000002,0.46146090000000006,-0.08986664
317,851859024,-0.23478812,-0.1471357,0.098471954,-0.95578724,0.13333204,-0.6736470999999999,0.022799492,317,851859024,0.53587216,0.060271714000000004,-0.8401378,-0.058112204,-0.21898788,0.24733521,0.017185211000000002
318,851875691,-0.23409075,-0.14756721,0.09772347,-0.9559685,0.13125405,-0.5667857,0.09880161,318,851875691,0.5354452,0.061472066,-0.8403605,-0.0575689,-0.28373986,0.17378697,0.11627865
319,851892358,-0.23328172,-0.14804931,0.09703088,-0.9561622999999999,0.108530976,-0.48113945,0.025979042,319,851892358,0.5349646,0.06267624,-0.8406279000000001,-0.05682879,-0.13586906,0.06627949999999999,0.017644882
320,851909025,-0.23233972,-0.14865077,0.096179545,-0.95638436,0.13995449,-0.5415453,-0.031090736,320,851909025,0.53448594,0.06394968,-0.8409119,-0.055700604,-0.024590895,0.2639566,-0.057634354000000006
321,851925692,-0.23149304,-0.14919317,0.09545701,-0.9565777,-0.033051476,-0.48131403,-0.110090256,321,851925692,0.53395385,0.06495774,-0.8412421999999998,-0.054640487,-0.04259889,0.48096842,0.08207512
322,851942359,-0.23087505,-0.14943537,0.094877765,-0.9567466999999998,-0.22963282,-0.29060683,-0.15971470000000001,322,851942359,0.53345585,0.06564592,-0.8415544,-0.053869024,-0.052420046,0.43096745,0.10267544
323,851959026,-0.23024593,-0.1496355,0.09439048,-0.9569152,-0.1491174,-0.54050565,-0.04340172,323,851959026,0.5330151,0.0661815,-0.84184474,-0.053035375,0.032065615,0.43336496,-0.02186966
324,851975693,-0.22960134,-0.15025641,0.09452088,-0.95696,0.13050596,-0.66459477,-0.15446186,324,851975693,0.53251344,0.06631864,-0.84220165,-0.052226855999999995,0.17881349,0.44087073,-0.16559505
325,851992360,-0.22893162,-0.15124908,0.094383135,-0.9569778,0.36329293,0.041165832,-0.32225513,325,851992360,0.5319259,0.06623136,-0.8426179,-0.05160944,-0.038667742000000005,0.17898285,-0.38306332
326,852009027,-0.22798026,-0.15278952,0.09425397,-0.95697284,0.82166225,-0.5602057,0.28562832,326,852009027,0.53145784,0.06645274,-0.8429511000000001,-0.050698046,-0.617923,-0.14378364,-0.32618713
327,852025694,-0.22728093,-0.1548941,0.09703266599999999,-0.9565231,1.2079008,-1.515212,0.5771303000000001,327,852025694,0.5311404000000001,0.0672755,-0.8431828000000001,-0.049059972,-0.82365686,0.06724362,-0.07488155
328,852042361,-0.22637899,-0.15815412,0.10024897,-0.9558716,1.4794884,-1.2781615,-0.25589275,328,852042361,0.53047615,0.06777396,-0.84366095,-0.04730952,-0.75063205,0.7318269000000001,-0.5044584
329,852059028,-0.22596037,-0.16281651,0.103399225,-0.9548517,2.0995076,-0.84641516,0.1686964,329,852059028,0.52940565,0.067288525,-0.84441704,-0.046495903,-1.0908688,0.62652045,-0.53735447
330,852075695,-0.22548327,-0.16940221,0.106188394,-0.9535118,2.5275689999999997,-0.1417236,0.57405853,330,852075695,0.5283394,0.06682318400000001,-0.8451360000000001,-0.04623265,-1.7603142,-0.63382554,0.35310364
331,852092362,-0.22489847,-0.17628326,0.107662834,-0.9522363000000001,2.3900843,0.27201090000000006,0.24164009,331,852092362,0.5270273,0.0672485,-0.84598255,-0.04509527,-1.6045171999999999,-0.70364225,0.07091236
332,852109029,-0.22430405,-0.18321228,0.10928757,-0.9508825000000001,2.1061275,-1.1072764,-0.123197556,332,852109029,0.52529764,0.06769086,-0.8470816999999999,-0.04396827,-1.025258,0.0015422953,-0.40424920000000003
333,852125696,-0.22390556,-0.19009747,0.112509266,-0.9492478000000001,0.9620993,-1.2361436000000001,0.19672394,333,852125696,0.5232863,0.06775599,-0.848348,-0.043434404,-0.5251115,-0.053657385999999994,0.12333965
334,852142363,-0.22356845,-0.19729911,0.11623425,-0.9474072,1.1159728,-0.2661015,0.46921825,334,852142363,0.520994,0.06778203,-0.8497655999999999,-0.043237537,-0.09633315,-0.27714428,0.3571272
335,852159030,-0.22278331,-0.20482111,0.11908354,-0.9456404,1.1674299,-0.0024119562,0.40429497,335,852159030,0.5185979000000001,0.06837977,-0.8512079,-0.042728445999999996,0.30629367,-0.51966786,0.26233768
336,852175697,-0.22189869,-0.21269427,0.12159623,-0.94378865,0.08775364599999999,-0.5891046,0.16001034,336,852175697,0.51622576,0.06948015,-0.8526299999999999,-0.041301012000000005,0.72803086,0.08043337,0.06763172
337,852192364,-0.2213008,-0.22116159999999999,0.12463656,-0.9415836,-0.8598359,-0.78515965,0.4871359,337,852192364,0.51391345,0.070304185,-0.8540117,-0.04017981,0.94101816,0.5562664,0.38403225
338,852209031,-0.22073656,-0.23026861,0.12843388,-0.93901914,-1.3211399,-0.65323067,0.56479836,338,852209031,0.5116627,0.07061171,-0.8553653,-0.03957109,1.0866988000000002,0.51715755,0.49829102
339,852225698,-0.22023836,-0.24022670000000002,0.13283756,-0.93602395,-1.1522555,-0.5373735,0.38333035,339,852225698,0.50938565,0.07055245,-0.856748,-0.039137367,1.3300105,0.3665762,0.22226524
340,852242365,-0.22008474,-0.25081757,0.13751936,-0.9325996999999999,-0.9758921999999999,-0.37003309999999995,0.532465,340,852242365,0.50742286,0.07034089,-0.8579413,-0.03887404,1.4203538,0.055728427999999997,0.6945180999999999
341,852259032,-0.22019675,-0.26165178,0.14205502,-0.92890924,-1.3370229999999999,0.23121671,0.6369629,341,852259032,0.50582486,0.07023204,-0.8589059000000001,-0.038592696,1.5655417,-0.10376688,0.8562603000000001
342,852275699,-0.22046126,-0.2726539,0.14634287,-0.9250086,-1.2615741000000003,0.28347182,0.7601433000000001,342,852275699,0.50454795,0.0701947,-0.85966086,-0.038568057,1.5404079,-0.111743405,0.72132206
343,852292366,-0.22057794,-0.28419998,0.15037374,-0.9208495999999999,-1.238005,-0.023255518,0.5632515,343,852292366,0.50364697,0.07006753,-0.8601890999999999,-0.038793214,1.3876791000000002,0.06458404,0.71561146
344,852309033,-0.22092381,-0.29584837,0.15435433,-0.91642874,-0.9738719000000001,-0.010987841000000002,0.54491043,344,852309033,0.50302845,0.06947879,-0.86055505,-0.039751388,1.2177353000000002,0.112210765,0.8865404
345,852325700,-0.22168866,-0.30724853,0.15846592,-0.9117794,-1.1584078000000002,0.07923763,0.4264307,345,852325700,0.50265235,0.06835012,-0.8607698,-0.04176391,1.0031753,-0.034076896,1.0432072000000001
346,852342367,-0.22277598,-0.31851915,0.16296713,-0.9068398999999999,-1.4268265,0.17551556,0.29745770000000005,346,852342367,0.502684,0.06751802,-0.8607261999999999,-0.04359763,1.2905035,-0.5431254,0.59582996
347,852359034,-0.22401287,-0.32991832,0.16774489999999997,-0.9015732,-1.201324,0.3505263,0.16672802,347,852359034,0.5031545000000001,0.06677671,-0.86042875,-0.045158762000000005,1.6182256000000002,-0.40346208,0.3715334
348,852375701,-0.22519387,-0.34170192,0.17201924,-0.8960676,-0.7956022,0.63142616,0.43717860000000003,348,852375701,0.504005,0.06591602,-0.8598794,-0.047346424000000005,1.2586671,-0.24709527,0.8995447
349,852392368,-0.22652909,-0.35378197,0.17539357,-0.8903709000000001,-1.0316677,0.7862505,0.45119762,349,852392368,0.5050662,0.06520547,-0.85916704,-0.04988636,1.0287572,-0.44787806,0.83794117
350,852409035,-0.22775434,-0.36606583,0.17833155,-0.8844896999999999,-1.1276576999999999,0.6323565,0.25633049999999996,350,852409035,0.5064715,0.06469035,-0.85822684,-0.052430093,1.0237617,-0.6583844,0.63274384
351,852425702,-0.2288439,-0.37836412,0.18129735,-0.87840927,-1.1442709999999998,0.65951324,0.23233318,351,852425702,0.5082918,0.06428293,-0.8570120000000001,-0.055118735999999995,0.9202878000000001,-0.5526185,0.6995125
352,852442369,-0.23002163,-0.3904986,0.1841742,-0.87217027,-1.0106657,0.7766941999999999,0.25805187,352,852442369,0.5103234,0.063810386,-0.8556323,-0.058239325999999994,0.8457683000000001,-0.5290901,0.5649271
353,852459036,-0.23095855,-0.40259844,0.18682338,-0.86583495,-0.8712421999999999,1.0161597,-0.064463615,353,852459036,0.5125371,0.06341518,-0.8540825000000001,-0.061867412000000004,0.7228713000000001,-0.74261516,0.46475792
354,852475703,-0.23168832,-0.4147187,0.18929185,-0.8593591,-0.69276077,0.8690789000000001,-0.20111275,354,852475703,0.51508105,0.06368265,-0.85228443,-0.065174356,0.7900222,-1.0082036,0.22601986
355,852492370,-0.23218979,-0.42674857,0.19152641,-0.8528139000000001,-0.515025,0.8686929,-0.27857494,355,852492370,0.5179838,0.0646867,-0.85022765,-0.067982085,0.7309986999999999,-0.8300907,0.09280968
356,852509037,-0.23222885,-0.43900988,0.19321017,-0.8461738999999999,-0.38099205,0.7323754,-0.30537415,356,852509037,0.5210076,0.06584496,-0.8480506,-0.070894435,0.5149287,-0.46367136,0.14622784
357,852525704,-0.23179823,-0.45144874,0.19451365,-0.8394216,-0.12754722,0.51358503,-0.20060158,357,852525704,0.5240377,0.06705263,-0.8458198,-0.074011005,0.19461273,-0.41944712,0.15060902
358,852542371,-0.23105599999999998,-0.46388838,0.19543491,-0.8326021,-0.24001548,0.37046468,-0.23570824,358,852542371,0.5271803,0.06838696,-0.84348106,-0.07709814599999999,-0.020331632,-0.5871358,0.23111916
359,852559038,-0.23044935,-0.47592217,0.19619983,-0.8257707000000001,-0.40469897,0.3213838,-0.29898262,359,852559038,0.5306024,0.070051424,-0.8409360999999999,-0.07987779,-0.17779875,-0.7064089,0.2732544
360,852575705,-0.22998098,-0.48757058,0.19718711,-0.8188415,-0.19767913,0.23059888,-0.30600643,360,852575705,0.5341898,0.07217326,-0.83824825,-0.08229507,0.24801266,-0.720059,0.062259674
361,852592372,-0.22979045,-0.49899018,0.19845732,-0.81167746,-0.47868675,0.8385745000000001,-0.6597576,361,852592372,0.5378403,0.074557014,-0.83548754,-0.08443668,0.45332316,-0.7722022,-0.15137005
362,852609039,-0.22905655,-0.5105973,0.19935061,-0.8044149,-0.17743237,0.639692,-0.6296901999999999,362,852609039,0.541461,0.07709262,-0.832694,-0.08659009,0.11093887,-0.29873806,-0.15538883
363,852625706,-0.22785357,-0.5225528,0.19997711,-0.79688823,-0.18198118,0.43217996,-0.644845,363,852625706,0.54511327,0.0798065,-0.8298191999999999,-0.08878487,-0.11282487,-0.28203198,-0.06894874599999999
364,852642373,-0.2260672,-0.5343564000000001,0.20022476,-0.78947294,-0.5319609000000001,-0.27496296,-0.46017456,364,852642373,0.54883796,0.08293258,-0.8269011999999999,-0.09018677,-0.07268462,0.30974784,-0.2674446
365,852659040,-0.22490723,-0.54552263,0.20065056,-0.7820241,-0.5638111,-0.51191664,-0.51604176,365,852659040,0.5523388000000001,0.08541149,-0.8241151,-0.09198488,-0.19649471,0.8316298000000001,-0.26321409999999995
366,852675707,-0.22454655,-0.55612934,0.20142367,-0.7744209,-0.011497786000000001,-0.6571376999999999,-0.50679016,366,852675707,0.55560726,0.08710182,-0.8214318000000002,-0.09467874,-0.24479362,0.35238728,-0.044992447000000005
367,852692374,-0.22494312,-0.5662441,0.2029269,-0.76654357,-0.7158803,-0.28188726,-0.5982294,367,852692374,0.55887395,0.08884973,-0.8187476,-0.09704709,-0.22769712,-0.07832360000000001,-0.12806320000000002
368,852709041,-0.22546178,-0.57611024,0.20484474,-0.75848716,-0.8385736999999999,-0.19838116,-0.4874754,368,852709041,0.56210315,0.09066105,-0.8160768,-0.09919517,-0.01457528,0.24639721,-0.28479767
369,852725708,-0.22673525,-0.5851058000000001,0.20726715,-0.7505219,-0.2687857,0.040748984,-0.17609882,369,852725708,0.5651401999999999,0.092158854,-0.8135009,-0.10168492,-0.35549050000000004,0.34106970000000003,-0.12358761
370,852742375,-0.22750668,-0.5939598,0.20952663,-0.7426651999999999,0.6042274999999999,-0.11963598,-0.32734203,370,852742375,0.5679746,0.0935076,-0.8110567,-0.104155585,-0.6457066,0.21595944,-0.25587750000000004
371,852759042,-0.22727075,-0.60240424,0.21089342,-0.7355144,0.47319692,-0.11171759,-0.16139507,371,852759042,0.5706003000000001,0.095173754,-0.8087895,-0.10591087,-1.0532838,0.49764293,-0.2751093
372,852775709,-0.22603916,-0.61063915,0.21144615,-0.728915,1.0249675999999999,-0.8521085999999999,-0.17521858,372,852775709,0.5728929,0.09672279,-0.8068033,-0.10727209,-1.2456015,1.0461841,-0.43652058
373,852792376,-0.22634783,-0.61812645,0.21303359,-0.72201353,0.05547614,-1.3212248,-0.11765671,373,852792376,0.5748787,0.097675845,-0.8050527,-0.10892441,-0.9989809000000001,1.0432757,-0.24988937
374,852809043,-0.22781108,-0.6242444,0.21535997,-0.7155706000000001,-0.36935028,-1.9124178,0.16190529,374,852809043,0.5765406,0.0981828,-0.80359906,-0.11040855,-0.96744496,1.1037606000000002,-0.3131895
375,852825710,-0.22996639,-0.6291524000000001,0.21754129,-0.7099006,0.2873599,-1.1712048000000002,0.26640892,375,852825710,0.5777057,0.09790037,-0.80253124,-0.11232005,-1.1337671999999999,0.91115,-0.22926807
376,852842377,-0.23214743,-0.63336134,0.21953670000000003,-0.7048154999999999,0.54407996,-0.26326507,0.017166138,376,852842377,0.57869875,0.09769365,-0.8015979999999999,-0.11403679,-1.0852997,0.08577388,-0.1641674
377,852859044,-0.23397150000000003,-0.6374597,0.22095992,-0.70005673,0.7180169,-0.12720637,0.102669716,377,852859044,0.5796005,0.09793929,-0.8007784,-0.11500309,-0.92425334,-0.1297501,-0.16303062
378,852875711,-0.23558144,-0.6414356999999999,0.22232707,-0.69543695,0.3996938,0.46513292,0.24607754,378,852875711,0.5804644,0.09867927,-0.7999761,-0.11559365,-0.33356985,-0.24207102,0.21181679
379,852892378,-0.23648989999999998,-0.64530253,0.22364224,-0.69111633,-0.025809600000000002,0.16429968,0.2503605,379,852892378,0.58134717,0.099583216,-0.7991661999999999,-0.11598431,0.022408068,-0.071437985,0.058709145
380,852909045,-0.23760511,-0.6488349,0.22463615,-0.68709254,-0.54781044,0.22853026,0.16721249,380,852909045,0.58220685,0.10027562,-0.79836136,-0.11661565,0.30220696,0.060896832000000005,0.21428490000000003
381,852925712,-0.23911574,-0.6523584,0.22544354,-0.6829550999999999,-0.4674884,-0.016730057,0.01365757,381,852925712,0.5830848000000001,0.1007409,-0.79754543,-0.11740886,0.30095705,0.20506917,0.1682024
382,852942379,-0.23998815,-0.6558831999999999,0.2253223,-0.6793036,-0.17941731,-0.1474838,0.09921169,382,852942379,0.58392704,0.100958146,-0.79677916,-0.11823658,0.043269426,0.367985,0.00027561188
383,852959046,-0.24034421,-0.6595678,0.22478534,-0.67577875,-0.07585762,-0.37805283,0.15162754,383,852959046,0.5847576,0.10102582,-0.79603004,-0.11911506,-0.15879925,0.09893516,0.20626926
384,852975713,-0.24136153,-0.6632938,0.22541657,-0.6715458000000001,-0.14445373,-0.057489432,0.22676182,384,852975713,0.58566886,0.10139434,-0.7952227,-0.11971773,-0.12123477,-0.16587953,0.15398788
385,852992380,-0.24186649999999998,-0.6669793,0.22586726,-0.6675503,-0.08149886,-0.29104146,0.0072307587,385,852992380,0.5865779000000001,0.10205784,-0.7944356,-0.11992877,-0.17920732,0.015539068,0.056624413
386,853009047,-0.24271750000000003,-0.6704929000000001,0.22636251,-0.6635419,0.10250075,-0.09866108,0.19973849999999999,386,853009047,0.5874463000000001,0.10262388,-0.79368407,-0.120171554,-0.41544563,0.23371318,0.017749786
387,853025714,-0.24331889999999998,-0.6735167,0.22674565,-0.6601197,0.25176135,-0.3255426,0.30514717,387,853025714,0.5881566,0.10311497,-0.7930654,-0.12036015,-0.7171717,0.14247118,-0.09198761
388,853042381,-0.24365638,-0.67616963,0.22702028,-0.6571823,0.5258784000000001,-0.40290782,0.2291975,388,853042381,0.58873564,0.103835724,-0.7925639,-0.12021323,-0.8168205,0.17113963,-0.124988556
389,853059048,-0.2434058,-0.67887175,0.22701946,-0.6544842,0.74599284,-0.43052372,0.10539627,389,853059048,0.58912134,0.10455389,-0.7922431999999999,-0.119814806,-0.8485482,0.34493809999999997,-0.15780829999999998
390,853075715,-0.24299665,-0.6811726,0.22710568,-0.6522114999999999,0.49294078,-0.57267135,0.32127285,390,853075715,0.5892345,0.10500432,-0.7921494000000001,-0.119483836,-0.9413633,0.3578022,-0.12791634
391,853092382,-0.24302204,-0.6826671,0.22743237,-0.6505234000000001,0.34552073,-0.5990175,0.33080387,391,853092382,0.58909154,0.10509207,-0.7922602,-0.11937602,-0.8862333,0.25135523,-0.057318687
392,853109049,-0.24338454,-0.6835946999999999,0.22806138,-0.6491923,0.39918834,-0.38542128,0.27640533,392,853109049,0.58882445,0.10514145,-0.79246485,-0.1192923,-0.60070896,0.03860415,0.052381515999999996
393,853125716,-0.24379355,-0.68401575,0.22880974,-0.64833134,-0.24605206,-0.26258424,0.18517303,393,853125716,0.58852005,0.10529878,-0.7927017,-0.11908185,-0.020603424,0.06957897,0.11738396
394,853142383,-0.24421598,-0.68447655,0.22963625,-0.64739317,-0.6082962,-0.36538312,0.02978611,394,853142383,0.58818007,0.10517873,-0.79297143,-0.119072564,0.38331085,0.23868987,0.09790802
395,853159050,-0.24504757,-0.68492204,0.23066412,-0.6462413,-0.5958409,-0.07429906,0.106892586,395,853159050,0.5878541,0.104815885,-0.7932245,-0.119315594,0.39809534,0.06313699,0.17106819
396,853175717,-0.2457201,-0.6854875,0.23144789999999998,-0.6451053000000001,-0.29456902,-0.01828973,0.12128734599999999,396,853175717,0.5875769000000001,0.10454245,-0.7934512,-0.11941405,0.16423419,-0.053280402000000004,0.047122000000000004
397,853192384,-0.24619392,-0.6860539999999999,0.23191448,-0.644154,-0.017300965,0.32762709999999995,0.18887138,397,853192384,0.5873728,0.10446638,-0.7936233,-0.11934066,-0.021677181,-0.15007308,0.122366905
398,853209051,-0.24615584,-0.68631345,0.23201112,-0.6438575,-0.14269872,0.28207009999999993,0.16889381,398,853209051,0.5872364999999999,0.104653694,-0.7937521,-0.11899122599999999,0.06466722,-0.17451054,0.053362846
399,853225718,-0.24571916,-0.68650705,0.23178509,-0.6438991999999999,-0.30190715,0.09982715,0.05631447,399,853225718,0.58712274,0.104835875,-0.7938624,-0.118654065,0.1804733,-0.04779629,0.07793617
400,853242385,-0.24508855,-0.68683314,0.23132752,-0.6439564,-0.22963426,0.16679487,0.15920639,400,853242385,0.5870844,0.10505379,-0.79391474,-0.118300654,0.23476191,-0.08631031,0.20766163
401,853259052,-0.24436305,-0.687208,0.23073858,-0.6440435,-0.34397432,0.041235457999999996,0.12145424,401,853259052,0.5871075,0.1053674,-0.79392046,-0.117868155,0.26656958,-0.05653978,0.17466354
402,853275719,-0.24379782,-0.6874971,0.23027994,-0.6441135,-0.54791236,0.047798022999999995,0.1716299,402,853275719,0.58718306,0.10565213,-0.7938828,-0.117490575,0.2586036,-0.069868304,0.1692648
403,853292386,-0.24321418,-0.6877263000000001,0.22984174,-0.64424574,-0.47097623,-0.065193474,0.11699581,403,853292386,0.5872961999999999,0.10582473,-0.7938123,-0.11724578,0.22397697,-0.052490845,0.13805294
404,853309053,-0.24298447,-0.6878558000000001,0.22973466,-0.64423233,-0.25799632,-0.15874259,0.08480644,404,853309053,0.5874291,0.10586029,-0.79371667,-0.11719484599999999,0.17561929,-0.010607108,0.15665436
405,853325720,-0.24316055,-0.68787307,0.2299995,-0.64405304,-0.3114281,-0.11228218,0.1310072,405,853325720,0.58755666,0.10580403,-0.7936161,-0.11728784,0.08668189999999999,-0.007849999,0.10755825
406,853342387,-0.24366325,-0.68769765,0.23034322,-0.64392745,-0.14564970000000002,-0.00742443,0.13175297,406,853342387,0.5876845,0.10570513,-0.79350936,-0.11745867,0.014236881000000002,-0.06104759,0.12256431599999999
407,853359054,-0.24402929999999998,-0.6874766999999999,0.23057015,-0.64394355,-0.052711844,0.0019066773000000002,0.16762447,407,853359054,0.5878201,0.10565817,-0.79339635,-0.1175857,-0.02399814,-0.07602033,0.12541962
408,853375721,-0.24420942,-0.6872419,0.2307194,-0.6440723,0.04044355,0.20962229999999998,0.062851906,408,853375721,0.5879627,0.10567702,-0.7932769000000001,-0.1176605,-0.01202902,-0.12924877,0.13842678
409,853392388,-0.24405706,-0.6870459,0.23057404,-0.64439124,0.015716147,0.02894124,0.1199522,409,853392388,0.5881278,0.10579346,-0.79314077,-0.117648885,0.018120196,-0.08029272400000001,0.10804844
410,853409055,-0.24374783,-0.6869101,0.23043674,-0.6447022,0.016116457,-0.12586394,0.049137115,410,853409055,0.5882874,0.10597067,-0.7930135,-0.11754989,-0.028166207999999998,0.06686686,0.10786438
411,853425722,-0.2435857,-0.6867479000000001,0.23021789,-0.64501417,-0.11743745,-0.25184065,0.1321106,411,853425722,0.58840483,0.10597670000000001,-0.7929215000000001,-0.117578186,-0.067517005,0.12051729,0.0796957
412,853442389,-0.24356684,-0.68648225,0.23010343,-0.64534503,0.015256826999999999,-0.12026707,0.14479065,412,853442389,0.58852005,0.10605719999999999,-0.79282504,-0.11757841,-0.05413618,-0.09984687,0.14694977
413,853459056,-0.24369434,-0.686118,0.22999032,-0.6457244000000001,-0.10209915,0.041236687,0.114946365,413,853459056,0.58868074,0.10625829,-0.7926953,-0.11746804,0.06144103,-0.079798035,0.17890835
414,853475723,-0.24349684,-0.68589693,0.22979297,-0.64610386,-0.114407286,-0.1280452,0.02404213,414,853475723,0.58884597,0.10635217,-0.7925635999999999,-0.11744232,0.14873894,-0.005874591,0.16315174
415,853492390,-0.24334049,-0.6858128000000001,0.22966848,-0.64629626,-0.11096066,-0.12702967,0.1161108,415,853492390,0.5890437,0.10641717,-0.7924011,-0.11749006,0.092410535,0.045898218,0.17952156
416,853509057,-0.24316716,-0.6857924,0.229539,-0.6464293000000001,-0.094192274,-0.24452898,0.07776451,416,853509057,0.58921164,0.10647214,-0.79225904,-0.11755462,-0.0055762012,0.03598536,0.09205532
417,853525724,-0.2431553,-0.68569857,0.22949964,-0.6465470999999999,-0.012399884,-0.11576798,0.10017586,417,853525724,0.5893857,0.106552854,-0.7921149000000001,-0.11758074,-0.07352101,0.0027492093,0.12252998
418,853542391,-0.24316272,-0.68554115,0.22943464,-0.64673424,0.05069363,-0.1517881,0.104234695,418,853542391,0.58951676,0.106619015,-0.7920081999999999,-0.11758282,-0.15097539999999998,0.055683505,0.06525898
419,853559058,-0.24324223,-0.6852759,0.22938079,-0.64700454,0.25023806,-0.05456242,0.15140724,419,853559058,0.58961856,0.10657788,-0.79192704,-0.11765559,-0.24217942,0.026768694,0.12502289
420,853575725,-0.24325581,-0.68482655,0.22923528,-0.6475266,0.087049805,-0.06732624,0.20122433,420,853575725,0.5897083000000001,0.106603555,-0.79185534,-0.117665485,-0.1964509,-0.098137334,0.112342834
421,853592392,-0.24324189999999998,-0.68425643,0.22899662,-0.6482185,-0.09960106,-0.10672084,0.12185764,421,853592392,0.5898369000000001,0.10678817,-0.7917536999999999,-0.11753712,-0.019335477,-0.09600893,0.15023041
422,853609059,-0.24314441,-0.68369967,0.22886421,-0.64888924,-0.25437298,-0.005322179000000001,0.04938507,422,853609059,0.58997387,0.10698224,-0.7916482,-0.11738367,0.19943525,-0.006777806700000001,0.11023235
423,853625726,-0.24289566,-0.6832471999999999,0.22871427,-0.64951146,-0.24401122,-0.28016165,0.0876255,423,853625726,0.59009403,0.10699657,-0.79155844,-0.11737205,0.13503848,0.20109835,0.107839584
424,853642393,-0.24281736,-0.6827766,0.2284838,-0.6501166,-0.11765543,-0.12238418,0.26568508,424,853642393,0.5901797,0.10678847,-0.7914815,-0.117649406,-0.10059558,0.036952503,0.19331837
425,853659060,-0.24273992,-0.6820833000000001,0.22818188,-0.6509785,-0.09494104,0.044868215999999995,0.21489525,425,853659060,0.5903244000000001,0.10694712,-0.7913628,-0.11757746,-0.12199382,-0.19226177,0.10484028
426,853675727,-0.24268687,-0.68117684,0.2279476,-0.6520289,-0.15855579,0.067901894,0.11173630000000001,426,853675727,0.5904768,0.107181735,-0.7912433000000001,-0.11740256,0.0070276945,-0.068735205,0.028570175
427,853692394,-0.24247829999999998,-0.68015236,0.2276383,-0.6532825,-0.1435455,0.042290438,0.14962482,427,853692394,0.5906145,0.10721747599999999,-0.79112726,-0.11745977,-0.06582323,-0.057987865,0.10328865
428,853709061,-0.24238606,-0.6788732,0.22724319,-0.65478325,-0.010010027,0.19471129999999998,0.25432014,428,853709061,0.59073776,0.10731020599999999,-0.7910258000000001,-0.11743865,-0.21318486,-0.10815004,-0.0018587112
429,853725728,-0.24243441,-0.6769534,0.22665459,-0.65695333,0.025091117000000003,0.11934955,0.33113098,429,853725728,0.5908321999999999,0.107521735,-0.7909507,-0.11727655,-0.2645808,0.033887636,0.045887947000000005
430,853742395,-0.24234678,-0.6744960999999999,0.2258571,-0.65978175,-0.30258536,-0.19768335,0.48893833,430,853742395,0.5908306,0.10752985,-0.7909586999999999,-0.11722173,-0.16323642,0.17157614,0.01312542
431,853759062,-0.2419344,-0.6715246,0.2249655,-0.6632596,-0.5429393,-0.14159133,0.30539417,431,853759062,0.5907701,0.10728709,-0.7909941999999999,-0.11750909,-0.0118077425,-0.17308067,0.14653397
432,853775729,-0.24168544,-0.6682653000000001,0.22454397,-0.6667758,-0.78296226,0.29936787,0.09200096,432,853775729,0.59080416,0.10749892,-0.79093677,-0.11753208,0.27732235,-0.36467502,0.13336277
433,853792396,-0.24180816,-0.6646613,0.22421934,-0.670433,-0.89568895,0.4177827,0.082775116,433,853792396,0.59093785,0.10794725,-0.7907824999999999,-0.117485754,0.3465698,-0.07976892599999999,0.1948328
434,853809063,-0.24140283,-0.6608337,0.22320631,-0.6746871999999999,-0.3042627,0.020919471999999998,0.26005936,434,853809063,0.5910707,0.10827269,-0.79065263,-0.117392905,-0.22479056,0.08142365,0.010155678000000001
435,853825730,-0.24066778,-0.6565111,0.22158548,-0.6796856,0.14668484,0.28928342,0.3807354,435,853825730,0.5912154000000001,0.108684406,-0.79053265,-0.11709138,-0.7687344,-0.061540827,-0.053510666
436,853842397,-0.239682,-0.6512359999999999,0.21981424,-0.6856575,-0.005781833,0.2776002,0.54951954,436,853842397,0.5913755999999999,0.10939011,-0.7904688,-0.11605099,-0.5568517,0.18120827,0.031639099999999996
437,853859064,-0.23763447,-0.6456645999999999,0.21742566,-0.692368,-0.32131708,-0.29608503,0.28949833,437,853859064,0.5913353,0.109785646,-0.7906147,-0.11488365,-0.031183634,0.86302334,-0.065006256
438,853875731,-0.23483737,-0.64023316,0.21437927,-0.6992816999999999,-0.26456994,-0.52540076,0.16670227,438,853875731,0.5910191,0.10955429,-0.7909732,-0.11426305,-0.12179594,0.66721064,-0.06142330000000001
439,853892398,-0.23234715,-0.6342674,0.21199842,-0.70624125,-0.040863756,-0.27407604,0.3567152,439,853892398,0.5905875,0.109696865,-0.7914523,-0.11303373,-0.5664918000000001,0.12762673,-0.17250538
440,853909065,-0.23051661,-0.62727433,0.20970796,-0.713731,0.26580787,-0.5441560000000001,-0.03972912,440,853909065,0.590047,0.1101451,-0.79205567,-0.111178145,-0.8326836999999999,0.19653651,-0.09780693
441,853925732,-0.22961869999999998,-0.61922586,0.20798844,-0.72150934,0.27651325,-0.97479475,0.038906097,441,853925732,0.58932376,0.110314555,-0.7928313,-0.10930274400000001,-0.9883868,0.2360489,0.08705616
442,853942399,-0.22989298,-0.6099880999999999,0.20755292,-0.7293736999999999,-0.6501663000000001,-1.3080926000000002,0.45604609999999995,442,853942399,0.58847505,0.11006641,-0.7937441999999999,-0.107484,-0.43903086,0.5538466999999999,0.18464851
443,853959066,-0.23121472,-0.599838,0.20845558,-0.7370759,-1.103159,-1.4789598,0.08200264,443,853959066,0.58740056,0.10898439,-0.7948831000000001,-0.10603846,-0.19112279999999998,1.545909,-0.1897564
444,853975733,-0.23313764,-0.58888596,0.20933652,-0.7450093000000001,-0.10479858,-1.1719846,-0.29965878,444,853975733,0.585963,0.10657159,-0.7963098000000001,-0.105738536,0.18952066,1.1623735,-0.019787788
445,853992400,-0.23509504,-0.57812446,0.21117885,-0.7522675,-0.71346754,-0.8549836999999999,-0.21534729,445,853992400,0.58473355,0.10467579,-0.7975727,-0.10491624,0.07790723,0.42863515,-0.0055627823
446,854009067,-0.23685956,-0.56691855,0.2117206,-0.7600496999999999,-0.8052823,-0.74475825,-0.2213192,446,854009067,0.5835996999999999,0.10334089999999999,-0.7988244999999999,-0.10301246,-0.009311102,0.52744275,0.0762167
447,854025734,-0.23839678,-0.55589473,0.21199487,-0.76759785,0.034464635,-0.27651370000000003,-0.31269264,447,854025734,0.5824384,0.10181659,-0.8000757,-0.101380885,0.105731465,0.3792503,0.17485523
448,854042401,-0.23917600000000003,-0.54498214,0.21204227,-0.77513075,-0.2667049,-0.5490503999999999,-0.18594074,448,854042401,0.58127576,0.1001372,-0.8013579000000001,-0.09958343,-0.1679606,0.5334654999999999,-0.011364937
449,854059068,-0.23925684,-0.53400296,0.21139520000000003,-0.7828854000000001,-0.4162027,-0.0029305902000000003,-0.30624294,449,854059068,0.5798201,0.097851336,-0.8028576,-0.09825324,-0.20966499,0.6048676,-0.19992733
450,854075735,-0.23956676,-0.5215995,0.21041375,-0.79137117,0.8814078000000002,-0.0015180999999999999,0.14025688,450,854075735,0.5780427,0.09518322,-0.8046001,-0.09708562,-0.44717029999999997,0.24818437,-0.06529236
451,854092402,-0.24030833,-0.5102048,0.20877199,-0.7989728,1.0149819,-0.00028665536,-0.5247593,451,854092402,0.57606983,0.09263169,-0.8064984000000001,-0.09551678,-0.8764475,0.03872535,0.020711899
452,854109069,-0.24119143,-0.5009962,0.20699082,-0.8049748999999999,0.22322401,0.50613874,-0.96165085,452,854109069,0.5742783,0.09052077,-0.8082123000000001,-0.09382691,-0.42150119999999996,-0.94715226,-0.007943153
453,854125736,-0.24242875,-0.49204704,0.20686091,-0.81014,-0.19416109,0.7262289000000001,0.07518673,453,854125736,0.5729225,0.08942559,-0.809584,-0.09130695,0.037728094,-1.2459245,0.060318947000000005
454,854142403,-0.24283804,-0.4823397,0.20580271,-0.81610274,0.069559604,0.96213275,-0.21727657,454,854142403,0.57145923,0.08874893,-0.81098324,-0.08868057,0.06659524,-0.8006901,0.19344234
455,854159070,-0.24219549,-0.47318384,0.20442276,-0.82197946,0.35847014,0.5678937,-0.08918476,455,854159070,0.5696199000000001,0.08805771,-0.81257445,-0.08661410000000001,-0.17784435,-0.1592151,0.01020813
456,854175737,-0.24116333,-0.4639655,0.20240167,-0.82801574,0.18353006,0.63998437,-0.39240837,456,854175737,0.5673549,0.08688707,-0.81447434,-0.08479819,-0.47507396,0.26736775,-0.15280628
457,854192404,-0.23958394,-0.45423108,0.19898091,-0.83467394,0.31353807,0.5214709,-0.3293209,457,854192404,0.5647479999999999,0.08500399,-0.8165776,-0.08387645,-0.7526361,0.057820566,-0.22907734
458,854209071,-0.23845828,-0.4447137,0.19622797,-0.840751,1.0578302,-0.61264837,-0.39165878,458,854209071,0.5623443,0.08352996,-0.8185148,-0.08261578,-0.8117776,-0.50315505,0.058573723
459,854225738,-0.23831639999999998,-0.43506179999999994,0.19462773,-0.8461955,-0.18627393,-0.4063603,-0.83798695,459,854225738,0.5602043000000001,0.08233129,-0.82028925,-0.08073494,-0.36334446,-0.24770927,0.06060791
460,854242405,-0.23892356,-0.42528892,0.19383009,-0.8511610999999999,0.10761987,-0.5402939,-0.68436337,460,854242405,0.5579947,0.08051566,-0.82207286,-0.07972179,0.3366789,-0.5211458999999999,0.17633247
461,854259072,-0.23972294,-0.41542879999999993,0.19388813,-0.85578024,-0.26056060000000003,0.7166656,-0.6054535,461,854259072,0.5556352,0.07878015,-0.82392806,-0.07877787,0.6500159000000001,-0.8358214,0.056280135999999995
462,854275739,-0.23914917,-0.40561333,0.19191337,-0.861078,0.03704308,1.3559648000000002,-0.26611614,462,854275739,0.55317664,0.07745035,-0.82584196,-0.07734582,0.7273393,-0.3214387,-0.24363327
463,854292406,-0.23766805,-0.39573035,0.18698263,-0.86715,0.37352246,1.4022236000000001,0.025569916,463,854292406,0.55091596,0.076253645,-0.82757735,-0.07611192,0.44978140000000005,-0.3495733,0.08071327
464,854309073,-0.2367161,-0.38581395,0.18201046,-0.87291783,-0.39338598,0.03637595,0.35029316,464,854309073,0.54937303,0.075544834,-0.82875985,-0.075097546,0.37437525,-1.2277606,0.92505264
465,854325740,-0.23637404,-0.37545216,0.17878237,-0.87818,-1.5869881000000001,-0.0762092,0.24959946,465,854325740,0.54816854,0.075812235,-0.82977945,-0.07232037,0.89846575,-0.8565458,0.5357255999999999
466,854342407,-0.23570779,-0.36521453,0.17671771,-0.88308066,-1.3693382,-0.7338613,-0.076125145,466,854342407,0.54699916,0.07572883,-0.8307725,-0.06981854,1.0727503999999999,1.0696863,0.01582241
467,854359074,-0.23518278,-0.35542014,0.17501414,-0.88754505,-0.57415044,-0.86792123,0.24802017,467,854359074,0.5457496000000001,0.07428875,-0.8317875,-0.06905222,0.8266394,1.1318018,0.27435303
468,854375741,-0.23512173,-0.34583324,0.17267558,-0.89179635,-0.58996814,0.013365571000000001,-0.0028533936,468,854375741,0.54453677,0.07235185,-0.8327978000000001,-0.06850484,0.47388100000000005,0.49462435,0.263422
469,854392408,-0.23556998,-0.33606476,0.16958529,-0.8959957000000001,-0.17960979,0.13703829999999997,-0.14509487,469,854392408,0.54348594,0.070542805,-0.83369595,-0.0678087,0.26169568,-0.30856133,0.14213276
470,854409075,-0.23633626,-0.32663387,0.16713935,-0.8997335,-0.122910835,-0.07480241,0.22282124,470,854409075,0.5429975,0.06938018,-0.8341978000000001,-0.06673989999999999,0.38117006,-0.721312,0.54917336
471,854425742,-0.23705803,-0.31730202,0.16497302,-0.903276,-0.44094529999999993,0.15491197,0.30566025,471,854425742,0.54274136,0.06861707,-0.834528,-0.06547188,0.8137253000000001,-0.49154454,0.64145374
472,854442409,-0.23725048,-0.30826184,0.16266292,-0.9067679,-0.8711081,-0.16446011,0.1463213,472,854442409,0.5422433000000001,0.06728617,-0.83502966,-0.06457855,0.9791440999999999,0.29957655,0.120752335
473,854459076,-0.23737039999999998,-0.29884404,0.16045710000000002,-0.91027546,-1.2390098999999999,-0.36345,-0.04118061,473,854459076,0.5416616999999999,0.065174125,-0.8356,-0.064248025,0.69399524,0.68413883,0.048394203
474,854475743,-0.23775342,-0.28970229999999997,0.15758435,-0.91362655,-0.24867493,0.12700039,0.123633385,474,854475743,0.54134154,0.06305247,-0.83597076,-0.06424226599999999,-0.07116116,0.11574727,0.23430920000000002
475,854492410,-0.2385284,-0.28058523,0.15446994,-0.9167964,0.66369545,0.42609963,0.35365677,475,854492410,0.54165804,0.06196559,-0.83584404,-0.064278424,-0.23287681,-0.8482016,0.6276045
476,854509077,-0.23925759,-0.27145526,0.15173395,-0.9198071,-0.0747203,-0.21474437,0.33430004,476,854509077,0.5425126,0.06175068,-0.8353444999999999,-0.06376986,0.3996063,-0.80268496,0.7617569000000001
477,854525744,-0.23975249,-0.26274666,0.14945429999999998,-0.9225761,-0.22696978,0.0067103617,0.119374275,477,854525744,0.54320836,0.06151009,-0.8349380999999999,-0.06340081,0.9003771999999999,-0.6967391,0.17692184
478,854542411,-0.23976469,-0.25430414,0.14748158,-0.92525226,-0.5027010999999999,0.23840764,0.27002907,478,854542411,0.54378027,0.061190158,-0.83460957,-0.06313415,0.8278620000000001,-0.7694656,0.17064762
479,854559078,-0.239231,-0.24630234,0.14534524,-0.92788947,-0.51139283,0.33239043,0.48398304,479,854559078,0.54450756,0.06118684,-0.83418113,-0.06252806,0.3082838,-0.29671179999999997,0.40636444
480,854575745,-0.23846231,-0.23877163,0.14252722,-0.93048936,-0.39310718,0.056698643,0.20485306,480,854575745,0.5453683000000001,0.06136925,-0.8336555,-0.06185449999999999,0.29918864,0.32161275,0.2817812
481,854592412,-0.23784149,-0.23151702,0.13952251,-0.9329335999999999,0.02778143,-0.46010379999999995,0.049227715,481,854592412,0.54641294,0.061443534,-0.8329685,-0.061817594000000003,0.18353185,0.30385754,0.26052952
482,854609079,-0.237411,-0.22382858,0.13688440000000002,-0.93530744,0.14097476,-0.7520355,-0.061938285999999995,482,854609079,0.54766244,0.06163104,-0.8321245,-0.061941206,0.056693614,0.048269577,0.38404465
483,854625746,-0.23723173,-0.21595393,0.13466482,-0.9375238000000001,-0.27403364,-0.67060596,0.036207199999999995,483,854625746,0.5491108,0.06221948,-0.8311573,-0.06151239,0.24002028,0.17514333,0.20145416
484,854642413,-0.23709418,-0.2082154,0.13260692,-0.9396001,-0.37662223,-0.6784278,0.13093948,484,854642413,0.55036813,0.062401414,-0.8303627,-0.060819104000000006,0.60126776,0.44680010000000003,-0.09066582
485,854659080,-0.23718457,-0.20075874,0.13065071,-0.9414723,-0.08864803,-0.5538430999999999,0.009520531,485,854659080,0.5515281,0.06182342,-0.8296446,-0.060703155,0.46344430000000003,0.6008104999999999,0.012375832
486,854675747,-0.23772766,-0.19331191,0.12884849999999998,-0.94314075,0.1369494,-0.19010405,0.35928726,486,854675747,0.5527638000000001,0.06114394,-0.82883763,-0.061171878,0.11581458,-0.15637878,0.48624802
487,854692414,-0.23856969,-0.18611154,0.1277149,-0.9445296999999999,-0.13266799,0.05799172,0.53566074,487,854692414,0.5542897,0.061067298,-0.82778925,-0.061637245,0.47097219999999995,-0.8009122,0.48383045
488,854709081,-0.23892851,-0.17962752,0.12647039,-0.9458609,-0.08814535,0.5892954,1.0120315999999998,488,854709081,0.5560390000000001,0.061609317000000004,-0.82658076,-0.061559297,1.0341898999999999,-1.161975,0.6276845999999999
489,854725748,-0.23877078,-0.1740408,0.124669276,-0.9471835,-0.53460723,0.7544999,0.8529415000000001,489,854725748,0.5578939,0.06230556,-0.82525575,-0.061850928,0.8458083000000001,-0.50552857,0.63311195
490,854742415,-0.23863645,-0.16941874,0.122909114,-0.9482845999999999,-0.7579758000000001,0.26602122,0.7353239,490,854742415,0.5600771999999999,0.062381744,-0.8236324,-0.06365562,0.497854,0.19970770000000002,0.65254784
491,854759082,-0.23889668,-0.16542208,0.12147444,-0.94910914,0.12670809,0.013537928000000001,0.5417404,491,854759082,0.56204677,0.06152176,-0.82215786,-0.06614378,0.29687974,0.14961936,0.2866783
492,854775749,-0.23936,-0.16204113,0.1201466,-0.9497445999999999,0.81802213,-0.47785902,0.22350693,492,854775749,0.5635111,0.060599282000000004,-0.82102454,-0.06856947,0.1243036,-0.30038940000000003,-0.3472252
493,854792416,-0.23952955,-0.15930758,0.11895094,-0.95031446,1.3067101,-0.57424855,-0.40215302,493,854792416,0.564539,0.060507952999999996,-0.82024264,-0.06954536,-0.02389577,-0.49714574,-1.0399017
494,854809083,-0.23961958,-0.15710124,0.11756507,-0.95083153,1.1643099,-0.59226084,-0.10781193,494,854809083,0.5656785,0.060585633,-0.81937027,-0.07049612,-0.5642522,0.1529386,0.07522011
495,854825750,-0.23980610000000002,-0.15489031,0.11660934,-0.95126486,0.14886303,-0.34175986,0.30441284,495,854825750,0.56695235,0.060669325,-0.8183727,-0.07176589,-0.7435841999999999,-0.061066087000000005,0.5969886999999999
496,854842417,-0.23970275,-0.15268508,0.11582901,-0.95174265,0.23659562,-0.39764956,-0.116669655,496,854842417,0.56812894,0.060250044,-0.8174577,-0.07322999,-0.62701327,0.6145129,-0.024834633
497,854859084,-0.23985747,-0.15035488,0.115216225,-0.9521489,0.39441950000000003,-0.7927569999999999,-0.13734245,497,854859084,0.56934106,0.05888256,-0.81650996,-0.075468786,-0.5889714,0.78512055,0.009480476
498,854875751,-0.24039274,-0.14792247,0.11489311599999999,-0.95243376,0.4591826,-0.9241598,-0.009712219,498,854875751,0.5705960999999999,0.057630554,-0.81555307,-0.07727996,-0.46016356,0.5499036,0.017124176
499,854892418,-0.24115749,-0.14556381,0.114887185,-0.9526046,0.90812176,-0.92997104,-0.45288563,499,854892418,0.5713184,0.056563355,-0.8150696,-0.0778311,-0.031261414,0.31505093,-0.9839754000000001
500,854909085,-0.24206333,-0.14349331,0.11512208,-0.9526607,0.99199116,-0.7301101999999999,-0.16640568,500,854909085,0.5716914000000001,0.05492821,-0.8148398,-0.07866489,-0.17845722,0.32153594,-0.36956882
501,854925752,-0.24321438,-0.14148358,0.11526576,-0.9526507,0.27253407,-0.21184695,0.28257084,501,854925752,0.5720496,0.053696405,-0.81459147,-0.079481095,-0.5742531,-0.05768017,0.48122692
502,854942419,-0.24429151,-0.13936526,0.115205415,-0.95269465,0.20516701,-0.18149453,0.061003685,502,854942419,0.5723537,0.052837163,-0.81439024,-0.07992622,-0.29387125,-0.0578703,0.22767353
503,854959086,-0.24532235,-0.13718826,0.11481132,-0.95279336,0.17979975,-0.20751734,-0.11310768,503,854959086,0.5725648,0.051684983,-0.8142615,-0.080478124,-0.03680901,0.24944544,-0.14740372
504,854975753,-0.24645820000000004,-0.13494664,0.11421806,-0.95289165,0.06709867,-0.35735059999999996,0.0065517426,504,854975753,0.5726291,0.049861737,-0.81420606,-0.08172269,-0.09253347,0.37487814,0.08284664
505,854992420,-0.24776149,-0.13266614,0.11392355,-0.9529091000000001,0.039280723999999996,-0.40257528,0.14169693,505,854992420,0.5726359000000001,0.047816067999999996,-0.8141653,-0.08328693,-0.2302626,0.093139805,0.28530407
506,855009087,-0.24905817,-0.13043705,0.11398721,-0.9528711999999999,0.25410482,-0.39567035,0.10217953,506,855009087,0.5727203000000001,0.046148043,-0.8141115,-0.08416965,-0.16480146,-0.15656054,-0.020053863999999998
507,855025754,-0.25024277,-0.12853083,0.11410550000000001,-0.9528056999999999,0.5854727,-0.2848723,0.037597656,507,855025754,0.57272094,0.044692225999999995,-0.81414634,-0.084613025,-0.13201524,-0.17333362,-0.15559006
508,855042421,-0.25143358,-0.12695209999999998,0.113933384,-0.9527245000000001,0.5480509,-0.095657274,0.09237194,508,855042421,0.5726384,0.043489117,-0.81422275,-0.08506217599999999,-0.18719527,-0.25438154,0.05194759400000001
509,855059088,-0.2525041,-0.12558113,0.113553904,-0.95266855,0.376919,-0.029433527999999997,0.12932587,509,855059088,0.5725347,0.042660076,-0.8143104999999999,-0.08534022,-0.21815088,-0.29879674,0.13110542
510,855075755,-0.2533515,-0.12443620000000001,0.113118745,-0.9526453000000001,0.22254945,-0.15884097,0.16092396,510,855075755,0.5724195,0.04197369,-0.8144071999999999,-0.08552836,-0.20144776,-0.29171145,0.13372707
511,855092422,-0.254065,-0.123438865,0.11302907,-0.9525957,0.25325412,-0.07740603,0.12423801400000001,511,855092422,0.5722264,0.041230038,-0.8145554,-0.08577203,-0.21831003,-0.29932144,0.11165619
512,855109089,-0.25463676,-0.12256893,0.11298694,-0.9525603000000001,0.31066259999999996,0.03673709,0.12479782,512,855109089,0.5719918,0.04048504,-0.81472933,-0.086041145,-0.20033914,-0.35700667,0.11749077
513,855125756,-0.25500700000000004,-0.12195787599999999,0.11289234,-0.952551,0.3294444,0.029971747000000003,0.035003662000000005,513,855125756,0.57174635,0.039899897000000004,-0.8149171,-0.08616497,-0.1795399,-0.22697201,0.07209301
514,855142423,-0.2553224,-0.12145968,0.11264457,-0.9525594999999999,0.21267584,-0.03792414,-0.029260635,514,855142423,0.57152,0.039287757,-0.8150977,-0.08624088,-0.11358482,-0.14128028,0.114920616
515,855159090,-0.2555234,-0.12118738,0.112226665,-0.9525896,0.08584797400000001,-0.16081855,0.16961956,515,855159090,0.57132024,0.038684018,-0.8152588000000001,-0.086314395,-0.029484935,-0.23298118,0.16099453
516,855175757,-0.25566107,-0.12102316,0.11216484,-0.9525808000000001,0.05940332,-0.12127106,0.11122131,516,855175757,0.5711184,0.038274292,-0.8154339,-0.086177826,0.005589165,-0.30553684,0.07617855
517,855192424,-0.25562632,-0.12101242,0.112179525,-0.95258975,0.16764422,-0.042573599999999996,0.092907906,517,855192424,0.5709075,0.038142323,-0.8156199000000001,-0.085873626,-0.0034438877000000003,-0.20982236,0.050149917999999995
518,855209091,-0.25555259999999996,-0.121124595,0.111991435,-0.95261747,0.1710128,0.03279868,0.09682560000000001,518,855209091,0.57066894,0.038166188,-0.81580335,-0.08570504,-0.017657971,-0.13436805,0.11878586
519,855225758,-0.25553605,-0.121283524,0.111538775,-0.9526548,0.13163841,0.08556305,0.08860588,519,855225758,0.57047135,0.038333338,-0.8159534,-0.08551639999999999,-0.06157916,-0.23364651,0.2124033
520,855242425,-0.25555742,-0.12142043599999999,0.110954285,-0.9526996999999999,0.028937776000000002,0.09015419999999999,0.08872986,520,855242425,0.57030463,0.03856595,-0.8160831000000001,-0.085287005,-0.046354353,-0.20214878,0.16695976
521,855259092,-0.2555825,-0.121447526,0.11047548,-0.9527453000000001,-0.004616325,0.060160328,0.084246635,521,855259092,0.57008785,0.03866573,-0.81622845,-0.085299835,0.011141673999999999,-0.2770338,0.11539078
522,855275759,-0.25549683,-0.12149698,0.11005624,-0.9528106,0.038851526000000004,0.14749168,0.09647560000000001,522,855275759,0.5698262,0.038766515,-0.81639016,-0.08545418,-0.018016485,-0.43474638,0.10625553
523,855292426,-0.25528008,-0.12159593,0.10954194,-0.95291513,0.08953354,0.19133116,0.15511608,523,855292426,0.5695768,0.039006554,-0.816551,-0.08547113,-0.03580007,-0.3775426,0.20572281
524,855309093,-0.25501433,-0.12172390000000001,0.108991474,-0.9530332,0.124234505,0.1304725,0.11714935,524,855309093,0.5693575,0.03956781,-0.8166708,-0.08552921,-0.02805311,-0.37925252,0.16719341
525,855325760,-0.25463292,-0.12207570000000001,0.10818257,-0.9531824000000001,0.32399338,0.10605698,0.08113861,525,855325760,0.5692033000000001,0.040610805,-0.8167349,-0.08545581,0.050545122000000005,-0.51214826,-0.09365939999999999
526,855342427,-0.25406048,-0.122711055,0.10720339999999999,-0.95336425,0.22700920000000002,0.035509783999999996,0.029859543,526,855342427,0.5689944,0.041841272,-0.81683016,-0.0853429,-0.009413471,-0.42315152,-0.020255089
527,855359094,-0.25332984,-0.12336957,0.10603292,-0.9536045,0.03267849,0.023790495,0.10421562,527,855359094,0.5686975999999999,0.04314608,-0.81698215,-0.08521676,-0.15918817,-0.2979598,0.27352238
528,855375761,-0.25251523,-0.123915814,0.10503860599999999,-0.9538595999999999,0.14072451,-0.043711115,0.17396545,528,855375761,0.5683887,0.044609275,-0.8171345,-0.08506276,-0.16950776,-0.17623696,0.21705437
529,855392428,-0.25149682,-0.124633834,0.10400081,-0.9541488000000001,0.18607792,-0.18684264,0.06810856,529,855392428,0.5680944,0.04610159,-0.8172765999999999,-0.084868036,-0.08214012,-0.11997448,0.061435699999999996
530,855409095,-0.25041620000000003,-0.1254022,0.10292776,-0.9544488000000001,0.08586404,-0.37336078,-0.037639618,530,855409095,0.5677694999999999,0.047543727,-0.81745726,-0.084504396,0.014041978,-0.059343499999999993,-0.0011177063
531,855425762,-0.2492715,-0.12622559,0.10172124,-0.9547690000000001,0.1393451,-0.33081654,0.04616928,531,855425762,0.56735533,0.049090499999999995,-0.81770456,-0.08400819,0.045215778,0.043345142,-0.052688599999999995
532,855442429,-0.24808978,-0.127171,0.10047187,-0.9550835999999999,0.187617,-0.4130728,0.06608963,532,855442429,0.56682557,0.05074696,-0.8180166999999999,-0.08356145,-0.06842089400000001,0.14610587,0.0073652267000000006
533,855459096,-0.2469545,-0.12812896,0.09940855,-0.955361,0.12184080000000001,-0.50415146,0.04456711,533,855459096,0.5663053000000001,0.052548874,-0.81833005,-0.08290561,-0.18288456,0.19743592,0.16621494
534,855475763,-0.24591914,-0.12895155,0.098515354,-0.9556099,0.11191589999999998,-0.44629514,0.08568287,534,855475763,0.56582785,0.054245554,-0.81862944,-0.08211017400000001,-0.1525914,0.35136393,0.20691967
535,855492430,-0.24496469999999998,-0.12971133,0.09788754,-0.95581686,0.047759328,-0.36719212,0.09008789,535,855492430,0.5653176999999999,0.055561215,-0.8189607,-0.08143809,-0.005611069000000001,0.20252820000000002,0.13453197
536,855509097,-0.24395975,-0.1306637,0.09725705,-0.9560084000000001,-0.04644532,-0.38996994,0.026543617000000002,536,855509097,0.5647951,0.056708977,-0.8193216,-0.08064266,0.09705916,0.16683485,0.0051574707
537,855525764,-0.24296357,-0.13154335,0.09657869999999999,-0.9562101999999999,-0.16945913,-0.3489286,-0.040183067,537,855525764,0.5642884,0.05767875,-0.8196985000000001,-0.079663105,0.16988727,0.26977196,0.035072327
538,855542431,-0.24222748,-0.13215517,0.09630634,-0.9563402,-0.18040292,-0.36321542,0.016842842,538,855542431,0.5637578000000001,0.058438342000000004,-0.82010305,-0.07869587,0.09164925,0.25613022,0.11085701
539,855559098,-0.24164583,-0.13273272,0.09616392,-0.9564215,0.013854199,-0.39192140000000003,0.081053734,539,855559098,0.5632147,0.05917638,-0.82052875,-0.07759014,0.044007465,0.06960811,0.12515163
540,855575765,-0.24107932,-0.13360175,0.09602782,-0.9564571,0.26985290000000006,-0.44132766,0.07515907,540,855575765,0.5626582,0.060189205999999995,-0.82096887,-0.07618055,0.09102610000000001,0.24786185,-0.08487892
541,855592432,-0.24060370000000003,-0.13456514,0.0963072,-0.95641375,0.114674814,-0.24507277,-0.45393085,541,855592432,0.5620903,0.06126727,-0.82143515,-0.0744682,0.025267245,0.4255115,-0.045213699999999996
542,855609099,-0.2408953,-0.13491882,0.09701185,-0.9562193999999999,0.12256610000000001,0.10118627,-0.47060966,542,855609099,0.5614969,0.061879265999999995,-0.8219366,-0.07288808,0.028832665,0.6304458000000001,-0.077747345
543,855625766,-0.24157831,-0.1352924,0.09770543,-0.9559235999999999,0.17656402,0.056125667000000004,-0.36866856,543,855625766,0.56092834,0.061890647,-0.8224188,-0.0718092,-0.08650443,0.09499937,-0.062184334
544,855642433,-0.24158720000000003,-0.1362503,0.09739952,-0.9558165000000001,0.28865802,0.023282114,0.5439148,544,855642433,0.5605428000000001,0.061824065,-0.8227767,-0.07076988,-0.06407267,-0.36600187,0.14944553
545,855659100,-0.24131946,-0.13809858,0.09724433,-0.9556348,1.0218258,0.024526887,0.9110975,545,855659100,0.5599084,0.061681636,-0.8233244000000001,-0.06953488,-0.3531272,-0.37894934,0.06534195
546,855675767,-0.24047798,-0.14071567,0.09744384,-0.95544475,1.3593593000000002,-1.2050579,0.14853096,546,855675767,0.55871385,0.062014055,-0.82426494,-0.06767949999999999,-1.009064,0.059457127,-0.6695156
547,855692434,-0.23974381,-0.14423731,0.09976676,-0.9548641,2.3106065,-2.037352,-0.043743134,547,855692434,0.5571729000000001,0.06249296,-0.8254456,-0.065519705,-1.8357226999999998,0.82285714,-0.66416264
548,855709101,-0.23983975,-0.14950654,0.10437845,-0.9535355999999999,3.074461,-1.9029460999999999,0.44126987,548,855709101,0.5554498000000001,0.06243712,-0.82673216,-0.06396306,-2.2833145,1.1918335,-0.28808117
549,855725768,-0.24031122,-0.1571391,0.109011725,-0.9516695,1.9143646,-1.8611683,-0.5536441999999999,549,855725768,0.5538951999999999,0.06152119,-0.8279136,-0.06304408,-1.8940941000000002,0.98880297,-0.38013268
550,855742435,-0.24160543,-0.16314779999999998,0.11283782,-0.9498831,1.4541872,0.08436513,-0.050513268,550,855742435,0.5525668,0.059843104,-0.82895476,-0.06263293,-1.1204951,-0.09406252,0.010744095
551,855759102,-0.24233526,-0.16962420000000003,0.11626222,-0.948148,1.4460863000000002,-0.46714586,0.9743347,551,855759102,0.55090976,0.05870441,-0.8301881,-0.061969344,-0.40296614,-0.9964681000000001,0.602087
552,855775769,-0.2421077,-0.17650013,0.11995175,-0.9464901,0.2392728,-1.053266,0.10336971,552,855775769,0.5486101999999999,0.05844883,-0.8318440999999999,-0.060382433,0.29347965,-0.22511286,-0.29012108
553,855792436,-0.24147005,-0.18398175,0.12405472,-0.94469774,0.3222527,-0.7812425000000001,-0.08270073,553,855792436,0.5461655,0.05809898,-0.83356804,-0.05909439,0.5616809,0.27136046,-0.22683334
554,855809103,-0.24113134,-0.19149072,0.12736353,-0.9428498,0.5575832,-0.14864796,0.5577297,554,855809103,0.54389817,0.057843525,-0.8351434000000001,-0.05800622,0.6006151,0.24900945,0.71440506
555,855825770,-0.24120201,-0.19900963,0.12975931,-0.9409462,0.18891616,-0.413667,0.5066414,555,855825770,0.541621,0.057505064,-0.8367136999999999,-0.05701194,0.91097665,0.22453485,0.37119293
556,855842437,-0.24169172,-0.20730117,0.13248184,-0.93864805,-0.39889452,-0.6349897,0.6465454,556,855842437,0.53951335,0.05717893,-0.8381681999999999,-0.05594906,1.1705212999999999,-0.27745655,0.47342873
557,855859104,-0.24197529999999998,-0.21655664,0.13601300000000002,-0.9359765,-1.1498351,-0.16714136,0.63726616,557,855859104,0.5374828,0.05703330400000001,-0.8395499,-0.054917242000000005,1.3052012,-0.30227745,0.55640316
558,855875771,-0.24190575,-0.22663429999999998,0.14033899,-0.9329652,-1.6646825,0.17713742,0.8509674,558,855875771,0.53568155,0.056771122,-0.8407444,-0.05451188,1.5606358,-0.5006416,0.8984966000000001
559,855892438,-0.24167694,-0.23765019,0.14511912,-0.9295458000000001,-1.766993,0.84772474,0.938509,559,855892438,0.53423023,0.056497365,-0.84169024,-0.054440300000000004,1.8587706000000002,-0.68109137,0.9489603000000001
560,855909105,-0.24143566,-0.24919918,0.14982541,-0.9258299999999999,-1.44866,1.2358159,0.7049941999999999,560,855909105,0.532998,0.056315027000000004,-0.84246206,-0.05476696,1.9016457999999998,-0.8942673000000001,0.71701527
561,855925772,-0.24131,-0.260782,0.15401787,-0.92197675,-1.3164084999999999,1.1479708,0.70252895,561,855925772,0.5323739000000001,0.056579175999999995,-0.84279203,-0.055483274000000006,1.613873,-1.0077305,1.0850476999999998
562,855942439,-0.24136639,-0.2723868,0.15781608,-0.9179556000000001,-1.5666864,0.9864988000000001,0.75895023,562,855942439,0.5323756,0.057207394,-0.8427094,-0.05607549,1.8257936999999997,-0.8457053,1.207509
563,855959106,-0.24151504,-0.28412053,0.161392,-0.9137280999999999,-1.8909464,0.91521704,0.62749195,563,855959106,0.53271323,0.057615463,-0.8423860000000001,-0.05729734,2.2025243999999997,-0.59768933,0.9513693000000001
564,855975773,-0.2417229,-0.29611809999999994,0.16514525,-0.90918195,-1.8435032,0.74086326,0.6693449,564,855975773,0.5334846,0.05775565,-0.84173816,-0.059459936,2.0233498,-0.5216576,0.9594784
565,855992440,-0.24192497,-0.30834794,0.1691085,-0.9043209999999999,-1.7805034,0.7480460999999999,0.6191082,565,855992440,0.53471106,0.05793103,-0.84076077,-0.062045857,1.5677869,-0.57457894,0.98441887
566,856009107,-0.24218406,-0.32073759999999996,0.17299978,-0.89919174,-1.3692331,0.9979091,0.34030724,566,856009107,0.53620833,0.05841061,-0.83957565,-0.06466597,1.4383396000000002,-0.67061704,0.52870464
567,856025774,-0.24252278,-0.33334982,0.17652574,-0.8938118,-0.98328835,0.6881797,0.17550468,567,856025774,0.5381475,0.058897622000000004,-0.83807033,-0.06757866,1.1588767,-0.46822432,0.54708195
568,856042441,-0.24309270000000002,-0.34618893,0.17961116,-0.8881437,-0.81686074,0.6216792,0.08169079,568,856042441,0.5406105999999999,0.05951909,-0.8361599000000001,-0.07095389,0.55948555,-0.31649864,0.90812683
569,856059108,-0.24360687,-0.3591452,0.18255302,-0.8822386999999999,-0.69376916,0.5142711,-0.06685352,569,856059108,0.54306704,0.060751263,-0.8342324000000001,-0.07378361,1.0176441999999999,-0.9111696,-0.024787902999999997
570,856075775,-0.24371499,-0.37234290000000003,0.18550251,-0.8761009,-0.3260095,0.43074846,-0.786953,570,856075775,0.5455346,0.061818082,-0.8323003000000001,-0.076464735,0.9805556000000001,-0.32647133,-0.53879356
571,856092442,-0.24349795,-0.38552329999999996,0.18819349,-0.8698645,0.042704944,0.24531832,-0.40699196,571,856092442,0.54835033,0.062793784,-0.830024,-0.08018204,0.042538985999999994,-0.4784130999999999,0.6005745
572,856109109,-0.24314642,-0.39863315,0.18988636,-0.8636638000000001,0.0025887270000000003,0.8773023999999999,-0.13674736,572,856109109,0.5513140999999999,0.064695396,-0.8276324,-0.08301757,-0.26707205,-0.6668195,0.2301035
573,856125776,-0.24197036,-0.41153854,0.19093102,-0.8576898999999999,0.28185472,0.5747651999999999,-0.5665511999999999,573,856125776,0.55420893,0.0668086,-0.8252893,-0.08536347,-0.01883499,-0.45564315,-0.47360420000000003
574,856142443,-0.24078529,-0.42383727,0.19244792,-0.85167396,0.19460483,-0.061308373,-0.78026104,574,856142443,0.55734056,0.06893919400000001,-0.8227368,-0.08788299599999999,-0.25483605,-0.26840004,-0.08047294599999999
575,856159110,-0.23992158,-0.43624997,0.19411979999999998,-0.84524643,0.19737118,-0.28893742,-0.5144367,575,856159110,0.56068003,0.07139832,-0.81998503,-0.09036042,-0.5160140999999999,-0.030506528999999998,0.28738403
576,856175777,-0.23894764,-0.44872585,0.19521055,-0.8387146999999999,0.39254642,0.008764725,-0.29699707,576,856175777,0.56374013,0.07387519,-0.81739926,-0.0927273,-0.4463044,-0.17702249,-0.30151844
577,856192444,-0.23756199,-0.46106800000000003,0.1961557,-0.8321681999999999,0.5151922000000001,0.14137441,-0.8778639000000001,577,856192444,0.566575,0.07622556400000001,-0.81499237,-0.09471076,-0.14338277,-0.12937169,-0.4955597
578,856209111,-0.23630664,-0.47297257,0.1976265,-0.82546985,-0.0350608,-0.15978929999999997,-0.9683428,578,856209111,0.5696223000000001,0.07865529,-0.81236994,-0.09694947,-0.23383702,-0.040029716,0.09389019
579,856225778,-0.23585719,-0.48487332,0.19950892,-0.8182088000000001,-0.24742773,-0.13175765,-0.56119347,579,856225778,0.57289,0.081527025,-0.8095452,-0.098930724,-0.050527785,-0.017067058,0.13188648
580,856242445,-0.23504226,-0.4975644,0.20094039,-0.810437,-0.23174360000000002,0.041890576,-0.35889053,580,856242445,0.5762799,0.08421832,-0.8065680000000001,-0.10127773,-0.45865574,0.13923365,0.04781818400000001
581,856259112,-0.23353948,-0.51005113,0.20143192,-0.8029525,0.023082462999999998,0.39323205,-0.45128536,581,856259112,0.5795028,0.087025255,-0.8037035,-0.10326794,-0.48477277,-0.26832396,-0.20519066
582,856275779,-0.23194566,-0.52174604,0.20234635,-0.79563737,0.5122736,-0.38580438,-0.5144595999999999,582,856275779,0.58226323,0.09019441,-0.8012236999999999,-0.10428438,-0.019923497,0.32548112,-0.70522213
583,856292446,-0.23042813,-0.53311855,0.20393515,-0.7880981,-0.43547046,-0.8457481,-0.8411226,583,856292446,0.58468354,0.09260004,-0.7989767,-0.105862625,-0.07996489,0.88881516,-0.03809738
584,856309113,-0.23023693,-0.54427487,0.2061819,-0.77990067,-0.68040985,-0.9863904,-0.35814095,584,856309113,0.58694756,0.094112076,-0.7968403000000001,-0.10807926,-0.25076544,0.6569086,0.103936195
