sep=,
DeviceTag:,47,,,,,,,,,,,,,,,,,
FirmwareVersion:,1.6.0,,,,,,,,,,,,,,,,,
AppVersion:,2020.4,,,,,,,,,,,,,,,,,
SyncStatus:,Synced,,,,,,,,,,,,,,,,,
OutputRate:,60Hz,,,,,,,,,,,,,,,,,
FilterProfile:,General,,,,,,,,,,,,,,,,,
Measurement Mode:,Sensor fusion Mode - Complete (Quaternion),,,,,,,,,,,,,,,,,
StartTime:,2021-03-24 15:25:31.470 +0800,,,,,,,,,,,,,,,,,
© Xsens Technologies B. V. 2005-2021,,,,,,,,,,,,,,,,,,,

PacketCounter,SampleTimeFine,Quat_W,Quat_X,Quat_Y,Quat_Z,FreeAcc_X,FreeAcc_Y,FreeAcc_Z
1, 846592252, -0.2364428, -0.6963459, 0.22111592, -0.6405507, 0.32851928, -0.15922515, 0.044680595
2, 846608919, -0.23633586, -0.69627637, 0.22103985, -0.64069206, 0.25516412, -0.104156926, 0.042895317
3, 846625586, -0.23611626, -0.6962357, 0.22089626, -0.6408667, 0.1215616, -0.22004393, 0.08266926
4, 846642253, -0.23582068, -0.69629, 0.22070843, -0.64098126, 0.05413808, -0.2506616, 0.037121773
5, 846658920, -0.23553477, -0.69643754, 0.22055228, -0.64097977, 0.034345392, -0.25450414, 0.08296871
6, 846675587, -0.23536827, -0.6965712, 0.22047985, -0.6409207, -0.11360717, -0.22924617, 0.106230736
7, 846692254, -0.23520017, -0.6966811, 0.22039144, -0.6408933, -0.14282885, -0.20275508, 0.12377453
8, 846708921, -0.23506811, -0.69680494, 0.22039673, -0.64080524, -0.112262845, -0.059715845, 0.08534145
9, 846725588, -0.23504072, -0.69690436, 0.220421, -0.64069897, -0.12961835, -0.0027146765, 0.124614716
10, 846742255, -0.23492466, -0.6969884, 0.22040369, -0.6406561, -0.115521945, -0.05721764, 0.10252571
11, 846758922, -0.23474558, -0.69713056, 0.22036524, -0.6405803, -0.02292293, -0.1264766, 0.059326172
12, 846775589, -0.23458946, -0.69730717, 0.22036923, -0.640444, -0.04171154, -0.22647697, 0.09110832
13, 846792256, -0.23457545, -0.6974225, 0.2204617, -0.6402915, -0.011554446, -0.19413687, 0.084742546
14, 846808923, -0.23461817, -0.69753265, 0.22064118, -0.640094, -0.0022932987, -0.1455845, 0.091576576
15, 846825590, -0.23462103, -0.6976455, 0.22076236, -0.6399281, -0.03617736, -0.107113555, 0.11056709
16, 846842257, -0.23462535, -0.6977021, 0.22082315, -0.6398439, -0.03801229, 0.021695843, 0.055488586
17, 846858924, -0.23446837, -0.6978061, 0.22075593, -0.63981116, -0.037300456, -0.02304061, 0.08449173
18, 846875591, -0.234345, -0.69787985, 0.22070073, -0.6397951, -0.1184061, -0.0035942001, 0.117503166
19, 846892258, -0.23427843, -0.6979769, 0.22071539, -0.6397085, -0.14992891, -0.03803073, 0.0862875
20, 846908925, -0.23418394, -0.69809586, 0.2207397, -0.63960487, -0.1789809, -0.10923637, 0.06486225
21, 846925592, -0.23411319, -0.69820696, 0.22075519, -0.6395042, -0.25185144, -0.14194246, 0.11094952
22, 846942259, -0.23405705, -0.6983027, 0.2207416, -0.63942474, -0.18053348, -0.158486, 0.08277702
23, 846958926, -0.23399028, -0.69839376, 0.22071384, -0.6393594, -0.12351008, -0.091933005, 0.12713432
24, 846975593, -0.233925, -0.6984514, 0.22070104, -0.63932484, -0.11159024, -0.05035445, 0.101919174
25, 846992260, -0.23383172, -0.6984744, 0.2207305, -0.63932353, -0.13209717, -0.1536208, 0.07944584
26, 847008927, -0.23385575, -0.6984286, 0.22081517, -0.63933563, -0.19723125, -0.13839811, 0.115345
27, 847025594, -0.23399718, -0.6983405, 0.22094537, -0.63933516, -0.21948072, -0.106998555, 0.09728813
28, 847042261, -0.23418027, -0.69826365, 0.22114766, -0.6392821, -0.2768469, -0.08956265, 0.11646366
29, 847058928, -0.23429358, -0.6982736, 0.22134945, -0.63915986, -0.29820573, -0.12639502, 0.056919098
30, 847075595, -0.23441534, -0.6983176, 0.22157206, -0.63899, -0.20652105, -0.06536178, 0.06547642
31, 847092262, -0.23456855, -0.6983519, 0.22179128, -0.6388203, -0.19381166, -0.1731232, 0.10147953
32, 847108929, -0.23474392, -0.69833076, 0.22197667, -0.63871455, -0.06938172, -0.09509571, 0.09985256
33, 847125596, -0.23484679, -0.6983131, 0.22211663, -0.63864714, -0.079870455, -0.09656251, 0.07570171
34, 847142263, -0.23493777, -0.6983038, 0.22219191, -0.63859767, -0.07143184, -0.054926857, 0.08970547
35, 847158930, -0.23499212, -0.69836116, 0.2222929, -0.63848, -0.12937595, -0.08956052, 0.07076645
36, 847175597, -0.23496765, -0.6984622, 0.22236167, -0.6383543, -0.14375839, -0.1582893, 0.08158207
37, 847192264, -0.2350377, -0.69856143, 0.22251622, -0.6381662, -0.17847487, -0.16398989, 0.10578632
38, 847208931, -0.23519364, -0.6985932, 0.22271763, -0.6380037, -0.0992055, -0.14380947, 0.08973503
39, 847225598, -0.23538937, -0.69862866, 0.22296536, -0.63780606, -0.07437287, -0.13832915, 0.089310646
40, 847242265, -0.23545316, -0.6986724, 0.22308254, -0.6376936, -0.008565128, -0.097396776, 0.08361721
41, 847258932, -0.23545618, -0.69872767, 0.22315022, -0.63760835, 0.0031485711, -0.068300866, 0.11587715
42, 847275599, -0.23548187, -0.6988209, 0.2232654, -0.63745636, -0.07188216, -0.11336376, 0.106422424
43, 847292266, -0.2354366, -0.69896907, 0.22338472, -0.6372688, -0.16950652, -0.07618193, 0.07633495
44, 847308933, -0.23542455, -0.6990763, 0.22348952, -0.6371189, -0.16368932, -0.12287334, 0.1068449
45, 847325600, -0.23554626, -0.69913954, 0.22373204, -0.63691926, -0.19420063, -0.11235952, 0.1199379
46, 847342267, -0.23570964, -0.6991836, 0.22396131, -0.63672966, -0.22001794, -0.14405209, 0.1105957
47, 847358934, -0.23585437, -0.69919604, 0.22415371, -0.6365949, -0.14693016, -0.1076121, 0.09954071
48, 847375601, -0.23603608, -0.69919366, 0.22437143, -0.6364534, -0.09261125, -0.028232591, 0.10981274
49, 847392268, -0.23607244, -0.69923186, 0.22448519, -0.63635784, 0.02638548, -0.11803619, 0.052194595
50, 847408935, -0.2361738, -0.69926435, 0.2247143, -0.6362037, -0.0840126, 0.004616325, 0.069211006
51, 847425602, -0.2362191, -0.6992816, 0.22483514, -0.63612527, -0.08944167, -0.10105982, 0.094610214
52, 847442269, -0.23633827, -0.6993401, 0.2250387, -0.6359446, -0.14353722, -0.11013679, 0.12064743
53, 847458936, -0.23653094, -0.6993652, 0.22525814, -0.63576776, -0.20664522, -0.11442131, 0.10457897
54, 847475603, -0.23669688, -0.699377, 0.22539987, -0.6356426, -0.15001743, -0.07626765, 0.09896088
55, 847492270, -0.23679021, -0.6994333, 0.22550519, -0.63550866, -0.09637314, -0.022325704, 0.08692169
56, 847508937, -0.23679915, -0.69953907, 0.2256111, -0.6353513, -0.09527944, -0.059819777, 0.09070206
57, 847525604, -0.23682468, -0.69967324, 0.22570245, -0.6351615, -0.05701251, -0.006840614, 0.103767395
58, 847542271, -0.2367588, -0.69980997, 0.22568971, -0.63504004, -0.037934788, -0.06611603, 0.10219002
59, 847558938, -0.23668417, -0.69989914, 0.22567342, -0.63497525, -0.077497475, -0.08022841, 0.089533806
60, 847575605, -0.23669522, -0.69998085, 0.22566849, -0.63488275, -0.16960196, -0.12580885, 0.1048851
61, 847592272, -0.23667634, -0.7000454, 0.22564389, -0.6348275, -0.13819465, -0.14835818, 0.07451248
62, 847608939, -0.23674092, -0.7001021, 0.22569227, -0.63472366, -0.115625486, -0.07879212, 0.11261368
63, 847625606, -0.2367467, -0.700212, 0.22574818, -0.6345805, -0.09110824, -0.119752206, 0.09234333
64, 847642273, -0.23678164, -0.7003199, 0.22584727, -0.634413, -0.0753009, -0.13554373, 0.103731155
65, 847658940, -0.23686458, -0.7003631, 0.22597276, -0.6342897, -0.10406713, -0.10312676, 0.10848999
66, 847675607, -0.23691073, -0.70038646, 0.22607052, -0.6342118, -0.11263416, -0.11741884, 0.12598515
67, 847692274, -0.23697023, -0.70037717, 0.2261285, -0.634179, -0.030931454, -0.09493277, 0.089990616
68, 847708941, -0.23695482, -0.70038074, 0.226175, -0.6341644, -0.07602184, -0.10783427, 0.12286663
69, 847725608, -0.236994, -0.70036775, 0.22622961, -0.6341446, -0.17663653, -0.07067871, 0.08046627
70, 847742275, -0.2370148, -0.7004355, 0.22627303, -0.63404644, -0.17304692, -0.08047841, 0.07942104
71, 847758942, -0.23702712, -0.7005432, 0.22634526, -0.6338971, -0.17035995, -0.052360255, 0.076685905
72, 847775609, -0.23700002, -0.70070094, 0.2263576, -0.6337285, -0.12152316, -0.08907483, 0.09142399
73, 847792276, -0.23702003, -0.7008141, 0.22639763, -0.6335814, -0.12910214, -0.075433835, 0.11067867
74, 847808943, -0.23702444, -0.70088816, 0.22637516, -0.63350594, -0.12541083, -0.08570224, 0.117510796
75, 847825610, -0.23697612, -0.7009458, 0.22632898, -0.6334768, -0.17049205, -0.081732094, 0.11556053
76, 847842277, -0.23690055, -0.7010089, 0.22627369, -0.6334551, -0.16741814, -0.109307446, 0.07095814
77, 847858944, -0.23680216, -0.70115995, 0.22625177, -0.6333325, -0.17765155, -0.11956792, 0.07007027
78, 847875611, -0.2367164, -0.70132077, 0.22624734, -0.63318807, -0.12708159, -0.1150391, 0.104530334
79, 847892278, -0.23667371, -0.70146537, 0.2262626, -0.63303834, -0.14656375, -0.066654466, 0.1151247
80, 847908945, -0.23663847, -0.7015688, 0.22631073, -0.6329196, -0.14401604, -0.14022532, 0.109025955
81, 847925612, -0.23669234, -0.7015989, 0.22637826, -0.63284194, -0.17003447, -0.11097776, 0.11889267
82, 847942279, -0.23680413, -0.701567, 0.22648267, -0.6327981, -0.1722915, -0.12698531, 0.08400631
83, 847958946, -0.2369443, -0.7015568, 0.22662339, -0.63270664, -0.19885825, -0.062105086, 0.07956505
84, 847975613, -0.23707503, -0.70159453, 0.22675395, -0.6325691, -0.14132445, -0.05178281, 0.08374596
85, 847992280, -0.2370666, -0.7017165, 0.22682132, -0.63241273, -0.11631318, -0.09000688, 0.07828617
86, 848008947, -0.23700733, -0.7018505, 0.22685203, -0.6322751, -0.100893244, -0.12686998, 0.09051895
87, 848025614, -0.23697515, -0.70192206, 0.22689892, -0.63219094, -0.115885876, -0.096147, 0.10750294
88, 848042281, -0.2368921, -0.7020158, 0.2268797, -0.63212484, -0.08521085, -0.07792019, 0.07118225
89, 848058948, -0.236879, -0.70207274, 0.22687794, -0.6320671, -0.11150866, -0.0557448, 0.09488964
90, 848075615, -0.23690039, -0.7020865, 0.22687359, -0.63204545, -0.14763215, -0.09327676, 0.11633682
91, 848092282, -0.23692381, -0.70216733, 0.2268907, -0.6319409, -0.103443526, -0.0867237, 0.07836914
92, 848108949, -0.23694852, -0.70227695, 0.22695804, -0.6317855, -0.12462518, -0.08038744, 0.10318756
93, 848125616, -0.23696494, -0.70238787, 0.22700015, -0.631641, -0.11123759, -0.10777392, 0.09214115
94, 848142283, -0.23699076, -0.7025035, 0.22706804, -0.6314781, -0.10342866, -0.10957588, 0.09745979
95, 848158950, -0.2369475, -0.7026152, 0.22707936, -0.6313661, -0.08427198, -0.071393505, 0.11567974
96, 848175617, -0.23685613, -0.7027101, 0.2270436, -0.63130754, -0.04042662, -0.044414483, 0.08048725
97, 848192284, -0.23679546, -0.7027672, 0.22700243, -0.6312816, -0.06446594, -0.10877348, 0.10365105
98, 848208951, -0.23675874, -0.7028107, 0.22697279, -0.63125765, -0.121616416, -0.1105342, 0.120565414
99, 848225618, -0.23669975, -0.7028842, 0.22692057, -0.6312166, -0.11240427, -0.10911266, 0.10279846
100, 848242285, -0.23669545, -0.70292497, 0.22695252, -0.6311611, -0.1314516, -0.097113475, 0.09343815
101, 848258952, -0.23670378, -0.7030091, 0.2270188, -0.6310408, -0.15883517, -0.11029414, 0.091659546
102, 848275619, -0.23667264, -0.70312953, 0.22707227, -0.63089895, -0.11994873, -0.17809892, 0.0825119
103, 848292286, -0.23672134, -0.703245, 0.22721371, -0.63070107, -0.1490305, -0.09733643, 0.0745163
104, 848308953, -0.23681928, -0.7032993, 0.22736855, -0.6305478, -0.13532, -0.08335458, 0.10979271
105, 848325620, -0.23690693, -0.70338684, 0.22747812, -0.6303778, -0.12606958, -0.030864792, 0.092004776
106, 848342287, -0.23696119, -0.70344186, 0.22753738, -0.63027453, -0.2158568, -0.04482586, 0.11724949
107, 848358954, -0.2369794, -0.70345885, 0.2275235, -0.6302538, -0.1698638, -0.119797245, 0.092944145
108, 848375621, -0.23697019, -0.70351017, 0.227513, -0.6302037, -0.08694866, -0.070914626, 0.0912447
109, 848392288, -0.23689006, -0.70358264, 0.22744833, -0.6301765, -0.07945165, -0.1317791, 0.097649574
110, 848408955, -0.23684543, -0.7036737, 0.22743921, -0.6300947, -0.07704911, -0.10077383, 0.094530106
111, 848425622, -0.23682247, -0.70375526, 0.227494, -0.6299924, -0.08873515, -0.09253045, 0.11080551
112, 848442289, -0.23679419, -0.70383936, 0.2275433, -0.6298914, -0.17236196, -0.10258507, 0.0871315
113, 848458956, -0.23676965, -0.7039214, 0.22759919, -0.62978876, -0.14177957, -0.06787451, 0.09183121
114, 848475623, -0.2367702, -0.703978, 0.22762515, -0.6297158, -0.17312409, -0.15312694, 0.12937927
115, 848492290, -0.23679687, -0.70403117, 0.22764842, -0.6296379, -0.1209694, -0.053059183, 0.103972435
116, 848508957, -0.23677485, -0.70404994, 0.22766148, -0.6296205, -0.14436042, -0.09256398, 0.10768032
117, 848525624, -0.23677889, -0.7040636, 0.22765002, -0.62960786, -0.23882633, -0.05972959, 0.119997025
118, 848542291, -0.23683842, -0.7040136, 0.22765107, -0.62964094, -0.17325763, 0.009292998, 0.12442207
119, 848558958, -0.23678516, -0.7040592, 0.22763003, -0.6296176, -0.110144444, -0.13886368, 0.06185913
120, 848575625, -0.23680954, -0.7041103, 0.22766349, -0.62953913, -0.15018941, -0.09382191, 0.12118721
121, 848592292, -0.23684965, -0.7041619, 0.22770876, -0.62945, -0.16377638, -0.12337971, 0.0916729
122, 848608959, -0.23696302, -0.7041594, 0.22779667, -0.6293783, -0.1336384, -0.07245921, 0.0817337
123, 848625626, -0.23698436, -0.7042016, 0.22783516, -0.6293092, -0.098461874, -0.109939985, 0.073488235
124, 848642293, -0.23699467, -0.7042154, 0.2278337, -0.6292904, -0.16632202, -0.08665374, 0.11278343
125, 848658960, -0.23697908, -0.7041919, 0.22779042, -0.6293381, -0.121987954, -0.12996876, 0.099843025
126, 848675627, -0.23698963, -0.70419276, 0.22776416, -0.6293428, -0.04457474, -0.10441877, 0.07712746
127, 848692294, -0.23698628, -0.7042229, 0.22775102, -0.629315, -0.12494989, -0.06842335, 0.11274147
128, 848708961, -0.23695593, -0.7042533, 0.22770897, -0.62930775, -0.1666245, -0.086447544, 0.09944725
129, 848725628, -0.23693343, -0.7043001, 0.22767985, -0.6292743, -0.12817407, -0.101737395, 0.071442604
130, 848742295, -0.23695329, -0.70431083, 0.2276769, -0.6292559, -0.1602703, -0.07167513, 0.11557484
131, 848758962, -0.23694688, -0.7043591, 0.22766013, -0.6292102, -0.123081826, -0.14922597, 0.08261013
132, 848775629, -0.23693828, -0.7044109, 0.22763619, -0.62916434, -0.10309082, -0.090381265, 0.0972805
133, 848792296, -0.23693794, -0.70444256, 0.2276687, -0.6291172, -0.11820075, -0.09321764, 0.08337879
134, 848808963, -0.23700835, -0.70439476, 0.22766972, -0.6291438, -0.09922891, -0.09987598, 0.12441254
135, 848825630, -0.2370389, -0.70437926, 0.22769526, -0.6291404, -0.139525, -0.10505176, 0.08801937
136, 848842297, -0.23702559, -0.7044084, 0.22772738, -0.629101, -0.13776127, -0.042925663, 0.09376812
137, 848858964, -0.23703173, -0.70442146, 0.2277483, -0.6290766, -0.19766161, -0.071403116, 0.09741211
138, 848875631, -0.23705567, -0.70440984, 0.22775048, -0.62907976, -0.11905244, -0.09390271, 0.105615616
139, 848892298, -0.23711158, -0.7043431, 0.227714, -0.6291467, -0.1647814, -0.09183108, 0.13697338
140, 848908965, -0.23721062, -0.7042566, 0.22769818, -0.62921184, -0.19763787, -0.118677, 0.109399796
141, 848925632, -0.23728426, -0.7042036, 0.22767565, -0.6292517, -0.14624822, -0.08142622, 0.09052467
142, 848942299, -0.23733558, -0.7041752, 0.22768068, -0.6292622, -0.13001241, -0.08856444, 0.10874081
143, 848958966, -0.23741402, -0.7041019, 0.22769903, -0.62930804, -0.13098586, -0.07573602, 0.100559235
144, 848975633, -0.23738326, -0.7041019, 0.22769691, -0.6293203, -0.06989206, -0.12714513, 0.0960598
145, 848992300, -0.23733464, -0.7041163, 0.22766382, -0.62933457, 9.457392E-4, -0.13408598, 0.06679535
146, 849008967, -0.23730056, -0.70410526, 0.22767168, -0.62935674, -0.030797794, -0.14239329, 0.10317993
147, 849025634, -0.23736626, -0.7040714, 0.22771965, -0.62935257, -0.12009586, -0.12990315, 0.11257076
148, 849042301, -0.23746306, -0.70400214, 0.22776254, -0.6293782, -0.12750134, -0.07025504, 0.10342407
149, 849058968, -0.23749977, -0.7039387, 0.22780554, -0.62941957, -0.1718681, -0.06610161, 0.1067667
150, 849075635, -0.23751652, -0.70388585, 0.22778805, -0.6294787, -0.1566168, -0.06885339, 0.103037834
151, 849092302, -0.23756522, -0.7037862, 0.22771502, -0.6295982, -0.16507399, -0.08626136, 0.124661446
152, 849108969, -0.23758315, -0.7036882, 0.22767927, -0.62971395, -0.18191709, -0.09699635, 0.08143997
153, 849125636, -0.23751421, -0.70368797, 0.22765578, -0.6297487, -0.16791964, -0.10696246, 0.061938286
154, 849142303, -0.2375401, -0.7036199, 0.2276145, -0.62982976, -0.16877659, -0.060739085, 0.12199116
155, 849158970, -0.23762943, -0.70355886, 0.22764365, -0.6298537, -0.119724326, -0.061268926, 0.12839699
156, 849175637, -0.2376195, -0.703547, 0.227644, -0.6298708, -0.17245813, -0.1288721, 0.047657013
157, 849192304, -0.23761316, -0.7035482, 0.227644, -0.6298717, -0.11451653, -0.090795435, 0.10698891
158, 849208971, -0.23768935, -0.7035108, 0.22767591, -0.62987316, -0.05675877, -0.12655807, 0.12264347
159, 849225638, -0.23774706, -0.7034641, 0.22770506, -0.629893, -0.03290541, -0.11473166, 0.1224699
160, 849242305, -0.23775889, -0.7033756, 0.22772749, -0.62997925, -0.069223806, -0.12491558, 0.12459183
161, 849258972, -0.23779392, -0.7032338, 0.22773564, -0.63012147, -0.08808914, -0.10072991, 0.11527634
162, 849275639, -0.23780198, -0.70314467, 0.22778542, -0.6301998, -0.10764854, -0.06069595, 0.06726742
163, 849292306, -0.23783042, -0.7030567, 0.22775438, -0.6302985, -0.10149209, -0.08150568, 0.08522415
164, 849308973, -0.23786566, -0.70294535, 0.22770402, -0.63042766, -0.12776007, -0.08802119, 0.1202507
165, 849325640, -0.23786172, -0.70283985, 0.22767094, -0.6305588, -0.15227456, -0.13373506, 0.075387
166, 849342307, -0.23786439, -0.7027093, 0.22760612, -0.63072664, -0.103836186, -0.11015523, 0.1282978
167, 849358974, -0.23791094, -0.7024672, 0.22748464, -0.63102233, 0.03003947, -0.104146644, 0.18674183
168, 849375641, -0.2378102, -0.7021319, 0.22722557, -0.63152665, 0.09887269, -0.17321986, 0.17242718
169, 849392308, -0.23770356, -0.701669, 0.22701956, -0.6321551, 0.009508073, -0.27139422, 0.15842056
170, 849408975, -0.23776196, -0.70106417, 0.22691092, -0.6328428, -0.10714161, -0.20712052, 0.16435719
171, 849425642, -0.23788956, -0.70032454, 0.22692053, -0.63361, -0.29254684, -0.1654453, 0.15502357
172, 849442309, -0.23807591, -0.69960713, 0.22696365, -0.63431644, -0.29896238, -0.08164168, 0.11739826
173, 849458976, -0.2384304, -0.69878364, 0.22719991, -0.6350062, -0.484919, -0.010821827, 0.1841135
174, 849475643, -0.23874384, -0.6979252, 0.22741888, -0.6357536, -0.5387136, -0.065560594, 0.14619255
175, 849492310, -0.23923461, -0.69700015, 0.22771622, -0.63647735, -0.5884324, 0.024248473, 0.20308495
176, 849508977, -0.23975886, -0.6960239, 0.22804591, -0.63722986, -0.6242522, -0.0060993335, 0.18088341
177, 849525644, -0.24033578, -0.69498897, 0.22843629, -0.63800174, -0.58315605, 0.008526237, 0.1948576
178, 849542311, -0.24101748, -0.69381654, 0.22890787, -0.6388509, -0.58078235, 0.14235418, 0.2385664
179, 849558978, -0.24148396, -0.69253635, 0.22924922, -0.6399407, -0.6793409, 0.065683976, 0.18760681
180, 849575645, -0.24202392, -0.6910709, 0.22959194, -0.6411967, -0.98257244, 0.12846977, 0.12340641
181, 849592312, -0.24263749, -0.68952733, 0.22994351, -0.6424993, -0.93793035, -0.0015946532, 0.030077934
182, 849608979, -0.24329434, -0.68787986, 0.23030339, -0.64388645, -0.8356167, 0.23319855, 0.048329353
183, 849625646, -0.24397439, -0.68611026, 0.23049209, -0.6454479, -0.6853628, 0.3831277, 0.12595844
184, 849642313, -0.24457075, -0.6841781, 0.2304442, -0.64728755, -0.53430563, 0.48865777, 0.24728012
185, 849658980, -0.24484722, -0.6820188, 0.23006709, -0.6495919, -0.34656635, 0.35320958, 0.24828625
186, 849675647, -0.24464689, -0.6795839, 0.22924964, -0.6525018, -0.17494906, 0.25101107, 0.16387367
187, 849692314, -0.24400905, -0.67673486, 0.2278297, -0.65618855, 0.14672641, 0.19361609, 0.11793518
188, 849708981, -0.2424507, -0.6735333, 0.22550726, -0.66084605, 0.35077605, -0.17391308, 0.172225
189, 849725648, -0.24061093, -0.6699659, 0.22281557, -0.66603726, 0.45717943, -0.06485284, 0.17704487
190, 849742315, -0.2385855, -0.66605824, 0.22010319, -0.6715643, 0.7543589, 0.06365716, 0.31747437
191, 849758982, -0.23579904, -0.6618739, 0.21715225, -0.67761856, 0.6211357, -0.20027499, 0.33019733
192, 849775649, -0.23265521, -0.6570473, 0.21399029, -0.6843749, 0.48558933, -0.5973745, 0.36496258
193, 849792316, -0.2299909, -0.65102476, 0.21110484, -0.69188595, 0.6353739, -0.84976476, 0.42167854
194, 849808983, -0.22740883, -0.64371806, 0.20814444, -0.70042026, 1.0011921, -1.5430467, 0.31782818
195, 849825650, -0.2255382, -0.6357884, 0.20617734, -0.70879966, 0.7274307, -2.2725675, 0.09758949
196, 849842317, -0.22597848, -0.6273678, 0.20648956, -0.7160346, -0.19912423, -2.1802723, 0.08918381
197, 849858984, -0.22735661, -0.61826485, 0.20852157, -0.7228945, -0.3424918, -1.5552292, -0.18524456
198, 849875651, -0.22956292, -0.6084592, 0.2105851, -0.7298853, 0.064742595, -0.497086, -0.34094238
199, 849892318, -0.23288946, -0.5971103, 0.21394035, -0.7371918, -0.7433323, -0.06810921, 0.07760048
200, 849908985, -0.23463117, -0.5868897, 0.21606441, -0.7441945, 0.50428087, -0.30734417, -0.57052994
201, 849925652, -0.2354774, -0.5775911, 0.21724877, -0.75082755, 0.60345495, -0.3014366, -0.445508
202, 849942319, -0.23677593, -0.56645405, 0.2174723, -0.7587972, -0.71602196, -0.2835719, 0.3757229
203, 849958986, -0.23875086, -0.5547805, 0.21839339, -0.7664996, -0.6076405, -0.025751598, -0.14490604
204, 849975653, -0.23980494, -0.5446412, 0.21896712, -0.77324855, 0.5397293, -0.18144569, -0.9644594
205, 849992320, -0.23994005, -0.53380287, 0.21831657, -0.7809108, -1.4786993, 1.6524142, -0.11886215
206, 850008987, -0.23976637, -0.524262, 0.21690957, -0.7877894, 0.1890075, 0.5392837, -0.40564728
207, 850025654, -0.23946504, -0.51723635, 0.21585068, -0.79280007, 0.28056514, 0.37658077, -0.5205536
208, 850042321, -0.23818609, -0.5090007, 0.21409775, -0.79896694, -1.6194311, 0.67205775, 0.93639946
209, 850058988, -0.23734312, -0.5005938, 0.21194206, -0.80508083, -0.24970125, 0.38295916, 0.08058739
210, 850075655, -0.23654899, -0.49204484, 0.20941909, -0.81122166, -0.44271708, 0.3016048, 0.13300037
211, 850092322, -0.23621726, -0.48371106, 0.20746131, -0.8168139, -0.9221112, -0.6599143, -0.2538271
212, 850108989, -0.23618695, -0.47572598, 0.20643122, -0.82175845, -0.40181455, -0.4637916, -0.33859158
213, 850125656, -0.23588662, -0.46779552, 0.20480953, -0.8267878, 0.3402132, -0.30383244, -0.37365723
214, 850142323, -0.23507267, -0.4600405, 0.20210676, -0.8320196, 0.7643575, 0.065788694, -0.4794426
215, 850158990, -0.23464507, -0.4512887, 0.19908838, -0.83764213, 0.32882294, -0.1518514, -0.5189972
216, 850175657, -0.23487628, -0.44261688, 0.19718553, -0.84263974, 0.09745919, -0.5174454, -0.6970682
217, 850192324, -0.23568735, -0.43412915, 0.19697845, -0.8468667, 0.6277653, 0.10052339, -0.3227949
218, 850208991, -0.23597342, -0.425922, 0.19676612, -0.85099393, 0.10748562, 0.3354516, 0.10111332
219, 850225658, -0.23528709, -0.41809526, 0.19537725, -0.85537386, 0.26345244, -0.10271454, 0.0132312775
220, 850242325, -0.23441914, -0.4104627, 0.19314462, -0.85980445, 0.47807813, 0.05572854, -0.13511086
221, 850258992, -0.23438689, -0.40290108, 0.19110583, -0.86383593, -0.006268225, 0.41680047, -0.0340271
222, 850275659, -0.2344603, -0.39552513, 0.1897171, -0.8675229, -0.68924415, 0.8586694, 0.20885372
223, 850292326, -0.23398165, -0.38804293, 0.18848418, -0.8712918, -1.1124533, 1.5868336, 0.6380358
224, 850308993, -0.23263285, -0.38072962, 0.18656074, -0.8752844, -0.8676019, 0.85787493, 0.7299099
225, 850325660, -0.23054436, -0.37427822, 0.18398082, -0.8791567, -0.7955141, -0.3040562, 0.2756796
226, 850342327, -0.22877382, -0.36795035, 0.18127689, -0.8828444, -0.518909, -0.15484095, -0.099173546
227, 850358994, -0.22799644, -0.36145738, 0.17877343, -0.8862318, -0.43487105, 0.18196362, 0.2006731
228, 850375661, -0.22740154, -0.35515204, 0.17614844, -0.8894536, -0.8025707, 0.5733147, 0.40251446
229, 850392328, -0.2264864, -0.34895322, 0.1734269, -0.8926696, -1.1401855, 0.46088952, 0.5470991
230, 850408995, -0.22528875, -0.34277612, 0.17094167, -0.8958397, -1.4483302, -0.4099165, 0.40736008
231, 850425662, -0.22401868, -0.33664906, 0.16857117, -0.8989255, -0.9857413, -1.0512494, 0.22050667
232, 850442329, -0.2231295, -0.33051497, 0.16602525, -0.901892, -0.48083973, -1.4914005, -0.02868557
233, 850458996, -0.22312355, -0.32414457, 0.16319595, -0.9047175, -0.13413225, -1.0147177, -0.5356817
234, 850475663, -0.22386722, -0.31774068, 0.16034962, -0.90731066, 0.11348119, -0.4035856, -0.13186646
235, 850492330, -0.22466524, -0.31102145, 0.15785873, -0.90987474, 0.085582495, 0.40209875, 0.05154991
236, 850508997, -0.22500613, -0.30420065, 0.155876, -0.9124348, 0.068698354, -0.3066571, 0.1173563
237, 850525664, -0.22493587, -0.29754558, 0.15441717, -0.91489136, 0.02747575, -1.0170207, -0.091552734
238, 850542331, -0.22503811, -0.29082453, 0.15301399, -0.91726, 0.5587823, -1.2916166, -0.492095
239, 850558998, -0.2260589, -0.2838653, 0.15167908, -0.91940826, 0.87193364, -1.190365, -0.5386572
240, 850575665, -0.22768421, -0.27655378, 0.15067829, -0.92139786, 0.765721, 0.14751062, -0.208642
241, 850592332, -0.22921823, -0.26917508, 0.14972442, -0.92335635, 0.37668434, 0.67092884, 0.4406538
242, 850608999, -0.22978207, -0.26258606, 0.14850551, -0.9253082, -0.056177717, 0.17952108, 0.6428795
243, 850625666, -0.22956623, -0.2567659, 0.1473657, -0.9271754, -0.25332925, -0.6224011, 0.19861603
244, 850642333, -0.2295845, -0.251239, 0.14641283, -0.9288346, -0.02920817, -0.69141626, 0.013186455
245, 850659000, -0.23029618, -0.24580497, 0.14540148, -0.93027014, 0.17250855, -0.25411156, 0.10035324
246, 850675667, -0.23136248, -0.24017565, 0.1441948, -0.9316628, -0.24729164, -0.10224041, -0.07280636
247, 850692334, -0.23223701, -0.23446155, 0.14320236, -0.93305266, -0.29516512, 0.08532512, 0.24873447
248, 850709001, -0.2325467, -0.2292353, 0.14208448, -0.93444407, -0.15654345, 0.59573877, 0.46132755
249, 850725668, -0.23239647, -0.22441958, 0.14069791, -0.93585896, 0.31091005, 0.39589202, 0.2935934
250, 850742335, -0.23231591, -0.21985409, 0.13893168, -0.9372255, 0.5819041, 0.18391255, -0.2063942
251, 850759002, -0.2325574, -0.21544032, 0.13699551, -0.93847495, 0.63806623, 0.42060518, 0.016950607
252, 850775669, -0.23292832, -0.21111727, 0.13488953, -0.9396697, 0.22122145, 1.1178274, 0.57437897
253, 850792336, -0.23315008, -0.20708138, 0.13279462, -0.94081056, -0.4617029, 1.3061447, 0.6236
254, 850809003, -0.23239167, -0.20363906, 0.13075449, -0.9420345, -0.826664, 0.80150807, 0.99075985
255, 850825670, -0.23072733, -0.20088884, 0.12817287, -0.94338787, -0.24657886, 0.010224936, 0.95052624
256, 850842337, -0.22959068, -0.19836745, 0.12509426, -0.9446111, 0.44919914, -0.95708776, 0.30612946
257, 850859004, -0.22896628, -0.19552338, 0.123146564, -0.9456112, 0.62154585, -2.0333972, -0.5913515
258, 850875671, -0.2284221, -0.19218339, 0.122138135, -0.94655794, 0.84403193, -1.6917871, -0.4520626
259, 850892338, -0.22814557, -0.18885224, 0.1212922, -0.94740325, 0.8712279, -1.0916986, -0.5055084
260, 850909005, -0.22837435, -0.18574281, 0.120484784, -0.94806576, 0.5001304, -0.75432324, -0.29001713
261, 850925672, -0.22853567, -0.18292807, 0.119431406, -0.9487073, 0.4879261, -0.4601474, -0.016911507
262, 850942339, -0.22885132, -0.18009204, 0.118460655, -0.94929516, 0.31693745, -0.24750377, -0.20413208
263, 850959006, -0.22910695, -0.1774381, 0.1173605, -0.9498698, 0.5984434, -0.33719924, -0.18812943
264, 850975673, -0.2292966, -0.17508857, 0.11583863, -0.95044667, 0.7271033, 0.0061309044, -0.063337326
265, 850992340, -0.22956124, -0.17281012, 0.11419798, -0.9509982, -0.08484845, -0.05029212, 0.38533783
266, 851009007, -0.2296582, -0.17058504, 0.11291466, -0.9515296, -0.5153166, -0.25567317, 0.26073265
267, 851025674, -0.22969572, -0.16858763, 0.1119337, -0.95199233, -0.47697413, -0.36349198, 0.1837349
268, 851042341, -0.22979067, -0.16684516, 0.111207925, -0.95236135, -0.36031124, -0.34716657, 0.36712265
269, 851059008, -0.22992375, -0.16568321, 0.11030615, -0.9526369, -0.29710892, -0.32641244, 0.4342041
270, 851075675, -0.23023127, -0.16471498, 0.109689355, -0.95280176, -0.49129233, -0.30556026, 0.384861
271, 851092342, -0.2305426, -0.16378124, 0.10943946, -0.9529162, -0.7748836, -0.060131412, 0.42547894
272, 851109009, -0.23073506, -0.16283485, 0.10945152, -0.95303035, -0.84552586, -0.07658015, 0.23949432
273, 851125676, -0.23085602, -0.16199157, 0.109529406, -0.9531358, -0.53662676, -0.024907948, 0.210042
274, 851142343, -0.23107342, -0.16129899, 0.109413624, -0.95321405, -0.25530252, -0.11532422, 0.076013565
275, 851159010, -0.23151457, -0.16049255, 0.10939883, -0.95324475, -0.11616619, -0.46411705, -0.08512783
276, 851175677, -0.23206632, -0.1595692, 0.10942651, -0.9532624, 0.08467017, -0.35542166, -0.022064209
277, 851192344, -0.23267108, -0.15863824, 0.1093401, -0.95328027, 0.10264847, -0.0799424, 0.010088921
278, 851209011, -0.23327877, -0.15763858, 0.109110445, -0.9533239, 0.0663009, 0.08399927, -0.049990654
279, 851225678, -0.23380186, -0.15657352, 0.108837344, -0.95340246, 0.10346677, 0.009657632, -0.10485554
280, 851242345, -0.2341906, -0.15547188, 0.10856354, -0.9535186, 0.25448605, -0.15526319, -0.083909035
281, 851259012, -0.2345406, -0.15435207, 0.10820401, -0.95365536, 0.4186137, -0.22297479, -0.0051784515
282, 851275679, -0.23500241, -0.15323669, 0.107711814, -0.9537773, 0.40590766, -0.2906442, 0.03842926
283, 851292346, -0.23555988, -0.15212461, 0.107320234, -0.9538619, 0.33404583, -0.2694577, 0.018536568
284, 851309013, -0.23614092, -0.151077, 0.10694804, -0.9539267, 0.27023393, -0.107637525, 0.052594185
285, 851325680, -0.2367012, -0.15016222, 0.106663264, -0.9539639, 0.21102943, -0.096107386, 0.10733414
286, 851342347, -0.23716535, -0.1494981, 0.10636687, -0.95398605, 0.2609867, -0.0038265698, 0.14752483
287, 851359014, -0.23753484, -0.14894265, 0.10610706, -0.9540099, 0.24944995, 0.008258999, 0.14080143
288, 851375681, -0.23776066, -0.1485322, 0.10582791, -0.9540487, 0.3062518, -0.07575039, 0.134202
289, 851392348, -0.23798409, -0.14822681, 0.10557343, -0.9540687, 0.25062364, 0.002473143, 0.08848953
290, 851409015, -0.23819312, -0.14796044, 0.105320446, -0.95408577, 0.1790196, 0.1250551, 0.0903635
291, 851425682, -0.23837346, -0.1476606, 0.10510605, -0.9541109, 0.06396846, 0.22018915, 0.04311657
292, 851442349, -0.23832807, -0.14745624, 0.10483693, -0.95418334, 0.11417827, 0.21877481, 0.049074173
293, 851459016, -0.2381049, -0.147378, 0.10433443, -0.95430624, 0.007910291, 0.080480225, -0.0037965775
294, 851475683, -0.2377773, -0.14740933, 0.103674665, -0.9544551, -0.027536768, -0.32919216, 0.09696007
295, 851492350, -0.23751168, -0.14757054, 0.10312135, -0.9545563, -0.07886347, -0.29634464, 0.10608482
296, 851509017, -0.2373232, -0.14776592, 0.10257711, -0.95463157, -0.24490902, -0.4615538, 0.19634056
297, 851525684, -0.23714171, -0.14789514, 0.10229114, -0.9546873, -0.3907821, -0.42861912, 0.025880814
298, 851542351, -0.23697399, -0.1479105, 0.10217106, -0.9547394, -0.40386686, -0.45543227, 0.03947735
299, 851559018, -0.236803, -0.14785473, 0.1022627, -0.95478076, -0.30029625, -0.607893, 0.095560074
300, 851575685, -0.2366861, -0.14769582, 0.1025742, -0.95480084, -0.18366359, -0.36949795, -0.040545464
301, 851592352, -0.23662847, -0.14757311, 0.1024963, -0.9548424, -0.018795205, -0.53584284, 0.11317253
302, 851609019, -0.23674087, -0.14746642, 0.10242965, -0.9548382, -0.021159384, -0.6012089, 0.09537506
303, 851625686, -0.23710303, -0.14725213, 0.102702364, -0.95475227, -0.08422239, -0.54831815, 0.08989906
304, 851642353, -0.23757803, -0.14698905, 0.103117354, -0.9546299, -0.10023829, -0.23434679, 0.016667366
305, 851659020, -0.23801056, -0.14673752, 0.10355767, -0.9545132, -0.010250779, -0.048136953, 0.07697201
306, 851675687, -0.2383475, -0.14653964, 0.103954956, -0.9544163, 0.104554586, 0.15578853, 0.11497307
307, 851692354, -0.23862551, -0.14638236, 0.10415516, -0.95434904, 0.12872404, 0.20331995, 0.11326885
308, 851709021, -0.23885788, -0.14624915, 0.104267225, -0.95429903, 0.16456814, 0.20075321, 0.09513664
309, 851725688, -0.23906709, -0.14605378, 0.10431909, -0.954271, 0.112316884, 0.35497802, 0.07536602
310, 851742355, -0.23922561, -0.14578275, 0.104281105, -0.9542769, 0.041633926, 0.4695332, 0.043453217
311, 851759022, -0.23918734, -0.1454699, 0.1041951, -0.95434356, 0.06172405, 0.49256065, 0.027431488
312, 851775689, -0.23872773, -0.14534289, 0.10391841, -0.9545082, 0.25808594, 0.49459064, 0.03217411
313, 851792356, -0.23787831, -0.1454813, 0.10311553, -0.9547864, 0.41174117, 0.46279353, 0.09659481
314, 851809023, -0.23691425, -0.14583346, 0.10187197, -0.95510554, 0.3737195, 0.11271719, 0.13036251
315, 851825690, -0.23604977, -0.14628269, 0.100483075, -0.95539796, 0.22392201, -0.35623306, 0.098342896
316, 851842357, -0.2354175, -0.14670926, 0.09938112, -0.95560396, 0.10308454, -0.6851715, -0.015095711
317, 851859024, -0.23478812, -0.1471357, 0.098471954, -0.95578724, 0.13333204, -0.6736471, 0.022799492
318, 851875691, -0.23409075, -0.14756721, 0.09772347, -0.9559685, 0.13125405, -0.5667857, 0.09880161
319, 851892358, -0.23328172, -0.14804931, 0.09703088, -0.9561623, 0.108530976, -0.48113945, 0.025979042
320, 851909025, -0.23233972, -0.14865077, 0.096179545, -0.95638436, 0.13995449, -0.5415453, -0.031090736
321, 851925692, -0.23149304, -0.14919317, 0.09545701, -0.9565777, -0.033051476, -0.48131403, -0.110090256
322, 851942359, -0.23087505, -0.14943537, 0.094877765, -0.9567467, -0.22963282, -0.29060683, -0.1597147
323, 851959026, -0.23024593, -0.1496355, 0.09439048, -0.9569152, -0.1491174, -0.54050565, -0.04340172
324, 851975693, -0.22960134, -0.15025641, 0.09452088, -0.95696, 0.13050596, -0.66459477, -0.15446186
325, 851992360, -0.22893162, -0.15124908, 0.094383135, -0.9569778, 0.36329293, 0.041165832, -0.32225513
326, 852009027, -0.22798026, -0.15278952, 0.09425397, -0.95697284, 0.82166225, -0.5602057, 0.28562832
327, 852025694, -0.22728093, -0.1548941, 0.097032666, -0.9565231, 1.2079008, -1.515212, 0.5771303
328, 852042361, -0.22637899, -0.15815412, 0.10024897, -0.9558716, 1.4794884, -1.2781615, -0.25589275
329, 852059028, -0.22596037, -0.16281651, 0.103399225, -0.9548517, 2.0995076, -0.84641516, 0.1686964
330, 852075695, -0.22548327, -0.16940221, 0.106188394, -0.9535118, 2.527569, -0.1417236, 0.57405853
331, 852092362, -0.22489847, -0.17628326, 0.107662834, -0.9522363, 2.3900843, 0.2720109, 0.24164009
332, 852109029, -0.22430405, -0.18321228, 0.10928757, -0.9508825, 2.1061275, -1.1072764, -0.123197556
333, 852125696, -0.22390556, -0.19009747, 0.112509266, -0.9492478, 0.9620993, -1.2361436, 0.19672394
334, 852142363, -0.22356845, -0.19729911, 0.11623425, -0.9474072, 1.1159728, -0.2661015, 0.46921825
335, 852159030, -0.22278331, -0.20482111, 0.11908354, -0.9456404, 1.1674299, -0.0024119562, 0.40429497
336, 852175697, -0.22189869, -0.21269427, 0.12159623, -0.94378865, 0.087753646, -0.5891046, 0.16001034
337, 852192364, -0.2213008, -0.2211616, 0.12463656, -0.9415836, -0.8598359, -0.78515965, 0.4871359
338, 852209031, -0.22073656, -0.23026861, 0.12843388, -0.93901914, -1.3211399, -0.65323067, 0.56479836
339, 852225698, -0.22023836, -0.2402267, 0.13283756, -0.93602395, -1.1522555, -0.5373735, 0.38333035
340, 852242365, -0.22008474, -0.25081757, 0.13751936, -0.9325997, -0.9758922, -0.3700331, 0.532465
341, 852259032, -0.22019675, -0.26165178, 0.14205502, -0.92890924, -1.337023, 0.23121671, 0.6369629
342, 852275699, -0.22046126, -0.2726539, 0.14634287, -0.9250086, -1.2615741, 0.28347182, 0.7601433
343, 852292366, -0.22057794, -0.28419998, 0.15037374, -0.9208496, -1.238005, -0.023255518, 0.5632515
344, 852309033, -0.22092381, -0.29584837, 0.15435433, -0.91642874, -0.9738719, -0.010987841, 0.54491043
345, 852325700, -0.22168866, -0.30724853, 0.15846592, -0.9117794, -1.1584078, 0.07923763, 0.4264307
346, 852342367, -0.22277598, -0.31851915, 0.16296713, -0.9068399, -1.4268265, 0.17551556, 0.2974577
347, 852359034, -0.22401287, -0.32991832, 0.1677449, -0.9015732, -1.201324, 0.3505263, 0.16672802
348, 852375701, -0.22519387, -0.34170192, 0.17201924, -0.8960676, -0.7956022, 0.63142616, 0.4371786
349, 852392368, -0.22652909, -0.35378197, 0.17539357, -0.8903709, -1.0316677, 0.7862505, 0.45119762
350, 852409035, -0.22775434, -0.36606583, 0.17833155, -0.8844897, -1.1276577, 0.6323565, 0.2563305
351, 852425702, -0.2288439, -0.37836412, 0.18129735, -0.87840927, -1.144271, 0.65951324, 0.23233318
352, 852442369, -0.23002163, -0.3904986, 0.1841742, -0.87217027, -1.0106657, 0.7766942, 0.25805187
353, 852459036, -0.23095855, -0.40259844, 0.18682338, -0.86583495, -0.8712422, 1.0161597, -0.064463615
354, 852475703, -0.23168832, -0.4147187, 0.18929185, -0.8593591, -0.69276077, 0.8690789, -0.20111275
355, 852492370, -0.23218979, -0.42674857, 0.19152641, -0.8528139, -0.515025, 0.8686929, -0.27857494
356, 852509037, -0.23222885, -0.43900988, 0.19321017, -0.8461739, -0.38099205, 0.7323754, -0.30537415
357, 852525704, -0.23179823, -0.45144874, 0.19451365, -0.8394216, -0.12754722, 0.51358503, -0.20060158
358, 852542371, -0.231056, -0.46388838, 0.19543491, -0.8326021, -0.24001548, 0.37046468, -0.23570824
359, 852559038, -0.23044935, -0.47592217, 0.19619983, -0.8257707, -0.40469897, 0.3213838, -0.29898262
360, 852575705, -0.22998098, -0.48757058, 0.19718711, -0.8188415, -0.19767913, 0.23059888, -0.30600643
361, 852592372, -0.22979045, -0.49899018, 0.19845732, -0.81167746, -0.47868675, 0.8385745, -0.6597576
362, 852609039, -0.22905655, -0.5105973, 0.19935061, -0.8044149, -0.17743237, 0.639692, -0.6296902
363, 852625706, -0.22785357, -0.5225528, 0.19997711, -0.79688823, -0.18198118, 0.43217996, -0.644845
364, 852642373, -0.2260672, -0.5343564, 0.20022476, -0.78947294, -0.5319609, -0.27496296, -0.46017456
365, 852659040, -0.22490723, -0.54552263, 0.20065056, -0.7820241, -0.5638111, -0.51191664, -0.51604176
366, 852675707, -0.22454655, -0.55612934, 0.20142367, -0.7744209, -0.011497786, -0.6571377, -0.50679016
367, 852692374, -0.22494312, -0.5662441, 0.2029269, -0.76654357, -0.7158803, -0.28188726, -0.5982294
368, 852709041, -0.22546178, -0.57611024, 0.20484474, -0.75848716, -0.8385737, -0.19838116, -0.4874754
369, 852725708, -0.22673525, -0.5851058, 0.20726715, -0.7505219, -0.2687857, 0.040748984, -0.17609882
370, 852742375, -0.22750668, -0.5939598, 0.20952663, -0.7426652, 0.6042275, -0.11963598, -0.32734203
371, 852759042, -0.22727075, -0.60240424, 0.21089342, -0.7355144, 0.47319692, -0.11171759, -0.16139507
372, 852775709, -0.22603916, -0.61063915, 0.21144615, -0.728915, 1.0249676, -0.8521086, -0.17521858
373, 852792376, -0.22634783, -0.61812645, 0.21303359, -0.72201353, 0.05547614, -1.3212248, -0.11765671
374, 852809043, -0.22781108, -0.6242444, 0.21535997, -0.7155706, -0.36935028, -1.9124178, 0.16190529
375, 852825710, -0.22996639, -0.6291524, 0.21754129, -0.7099006, 0.2873599, -1.1712048, 0.26640892
376, 852842377, -0.23214743, -0.63336134, 0.2195367, -0.7048155, 0.54407996, -0.26326507, 0.017166138
377, 852859044, -0.2339715, -0.6374597, 0.22095992, -0.70005673, 0.7180169, -0.12720637, 0.102669716
378, 852875711, -0.23558144, -0.6414357, 0.22232707, -0.69543695, 0.3996938, 0.46513292, 0.24607754
379, 852892378, -0.2364899, -0.64530253, 0.22364224, -0.69111633, -0.0258096, 0.16429968, 0.2503605
380, 852909045, -0.23760511, -0.6488349, 0.22463615, -0.68709254, -0.54781044, 0.22853026, 0.16721249
381, 852925712, -0.23911574, -0.6523584, 0.22544354, -0.6829551, -0.4674884, -0.016730057, 0.01365757
382, 852942379, -0.23998815, -0.6558832, 0.2253223, -0.6793036, -0.17941731, -0.1474838, 0.09921169
383, 852959046, -0.24034421, -0.6595678, 0.22478534, -0.67577875, -0.07585762, -0.37805283, 0.15162754
384, 852975713, -0.24136153, -0.6632938, 0.22541657, -0.6715458, -0.14445373, -0.057489432, 0.22676182
385, 852992380, -0.2418665, -0.6669793, 0.22586726, -0.6675503, -0.08149886, -0.29104146, 0.0072307587
386, 853009047, -0.2427175, -0.6704929, 0.22636251, -0.6635419, 0.10250075, -0.09866108, 0.1997385
387, 853025714, -0.2433189, -0.6735167, 0.22674565, -0.6601197, 0.25176135, -0.3255426, 0.30514717
388, 853042381, -0.24365638, -0.67616963, 0.22702028, -0.6571823, 0.5258784, -0.40290782, 0.2291975
389, 853059048, -0.2434058, -0.67887175, 0.22701946, -0.6544842, 0.74599284, -0.43052372, 0.10539627
390, 853075715, -0.24299665, -0.6811726, 0.22710568, -0.6522115, 0.49294078, -0.57267135, 0.32127285
391, 853092382, -0.24302204, -0.6826671, 0.22743237, -0.6505234, 0.34552073, -0.5990175, 0.33080387
392, 853109049, -0.24338454, -0.6835947, 0.22806138, -0.6491923, 0.39918834, -0.38542128, 0.27640533
393, 853125716, -0.24379355, -0.68401575, 0.22880974, -0.64833134, -0.24605206, -0.26258424, 0.18517303
394, 853142383, -0.24421598, -0.68447655, 0.22963625, -0.64739317, -0.6082962, -0.36538312, 0.02978611
395, 853159050, -0.24504757, -0.68492204, 0.23066412, -0.6462413, -0.5958409, -0.07429906, 0.106892586
396, 853175717, -0.2457201, -0.6854875, 0.2314479, -0.6451053, -0.29456902, -0.01828973, 0.121287346
397, 853192384, -0.24619392, -0.686054, 0.23191448, -0.644154, -0.017300965, 0.3276271, 0.18887138
398, 853209051, -0.24615584, -0.68631345, 0.23201112, -0.6438575, -0.14269872, 0.2820701, 0.16889381
399, 853225718, -0.24571916, -0.68650705, 0.23178509, -0.6438992, -0.30190715, 0.09982715, 0.05631447
400, 853242385, -0.24508855, -0.68683314, 0.23132752, -0.6439564, -0.22963426, 0.16679487, 0.15920639
401, 853259052, -0.24436305, -0.687208, 0.23073858, -0.6440435, -0.34397432, 0.041235458, 0.12145424
402, 853275719, -0.24379782, -0.6874971, 0.23027994, -0.6441135, -0.54791236, 0.047798023, 0.1716299
403, 853292386, -0.24321418, -0.6877263, 0.22984174, -0.64424574, -0.47097623, -0.065193474, 0.11699581
404, 853309053, -0.24298447, -0.6878558, 0.22973466, -0.64423233, -0.25799632, -0.15874259, 0.08480644
405, 853325720, -0.24316055, -0.68787307, 0.2299995, -0.64405304, -0.3114281, -0.11228218, 0.1310072
406, 853342387, -0.24366325, -0.68769765, 0.23034322, -0.64392745, -0.1456497, -0.00742443, 0.13175297
407, 853359054, -0.2440293, -0.6874767, 0.23057015, -0.64394355, -0.052711844, 0.0019066773, 0.16762447
408, 853375721, -0.24420942, -0.6872419, 0.2307194, -0.6440723, 0.04044355, 0.2096223, 0.062851906
409, 853392388, -0.24405706, -0.6870459, 0.23057404, -0.64439124, 0.015716147, 0.02894124, 0.1199522
410, 853409055, -0.24374783, -0.6869101, 0.23043674, -0.6447022, 0.016116457, -0.12586394, 0.049137115
411, 853425722, -0.2435857, -0.6867479, 0.23021789, -0.64501417, -0.11743745, -0.25184065, 0.1321106
412, 853442389, -0.24356684, -0.68648225, 0.23010343, -0.64534503, 0.015256827, -0.12026707, 0.14479065
413, 853459056, -0.24369434, -0.686118, 0.22999032, -0.6457244, -0.10209915, 0.041236687, 0.114946365
414, 853475723, -0.24349684, -0.68589693, 0.22979297, -0.64610386, -0.114407286, -0.1280452, 0.02404213
415, 853492390, -0.24334049, -0.6858128, 0.22966848, -0.64629626, -0.11096066, -0.12702967, 0.1161108
416, 853509057, -0.24316716, -0.6857924, 0.229539, -0.6464293, -0.094192274, -0.24452898, 0.07776451
417, 853525724, -0.2431553, -0.68569857, 0.22949964, -0.6465471, -0.012399884, -0.11576798, 0.10017586
418, 853542391, -0.24316272, -0.68554115, 0.22943464, -0.64673424, 0.05069363, -0.1517881, 0.104234695
419, 853559058, -0.24324223, -0.6852759, 0.22938079, -0.64700454, 0.25023806, -0.05456242, 0.15140724
420, 853575725, -0.24325581, -0.68482655, 0.22923528, -0.6475266, 0.087049805, -0.06732624, 0.20122433
421, 853592392, -0.2432419, -0.68425643, 0.22899662, -0.6482185, -0.09960106, -0.10672084, 0.12185764
422, 853609059, -0.24314441, -0.68369967, 0.22886421, -0.64888924, -0.25437298, -0.005322179, 0.04938507
423, 853625726, -0.24289566, -0.6832472, 0.22871427, -0.64951146, -0.24401122, -0.28016165, 0.0876255
424, 853642393, -0.24281736, -0.6827766, 0.2284838, -0.6501166, -0.11765543, -0.12238418, 0.26568508
425, 853659060, -0.24273992, -0.6820833, 0.22818188, -0.6509785, -0.09494104, 0.044868216, 0.21489525
426, 853675727, -0.24268687, -0.68117684, 0.2279476, -0.6520289, -0.15855579, 0.067901894, 0.1117363
427, 853692394, -0.2424783, -0.68015236, 0.2276383, -0.6532825, -0.1435455, 0.042290438, 0.14962482
428, 853709061, -0.24238606, -0.6788732, 0.22724319, -0.65478325, -0.010010027, 0.1947113, 0.25432014
429, 853725728, -0.24243441, -0.6769534, 0.22665459, -0.65695333, 0.025091117, 0.11934955, 0.33113098
430, 853742395, -0.24234678, -0.6744961, 0.2258571, -0.65978175, -0.30258536, -0.19768335, 0.48893833
431, 853759062, -0.2419344, -0.6715246, 0.2249655, -0.6632596, -0.5429393, -0.14159133, 0.30539417
432, 853775729, -0.24168544, -0.6682653, 0.22454397, -0.6667758, -0.78296226, 0.29936787, 0.09200096
433, 853792396, -0.24180816, -0.6646613, 0.22421934, -0.670433, -0.89568895, 0.4177827, 0.082775116
434, 853809063, -0.24140283, -0.6608337, 0.22320631, -0.6746872, -0.3042627, 0.020919472, 0.26005936
435, 853825730, -0.24066778, -0.6565111, 0.22158548, -0.6796856, 0.14668484, 0.28928342, 0.3807354
436, 853842397, -0.239682, -0.651236, 0.21981424, -0.6856575, -0.005781833, 0.2776002, 0.54951954
437, 853859064, -0.23763447, -0.6456646, 0.21742566, -0.692368, -0.32131708, -0.29608503, 0.28949833
438, 853875731, -0.23483737, -0.64023316, 0.21437927, -0.6992817, -0.26456994, -0.52540076, 0.16670227
439, 853892398, -0.23234715, -0.6342674, 0.21199842, -0.70624125, -0.040863756, -0.27407604, 0.3567152
440, 853909065, -0.23051661, -0.62727433, 0.20970796, -0.713731, 0.26580787, -0.544156, -0.03972912
441, 853925732, -0.2296187, -0.61922586, 0.20798844, -0.72150934, 0.27651325, -0.97479475, 0.038906097
442, 853942399, -0.22989298, -0.6099881, 0.20755292, -0.7293737, -0.6501663, -1.3080926, 0.4560461
443, 853959066, -0.23121472, -0.599838, 0.20845558, -0.7370759, -1.103159, -1.4789598, 0.08200264
444, 853975733, -0.23313764, -0.58888596, 0.20933652, -0.7450093, -0.10479858, -1.1719846, -0.29965878
445, 853992400, -0.23509504, -0.57812446, 0.21117885, -0.7522675, -0.71346754, -0.8549837, -0.21534729
446, 854009067, -0.23685956, -0.56691855, 0.2117206, -0.7600497, -0.8052823, -0.74475825, -0.2213192
447, 854025734, -0.23839678, -0.55589473, 0.21199487, -0.76759785, 0.034464635, -0.2765137, -0.31269264
448, 854042401, -0.239176, -0.54498214, 0.21204227, -0.77513075, -0.2667049, -0.5490504, -0.18594074
449, 854059068, -0.23925684, -0.53400296, 0.2113952, -0.7828854, -0.4162027, -0.0029305902, -0.30624294
450, 854075735, -0.23956676, -0.5215995, 0.21041375, -0.79137117, 0.8814078, -0.0015181, 0.14025688
451, 854092402, -0.24030833, -0.5102048, 0.20877199, -0.7989728, 1.0149819, -2.8665536E-4, -0.5247593
452, 854109069, -0.24119143, -0.5009962, 0.20699082, -0.8049749, 0.22322401, 0.50613874, -0.96165085
453, 854125736, -0.24242875, -0.49204704, 0.20686091, -0.81014, -0.19416109, 0.7262289, 0.07518673
454, 854142403, -0.24283804, -0.4823397, 0.20580271, -0.81610274, 0.069559604, 0.96213275, -0.21727657
455, 854159070, -0.24219549, -0.47318384, 0.20442276, -0.82197946, 0.35847014, 0.5678937, -0.08918476
456, 854175737, -0.24116333, -0.4639655, 0.20240167, -0.82801574, 0.18353006, 0.63998437, -0.39240837
457, 854192404, -0.23958394, -0.45423108, 0.19898091, -0.83467394, 0.31353807, 0.5214709, -0.3293209
458, 854209071, -0.23845828, -0.4447137, 0.19622797, -0.840751, 1.0578302, -0.61264837, -0.39165878
459, 854225738, -0.2383164, -0.4350618, 0.19462773, -0.8461955, -0.18627393, -0.4063603, -0.83798695
460, 854242405, -0.23892356, -0.42528892, 0.19383009, -0.8511611, 0.10761987, -0.5402939, -0.68436337
461, 854259072, -0.23972294, -0.4154288, 0.19388813, -0.85578024, -0.2605606, 0.7166656, -0.6054535
462, 854275739, -0.23914917, -0.40561333, 0.19191337, -0.861078, 0.03704308, 1.3559648, -0.26611614
463, 854292406, -0.23766805, -0.39573035, 0.18698263, -0.86715, 0.37352246, 1.4022236, 0.025569916
464, 854309073, -0.2367161, -0.38581395, 0.18201046, -0.87291783, -0.39338598, 0.03637595, 0.35029316
465, 854325740, -0.23637404, -0.37545216, 0.17878237, -0.87818, -1.5869881, -0.0762092, 0.24959946
466, 854342407, -0.23570779, -0.36521453, 0.17671771, -0.88308066, -1.3693382, -0.7338613, -0.076125145
467, 854359074, -0.23518278, -0.35542014, 0.17501414, -0.88754505, -0.57415044, -0.86792123, 0.24802017
468, 854375741, -0.23512173, -0.34583324, 0.17267558, -0.89179635, -0.58996814, 0.013365571, -0.0028533936
469, 854392408, -0.23556998, -0.33606476, 0.16958529, -0.8959957, -0.17960979, 0.1370383, -0.14509487
470, 854409075, -0.23633626, -0.32663387, 0.16713935, -0.8997335, -0.122910835, -0.07480241, 0.22282124
471, 854425742, -0.23705803, -0.31730202, 0.16497302, -0.903276, -0.4409453, 0.15491197, 0.30566025
472, 854442409, -0.23725048, -0.30826184, 0.16266292, -0.9067679, -0.8711081, -0.16446011, 0.1463213
473, 854459076, -0.2373704, -0.29884404, 0.1604571, -0.91027546, -1.2390099, -0.36345, -0.04118061
474, 854475743, -0.23775342, -0.2897023, 0.15758435, -0.91362655, -0.24867493, 0.12700039, 0.123633385
475, 854492410, -0.2385284, -0.28058523, 0.15446994, -0.9167964, 0.66369545, 0.42609963, 0.35365677
476, 854509077, -0.23925759, -0.27145526, 0.15173395, -0.9198071, -0.0747203, -0.21474437, 0.33430004
477, 854525744, -0.23975249, -0.26274666, 0.1494543, -0.9225761, -0.22696978, 0.0067103617, 0.119374275
478, 854542411, -0.23976469, -0.25430414, 0.14748158, -0.92525226, -0.5027011, 0.23840764, 0.27002907
479, 854559078, -0.239231, -0.24630234, 0.14534524, -0.92788947, -0.51139283, 0.33239043, 0.48398304
480, 854575745, -0.23846231, -0.23877163, 0.14252722, -0.93048936, -0.39310718, 0.056698643, 0.20485306
481, 854592412, -0.23784149, -0.23151702, 0.13952251, -0.9329336, 0.02778143, -0.4601038, 0.049227715
482, 854609079, -0.237411, -0.22382858, 0.1368844, -0.93530744, 0.14097476, -0.7520355, -0.061938286
483, 854625746, -0.23723173, -0.21595393, 0.13466482, -0.9375238, -0.27403364, -0.67060596, 0.0362072
484, 854642413, -0.23709418, -0.2082154, 0.13260692, -0.9396001, -0.37662223, -0.6784278, 0.13093948
485, 854659080, -0.23718457, -0.20075874, 0.13065071, -0.9414723, -0.08864803, -0.5538431, 0.009520531
486, 854675747, -0.23772766, -0.19331191, 0.1288485, -0.94314075, 0.1369494, -0.19010405, 0.35928726
487, 854692414, -0.23856969, -0.18611154, 0.1277149, -0.9445297, -0.13266799, 0.05799172, 0.53566074
488, 854709081, -0.23892851, -0.17962752, 0.12647039, -0.9458609, -0.08814535, 0.5892954, 1.0120316
489, 854725748, -0.23877078, -0.1740408, 0.124669276, -0.9471835, -0.53460723, 0.7544999, 0.8529415
490, 854742415, -0.23863645, -0.16941874, 0.122909114, -0.9482846, -0.7579758, 0.26602122, 0.7353239
491, 854759082, -0.23889668, -0.16542208, 0.12147444, -0.94910914, 0.12670809, 0.013537928, 0.5417404
492, 854775749, -0.23936, -0.16204113, 0.1201466, -0.9497446, 0.81802213, -0.47785902, 0.22350693
493, 854792416, -0.23952955, -0.15930758, 0.11895094, -0.95031446, 1.3067101, -0.57424855, -0.40215302
494, 854809083, -0.23961958, -0.15710124, 0.11756507, -0.95083153, 1.1643099, -0.59226084, -0.10781193
495, 854825750, -0.2398061, -0.15489031, 0.11660934, -0.95126486, 0.14886303, -0.34175986, 0.30441284
496, 854842417, -0.23970275, -0.15268508, 0.11582901, -0.95174265, 0.23659562, -0.39764956, -0.116669655
497, 854859084, -0.23985747, -0.15035488, 0.115216225, -0.9521489, 0.3944195, -0.792757, -0.13734245
498, 854875751, -0.24039274, -0.14792247, 0.114893116, -0.95243376, 0.4591826, -0.9241598, -0.009712219
499, 854892418, -0.24115749, -0.14556381, 0.114887185, -0.9526046, 0.90812176, -0.92997104, -0.45288563
500, 854909085, -0.24206333, -0.14349331, 0.11512208, -0.9526607, 0.99199116, -0.7301102, -0.16640568
501, 854925752, -0.24321438, -0.14148358, 0.11526576, -0.9526507, 0.27253407, -0.21184695, 0.28257084
502, 854942419, -0.24429151, -0.13936526, 0.115205415, -0.95269465, 0.20516701, -0.18149453, 0.061003685
503, 854959086, -0.24532235, -0.13718826, 0.11481132, -0.95279336, 0.17979975, -0.20751734, -0.11310768
504, 854975753, -0.2464582, -0.13494664, 0.11421806, -0.95289165, 0.06709867, -0.3573506, 0.0065517426
505, 854992420, -0.24776149, -0.13266614, 0.11392355, -0.9529091, 0.039280724, -0.40257528, 0.14169693
506, 855009087, -0.24905817, -0.13043705, 0.11398721, -0.9528712, 0.25410482, -0.39567035, 0.10217953
507, 855025754, -0.25024277, -0.12853083, 0.1141055, -0.9528057, 0.5854727, -0.2848723, 0.037597656
508, 855042421, -0.25143358, -0.1269521, 0.113933384, -0.9527245, 0.5480509, -0.095657274, 0.09237194
509, 855059088, -0.2525041, -0.12558113, 0.113553904, -0.95266855, 0.376919, -0.029433528, 0.12932587
510, 855075755, -0.2533515, -0.1244362, 0.113118745, -0.9526453, 0.22254945, -0.15884097, 0.16092396
511, 855092422, -0.254065, -0.123438865, 0.11302907, -0.9525957, 0.25325412, -0.07740603, 0.124238014
512, 855109089, -0.25463676, -0.12256893, 0.11298694, -0.9525603, 0.3106626, 0.03673709, 0.12479782
513, 855125756, -0.255007, -0.121957876, 0.11289234, -0.952551, 0.3294444, 0.029971747, 0.035003662
514, 855142423, -0.2553224, -0.12145968, 0.11264457, -0.9525595, 0.21267584, -0.03792414, -0.029260635
515, 855159090, -0.2555234, -0.12118738, 0.112226665, -0.9525896, 0.085847974, -0.16081855, 0.16961956
516, 855175757, -0.25566107, -0.12102316, 0.11216484, -0.9525808, 0.05940332, -0.12127106, 0.11122131
517, 855192424, -0.25562632, -0.12101242, 0.112179525, -0.95258975, 0.16764422, -0.0425736, 0.092907906
518, 855209091, -0.2555526, -0.121124595, 0.111991435, -0.95261747, 0.1710128, 0.03279868, 0.0968256
519, 855225758, -0.25553605, -0.121283524, 0.111538775, -0.9526548, 0.13163841, 0.08556305, 0.08860588
520, 855242425, -0.25555742, -0.121420436, 0.110954285, -0.9526997, 0.028937776, 0.0901542, 0.08872986
521, 855259092, -0.2555825, -0.121447526, 0.11047548, -0.9527453, -0.004616325, 0.060160328, 0.084246635
522, 855275759, -0.25549683, -0.12149698, 0.11005624, -0.9528106, 0.038851526, 0.14749168, 0.0964756
523, 855292426, -0.25528008, -0.12159593, 0.10954194, -0.95291513, 0.08953354, 0.19133116, 0.15511608
524, 855309093, -0.25501433, -0.1217239, 0.108991474, -0.9530332, 0.124234505, 0.1304725, 0.11714935
525, 855325760, -0.25463292, -0.1220757, 0.10818257, -0.9531824, 0.32399338, 0.10605698, 0.08113861
526, 855342427, -0.25406048, -0.122711055, 0.1072034, -0.95336425, 0.2270092, 0.035509784, 0.029859543
527, 855359094, -0.25332984, -0.12336957, 0.10603292, -0.9536045, 0.03267849, 0.023790495, 0.10421562
528, 855375761, -0.25251523, -0.123915814, 0.105038606, -0.9538596, 0.14072451, -0.043711115, 0.17396545
529, 855392428, -0.25149682, -0.124633834, 0.10400081, -0.9541488, 0.18607792, -0.18684264, 0.06810856
530, 855409095, -0.2504162, -0.1254022, 0.10292776, -0.9544488, 0.08586404, -0.37336078, -0.037639618
531, 855425762, -0.2492715, -0.12622559, 0.10172124, -0.954769, 0.1393451, -0.33081654, 0.04616928
532, 855442429, -0.24808978, -0.127171, 0.10047187, -0.9550836, 0.187617, -0.4130728, 0.06608963
533, 855459096, -0.2469545, -0.12812896, 0.09940855, -0.955361, 0.1218408, -0.50415146, 0.04456711
534, 855475763, -0.24591914, -0.12895155, 0.098515354, -0.9556099, 0.1119159, -0.44629514, 0.08568287
535, 855492430, -0.2449647, -0.12971133, 0.09788754, -0.95581686, 0.047759328, -0.36719212, 0.09008789
536, 855509097, -0.24395975, -0.1306637, 0.09725705, -0.9560084, -0.04644532, -0.38996994, 0.026543617
537, 855525764, -0.24296357, -0.13154335, 0.0965787, -0.9562102, -0.16945913, -0.3489286, -0.040183067
538, 855542431, -0.24222748, -0.13215517, 0.09630634, -0.9563402, -0.18040292, -0.36321542, 0.016842842
539, 855559098, -0.24164583, -0.13273272, 0.09616392, -0.9564215, 0.013854199, -0.3919214, 0.081053734
540, 855575765, -0.24107932, -0.13360175, 0.09602782, -0.9564571, 0.2698529, -0.44132766, 0.07515907
541, 855592432, -0.2406037, -0.13456514, 0.0963072, -0.95641375, 0.114674814, -0.24507277, -0.45393085
542, 855609099, -0.2408953, -0.13491882, 0.09701185, -0.9562194, 0.1225661, 0.10118627, -0.47060966
543, 855625766, -0.24157831, -0.1352924, 0.09770543, -0.9559236, 0.17656402, 0.056125667, -0.36866856
544, 855642433, -0.2415872, -0.1362503, 0.09739952, -0.9558165, 0.28865802, 0.023282114, 0.5439148
545, 855659100, -0.24131946, -0.13809858, 0.09724433, -0.9556348, 1.0218258, 0.024526887, 0.9110975
546, 855675767, -0.24047798, -0.14071567, 0.09744384, -0.95544475, 1.3593593, -1.2050579, 0.14853096
547, 855692434, -0.23974381, -0.14423731, 0.09976676, -0.9548641, 2.3106065, -2.037352, -0.043743134
548, 855709101, -0.23983975, -0.14950654, 0.10437845, -0.9535356, 3.074461, -1.9029461, 0.44126987
549, 855725768, -0.24031122, -0.1571391, 0.109011725, -0.9516695, 1.9143646, -1.8611683, -0.5536442
550, 855742435, -0.24160543, -0.1631478, 0.11283782, -0.9498831, 1.4541872, 0.08436513, -0.050513268
551, 855759102, -0.24233526, -0.1696242, 0.11626222, -0.948148, 1.4460863, -0.46714586, 0.9743347
552, 855775769, -0.2421077, -0.17650013, 0.11995175, -0.9464901, 0.2392728, -1.053266, 0.10336971
553, 855792436, -0.24147005, -0.18398175, 0.12405472, -0.94469774, 0.3222527, -0.7812425, -0.08270073
554, 855809103, -0.24113134, -0.19149072, 0.12736353, -0.9428498, 0.5575832, -0.14864796, 0.5577297
555, 855825770, -0.24120201, -0.19900963, 0.12975931, -0.9409462, 0.18891616, -0.413667, 0.5066414
556, 855842437, -0.24169172, -0.20730117, 0.13248184, -0.93864805, -0.39889452, -0.6349897, 0.6465454
557, 855859104, -0.2419753, -0.21655664, 0.136013, -0.9359765, -1.1498351, -0.16714136, 0.63726616
558, 855875771, -0.24190575, -0.2266343, 0.14033899, -0.9329652, -1.6646825, 0.17713742, 0.8509674
559, 855892438, -0.24167694, -0.23765019, 0.14511912, -0.9295458, -1.766993, 0.84772474, 0.938509
560, 855909105, -0.24143566, -0.24919918, 0.14982541, -0.92583, -1.44866, 1.2358159, 0.7049942
561, 855925772, -0.24131, -0.260782, 0.15401787, -0.92197675, -1.3164085, 1.1479708, 0.70252895
562, 855942439, -0.24136639, -0.2723868, 0.15781608, -0.9179556, -1.5666864, 0.9864988, 0.75895023
563, 855959106, -0.24151504, -0.28412053, 0.161392, -0.9137281, -1.8909464, 0.91521704, 0.62749195
564, 855975773, -0.2417229, -0.2961181, 0.16514525, -0.90918195, -1.8435032, 0.74086326, 0.6693449
565, 855992440, -0.24192497, -0.30834794, 0.1691085, -0.904321, -1.7805034, 0.7480461, 0.6191082
566, 856009107, -0.24218406, -0.3207376, 0.17299978, -0.89919174, -1.3692331, 0.9979091, 0.34030724
567, 856025774, -0.24252278, -0.33334982, 0.17652574, -0.8938118, -0.98328835, 0.6881797, 0.17550468
568, 856042441, -0.2430927, -0.34618893, 0.17961116, -0.8881437, -0.81686074, 0.6216792, 0.08169079
569, 856059108, -0.24360687, -0.3591452, 0.18255302, -0.8822387, -0.69376916, 0.5142711, -0.06685352
570, 856075775, -0.24371499, -0.3723429, 0.18550251, -0.8761009, -0.3260095, 0.43074846, -0.786953
571, 856092442, -0.24349795, -0.3855233, 0.18819349, -0.8698645, 0.042704944, 0.24531832, -0.40699196
572, 856109109, -0.24314642, -0.39863315, 0.18988636, -0.8636638, 0.002588727, 0.8773024, -0.13674736
573, 856125776, -0.24197036, -0.41153854, 0.19093102, -0.8576899, 0.28185472, 0.5747652, -0.5665512
574, 856142443, -0.24078529, -0.42383727, 0.19244792, -0.85167396, 0.19460483, -0.061308373, -0.78026104
575, 856159110, -0.23992158, -0.43624997, 0.1941198, -0.84524643, 0.19737118, -0.28893742, -0.5144367
576, 856175777, -0.23894764, -0.44872585, 0.19521055, -0.8387147, 0.39254642, 0.008764725, -0.29699707
577, 856192444, -0.23756199, -0.461068, 0.1961557, -0.8321682, 0.5151922, 0.14137441, -0.8778639
578, 856209111, -0.23630664, -0.47297257, 0.1976265, -0.82546985, -0.0350608, -0.1597893, -0.9683428
579, 856225778, -0.23585719, -0.48487332, 0.19950892, -0.8182088, -0.24742773, -0.13175765, -0.56119347
580, 856242445, -0.23504226, -0.4975644, 0.20094039, -0.810437, -0.2317436, 0.041890576, -0.35889053
581, 856259112, -0.23353948, -0.51005113, 0.20143192, -0.8029525, 0.023082463, 0.39323205, -0.45128536
582, 856275779, -0.23194566, -0.52174604, 0.20234635, -0.79563737, 0.5122736, -0.38580438, -0.5144596
583, 856292446, -0.23042813, -0.53311855, 0.20393515, -0.7880981, -0.43547046, -0.8457481, -0.8411226
584, 856309113, -0.23023693, -0.54427487, 0.2061819, -0.77990067, -0.68040985, -0.9863904, -0.35814095
585, 856325780, -0.23052329, -0.55512065, 0.20875533, -0.7714411, -0.33908916, -0.24048251, -0.12614441
586, 856342447, -0.23080617, -0.56479007, 0.21076585, -0.763753, -0.31959692, -0.55989796, -0.03584099
587, 856359114, -0.23156624, -0.57425576, 0.21317494, -0.7557541, -0.3010444, -0.3815393, -0.55221367
588, 856375781, -0.23221934, -0.5835032, 0.21555568, -0.74775285, 0.7455489, -0.069902785, -0.311018
589, 856392448, -0.23226078, -0.59261006, 0.21705404, -0.74010557, 0.74775654, 0.36888063, -0.049990654
590, 856409115, -0.23109041, -0.6011322, 0.21793123, -0.73331004, 0.65221864, -0.77659476, 0.029491425
591, 856425782, -0.23111312, -0.608681, 0.21975222, -0.7265008, -0.33153313, -1.513138, 0.22744465
592, 856442449, -0.23211671, -0.6151138, 0.2218929, -0.7200839, -0.1757845, -2.029311, 0.3663187
593, 856459116, -0.23407176, -0.6209121, 0.22350141, -0.7139509, 0.7566963, -1.0591986, 0.14620018
594, 856475783, -0.23640664, -0.6263097, 0.22551711, -0.70780694, 0.59252036, 0.08943625, 0.09311199
595, 856492450, -0.23857202, -0.63130647, 0.22781146, -0.7018816, 0.034717847, 0.7057109, -0.034526825
596, 856509117, -0.24016829, -0.63637424, 0.229866, -0.69606674, -0.2544173, 0.7223801, 0.021466255
597, 856525784, -0.24097332, -0.6418155, 0.23170246, -0.6901587, -0.6690281, 0.4465497, 0.268219
598, 856542451, -0.24232921, -0.6468867, 0.23353797, -0.6843058, -1.0375729, 0.34799927, 0.34102154
599, 856559118, -0.24313974, -0.6516666, 0.23391566, -0.67933613, -0.46092165, 0.10066353, 0.16140842
600, 856575785, -0.24332932, -0.65638334, 0.23334856, -0.67490774, -0.0071212905, 0.045230977, 0.1767807
601, 856592452, -0.24303019, -0.66103697, 0.23247945, -0.6707609, 0.28145266, -0.5040959, 0.32208252
602, 856609119, -0.2428483, -0.665129, 0.2318397, -0.66699237, 0.40212634, -0.5923311, 0.4272356
603, 856625786, -0.24268433, -0.668384, 0.23151803, -0.66390276, 0.9198536, -0.4782434, 0.43532372
604, 856642453, -0.24313065, -0.67049557, 0.23202595, -0.66142845, 0.95837885, -0.3111325, 0.41692734
605, 856659120, -0.243624, -0.6720625, 0.23285021, -0.6593636, 0.8923388, -0.34048992, 0.27310276
606, 856675787, -0.24454887, -0.67323565, 0.23389821, -0.65745074, 0.6915852, -0.24635531, 0.31907463
607, 856692454, -0.24571416, -0.6740415, 0.23539095, -0.65565544, 0.11214209, -0.16033669, 0.13945198
608, 856709121, -0.24705298, -0.67450845, 0.23678897, -0.6541671, -0.17766106, -0.17298372, 0.20575428
609, 856725788, -0.24870436, -0.6746984, 0.23811391, -0.6528632, -0.31014553, 0.3896612, 0.24099064
610, 856742455, -0.24973063, -0.6747602, 0.2390251, -0.6520742, -0.37092042, 0.41079816, -0.01511097
611, 856759122, -0.24999274, -0.6753418, 0.2393752, -0.6512425, -0.4866186, 0.34192833, 0.05187702
612, 856775789, -0.24994512, -0.6761492, 0.23933125, -0.6504389, -0.5059261, 0.38624895, 0.177248
613, 856792456, -0.24947347, -0.6769848, 0.23883735, -0.6499321, -0.29737207, 0.14330555, 0.07911301
614, 856809123, -0.24878636, -0.67776847, 0.23791893, -0.6497155, -0.12753604, 0.16062076, 0.2228508
615, 856825790, -0.24787734, -0.6783149, 0.23692946, -0.6498541, -0.0032213246, 0.122981854, 0.23160362
616, 856842457, -0.24732107, -0.6785841, 0.23631574, -0.65000844, -0.22006941, 0.07941784, 0.16152859
617, 856859124, -0.24699049, -0.6787774, 0.23595385, -0.650064, -0.36283422, -0.13559179, 0.11114597
618, 856875791, -0.24725081, -0.6788416, 0.23609935, -0.64984506, -0.71156365, -0.1510667, 0.17130375
619, 856892458, -0.2480194, -0.67864496, 0.23645663, -0.6496276, -0.47595492, 0.07325213, 0.025618553
620, 856909125, -0.2485074, -0.6787532, 0.23668404, -0.6492451, -0.15629384, 0.03955408, 0.0126104355
621, 856925792, -0.24890809, -0.6789679, 0.23689389, -0.6487906, -0.25183025, 0.034822535, 0.17834282
622, 856942459, -0.24907415, -0.67913026, 0.23690759, -0.6485516, -0.25916713, -0.13569695, 0.14186764
623, 856959126, -0.24935922, -0.6792255, 0.23696096, -0.6483228, -0.16097246, 2.1099624E-4, 0.14379692
624, 856975793, -0.2492558, -0.67927366, 0.23673788, -0.64839375, -0.020317607, 0.028877538, 0.105321884
625, 856992460, -0.24882884, -0.6793067, 0.23628, -0.64868987, 0.023432372, 0.007096313, 0.14999199
626, 857009127, -0.24861255, -0.6792516, 0.23579094, -0.64900845, -0.021066375, 0.009561549, 0.13707352
627, 857025794, -0.24837196, -0.6793218, 0.23540057, -0.64916897, -0.11206325, -0.124746606, 6.761551E-4
628, 857042461, -0.24816243, -0.67951167, 0.23502496, -0.6491865, -0.19992496, -0.1669872, 0.09897709
629, 857059128, -0.24790777, -0.67966247, 0.23471595, -0.64923763, -0.070781186, -0.21899174, 0.07385826
630, 857075795, -0.2476732, -0.67981833, 0.23449734, -0.64924294, -0.03716009, -0.27098286, 0.093984604
631, 857092462, -0.24785073, -0.67978007, 0.23446678, -0.6492263, 0.041870013, -0.106855735, 0.16047287
632, 857109129, -0.24801901, -0.67968196, 0.23447481, -0.6492618, 0.11533933, -0.06564553, 0.028040886
633, 857125796, -0.24789022, -0.6797738, 0.23430933, -0.64927465, 0.08418917, -0.007884978, 0.09638405
634, 857142463, -0.24756718, -0.6800068, 0.2339394, -0.6492872, 0.15148373, 0.038394608, 0.08854294
635, 857159130, -0.24696329, -0.6803184, 0.23349346, -0.64935124, 0.032617133, -0.13508621, 0.10619545
636, 857175797, -0.24632588, -0.68054426, 0.23301026, -0.6495303, -0.038166232, -0.18093921, 0.12243652
637, 857192464, -0.24598022, -0.6806482, 0.23279996, -0.64962775, -0.102446884, -0.16928111, 0.083387375
638, 857209131, -0.24604121, -0.6806236, 0.23280111, -0.64963, -0.14622492, -0.092346504, 0.124526024
639, 857225798, -0.24626458, -0.6805211, 0.23288321, -0.6496234, -0.2581206, 0.018697977, 0.13642597
640, 857242465, -0.2463823, -0.6804133, 0.23289259, -0.6496883, -0.15448181, 0.0720389, 0.09594822
641, 857259132, -0.246231, -0.68036366, 0.23284724, -0.6498139, -0.16335791, -0.08009877, 0.105677605
642, 857275799, -0.24609265, -0.6802931, 0.23280926, -0.64995366, -0.07939359, -0.20790963, 0.13260937
643, 857292466, -0.24604659, -0.68006194, 0.23271266, -0.6502476, -0.09151582, -0.15823142, 0.25165176
644, 857309133, -0.24626079, -0.6796047, 0.23271075, -0.6506453, -0.23574732, 0.083376594, 0.15624905
645, 857325800, -0.24623719, -0.67912847, 0.23261383, -0.6511859, -0.30885267, 0.048418496, 0.10645485
646, 857342467, -0.24618858, -0.6787061, 0.23251747, -0.6516789, -0.31780788, 0.09497468, 0.08827782
647, 857359134, -0.24642502, -0.6782262, 0.23256457, -0.65207225, -0.35939258, 0.1355872, 0.18028736
648, 857375801, -0.24675015, -0.67761916, 0.23283197, -0.6524848, -0.47021595, 0.10494816, 0.15764809
649, 857392468, -0.24709532, -0.6769559, 0.23314792, -0.6529295, -0.46564767, 0.094604544, 0.08714199
650, 857409135, -0.24740314, -0.6762155, 0.23347099, -0.6534646, -0.39616156, 0.0027737957, 0.09619522
651, 857425802, -0.24780121, -0.67534924, 0.23361954, -0.6541561, -0.056635387, 0.004832462, 0.29441738
652, 857442469, -0.24819204, -0.67417043, 0.2336332, -0.6552181, 0.0359591, 0.25678554, 0.27839184
653, 857459136, -0.2482061, -0.67277527, 0.23331246, -0.6567594, 0.13332827, 0.09005248, 0.22073269
654, 857475803, -0.24844654, -0.6707855, 0.23315531, -0.65875655, -0.19539687, 0.06304496, 0.28265285
655, 857492470, -0.24866065, -0.66830474, 0.23285697, -0.6612977, 0.027035512, 0.027445268, 0.23614693
656, 857509137, -0.24883407, -0.66549516, 0.23245887, -0.66419953, 0.21902303, 0.3360988, 0.3542757
657, 857525804, -0.2490925, -0.66198, 0.23196799, -0.6677774, 0.058350235, 0.4149449, 0.5071926
658, 857542471, -0.24893533, -0.65785766, 0.23100407, -0.6722292, -0.15797292, 0.104013875, 0.38123035
659, 857559138, -0.24813397, -0.6531322, 0.22943589, -0.67764854, -0.26468456, 0.118855365, 0.2567644
660, 857575805, -0.24631147, -0.6482848, 0.22698706, -0.683765, -0.010409837, 0.41686285, 0.17808247
661, 857592472, -0.2435292, -0.64317805, 0.22344813, -0.6907147, 0.2557127, 0.44505274, 0.07464981
662, 857609139, -0.2408891, -0.6373678, 0.21973792, -0.69817644, 0.5718242, -0.064994104, 0.33016396
663, 857625806, -0.23825833, -0.6305873, 0.2162744, -0.70627075, 0.7649507, -0.7854794, 0.7553253
664, 857642473, -0.2363419, -0.6222983, 0.21413715, -0.71486574, 0.44308567, -1.0885706, 0.8596325
665, 857659140, -0.23550427, -0.6129955, 0.21292004, -0.72349125, -0.0019984294, -2.0945826, 0.02322197
666, 857675807, -0.23738211, -0.60304713, 0.21372376, -0.7309626, -0.35794142, -2.0245163, -0.5847368
667, 857692474, -0.24020058, -0.59219444, 0.21621138, -0.738148, -0.8887241, -1.0686591, -0.25288677
668, 857709141, -0.24220377, -0.5813557, 0.21851207, -0.7453963, -0.31435248, -0.20554128, -0.25240707
669, 857725808, -0.24292149, -0.5712426, 0.21937351, -0.75269306, 0.51225144, -0.22908145, -0.19735146
670, 857742475, -0.24267954, -0.5607314, 0.21823213, -0.7609612, 0.35657462, -0.26163074, 0.13577652
671, 857759142, -0.2434563, -0.5488301, 0.21720088, -0.76963556, -0.38999623, 0.6124642, -0.33443642
672, 857775809, -0.24412224, -0.53708345, 0.21714455, -0.7776852, 0.12299806, -1.1595566, -0.8288326
673, 857792476, -0.24528015, -0.52513784, 0.21674639, -0.78555036, -0.467447, -0.51628757, -0.31841278
674, 857809143, -0.24601465, -0.51407975, 0.21575381, -0.79287416, 0.67287695, -0.5247295, -0.3814268
675, 857825810, -0.24606447, -0.50531125, 0.21402645, -0.79894054, 0.60316575, -0.2687295, -0.500967
676, 857842477, -0.246462, -0.49703765, 0.21306302, -0.8042478, -0.024997186, 0.9119998, -0.42833328
677, 857859144, -0.24690428, -0.48754513, 0.21201868, -0.81017685, -0.7670233, 1.3237933, -0.12970352
678, 857875811, -0.24645345, -0.47805858, 0.21001695, -0.8164642, 4.797147E-5, 0.8147654, -0.2632923
679, 857892478, -0.24562101, -0.4692605, 0.2077499, -0.8223776, 0.03982769, 1.161612, -0.055606842
680, 857909145, -0.24453151, -0.45995796, 0.20560886, -0.82847357, -1.0749856, 0.60973275, 0.42440128
681, 857925812, -0.24350435, -0.4507156, 0.20388417, -0.83426183, -1.109557, -0.4748223, -0.013825417
682, 857942479, -0.24274454, -0.44160792, 0.20258798, -0.83965224, -0.7597748, -0.9446201, -0.31825447
683, 857959146, -0.24292809, -0.43208867, 0.20085177, -0.84495217, -0.30089444, -0.24659336, -0.7072878
684, 857975813, -0.24329144, -0.4229758, 0.1987387, -0.8499435, 0.33323205, -0.514006, -0.37982178
685, 857992480, -0.2440746, -0.41384122, 0.19671631, -0.8546731, -0.20685613, 1.0922575, -0.82741356
686, 858009147, -0.24405965, -0.40487602, 0.19438529, -0.85949105, -0.03898935, 0.9941275, -0.10823727
687, 858025814, -0.24339074, -0.39567786, 0.1914033, -0.8646185, -0.6694668, 1.4841506, 0.2879219
688, 858042481, -0.24261448, -0.38603386, 0.18809175, -0.86990684, -0.7568564, 0.3348564, 0.09405041
689, 858059148, -0.24226749, -0.37623987, 0.18519801, -0.8749012, -0.98650324, -0.94336593, 0.15770435
690, 858075815, -0.24234496, -0.36639953, 0.1828379, -0.8795401, -0.8367116, -0.5659512, -0.012436867
691, 858092482, -0.24252528, -0.3569068, 0.18079032, -0.8838065, -0.57114446, 0.2670352, 0.11865997
692, 858109149, -0.24250057, -0.34718984, 0.17866264, -0.8881062, -0.40223905, 0.47095075, -0.0050849915
693, 858125816, -0.24200858, -0.3371409, 0.17610133, -0.8926122, -0.48104805, 0.047396425, -0.20164204
694, 858142483, -0.24216197, -0.3269447, 0.17331684, -0.8968982, -0.6226169, -0.36297274, -0.37679482
695, 858159150, -0.24313071, -0.31671932, 0.17088945, -0.9007627, -0.35814634, -0.4823247, 0.31117344
696, 858175817, -0.24401975, -0.30689406, 0.1678823, -0.90448123, 0.1713647, 0.6355065, 0.22980118
697, 858192484, -0.2443138, -0.29800543, 0.16428511, -0.90802777, 0.671942, 0.6379898, -0.010248184
698, 858209151, -0.24383564, -0.28911188, 0.16085708, -0.9116379, -0.08803862, -0.031398095, 0.004626274
699, 858225818, -0.24349053, -0.2792089, 0.15803176, -0.9153039, -0.5609268, 0.117326476, -0.38705635
700, 858242485, -0.24350414, -0.26940164, 0.15534317, -0.91869324, -0.15210928, -0.5444235, 0.1228714
701, 858259152, -0.24357544, -0.25948748, 0.15256935, -0.9219871, -0.16632129, -0.12464954, 0.37337685
702, 858275819, -0.24377431, -0.2499303, 0.1495598, -0.9250628, -0.05820526, 0.3067492, 0.33730888
703, 858292486, -0.24353747, -0.24110308, 0.14618143, -0.9280034, -0.2054847, 0.0754207, 0.4552269
704, 858309153, -0.24289203, -0.23257959, 0.1428446, -0.9308631, -0.60193044, -0.117480926, -0.031147003
705, 858325820, -0.24236833, -0.22376852, 0.14010735, -0.9335714, -0.30478552, -0.43607613, 0.050415993
706, 858342487, -0.24221066, -0.21456453, 0.13796332, -0.936089, 0.10765261, -0.16964258, -0.04639244
707, 858359154, -0.24223806, -0.20537679, 0.13570784, -0.9384694, 0.44325823, -0.07267097, 0.25263023
708, 858375821, -0.24213351, -0.19665618, 0.13352777, -0.9406745, 0.14192614, -0.03640484, 0.32126045
709, 858392488, -0.24178, -0.18817215, 0.13115256, -0.9428323, 0.090836786, 0.2830483, 0.459157
710, 858409155, -0.24141544, -0.18033381, 0.12913662, -0.944734, -0.24291728, 0.104212075, 0.46334743
711, 858425822, -0.24106811, -0.17311172, 0.12737118, -0.94641185, -0.08310366, 0.3189737, 0.7295904
712, 858442489, -0.24076718, -0.16654472, 0.12462779, -0.9480307, 0.17742014, 0.6884038, 0.7152672
713, 858459156, -0.2407703, -0.16063529, 0.121657446, -0.94943464, -0.3432584, 0.16228268, 0.6547928
714, 858475823, -0.2408255, -0.15554686, 0.11946213, -0.9505458, 0.15767537, -0.49066353, 0.78604317
715, 858492490, -0.2410961, -0.15169509, 0.11823995, -0.9512523, 0.3885733, -0.7120093, 0.0060214996
716, 858509157, -0.2417447, -0.14868964, 0.11754934, -0.9516477, -0.17357099, -0.8847809, 0.64211273
717, 858525824, -0.24249275, -0.14649199, 0.1169779, -0.95186853, 0.029733676, -0.38747838, 0.3913679
718, 858542491, -0.24296421, -0.14476623, 0.11620645, -0.95210695, 0.58828545, -0.9475282, -0.070643425
719, 858559158, -0.24360658, -0.1432176, 0.11579703, -0.9522269, 0.6546723, -1.2728084, -0.18087864
720, 858575825, -0.24464065, -0.14143388, 0.11571301, -0.95223874, 1.0456114, -1.1516429, -0.25508976
721, 858592492, -0.24606584, -0.13935478, 0.115616485, -0.9521896, 1.0093248, -0.6117097, -0.20407295
722, 858609159, -0.2477873, -0.13690533, 0.115960896, -0.9520566, 0.66981316, -0.49541634, -0.1796751
723, 858625826, -0.24950129, -0.13446867, 0.116839215, -0.9518488, 0.68997276, -0.3571513, -0.35500908
724, 858642493, -0.2511186, -0.13216732, 0.11730178, -0.951689, 0.69164735, -0.16349058, 0.0013599396
725, 858659160, -0.25252563, -0.13016106, 0.117375426, -0.9515841, 0.6607037, -0.05517124, 0.15049839
726, 858675827, -0.253695, -0.12840246, 0.11721863, -0.9515313, 0.7598413, 0.01733072, 0.0076169968
727, 858692494, -0.25486392, -0.12674311, 0.1169386, -0.95147586, 0.45960116, -0.05580744, 0.024895668
728, 858709161, -0.25592807, -0.12514627, 0.11677015, -0.95142233, 0.1748596, 0.039343532, 0.06353569
729, 858725828, -0.25670144, -0.12374604, 0.11663048, -0.95141435, 0.051682148, 0.008026378, 0.22869873
730, 858742495, -0.257276, -0.12257952, 0.11652262, -0.9514232, 0.008441106, -0.050482497, 0.2048912
731, 858759162, -0.2577575, -0.12167959, 0.11641068, -0.9514222, 0.12849396, -0.083940655, 0.21859169
732, 858775829, -0.25816226, -0.12105229, 0.11621869, -0.9514159, 0.2442924, -0.09326296, 0.18953991
733, 858792496, -0.25855434, -0.12056896, 0.11600684, -0.9513967, 0.19500996, -0.08948299, 0.16028976
734, 858809163, -0.25891465, -0.120111376, 0.11580011, -0.95138174, 0.10990171, -0.04602213, 0.07289219
735, 858825830, -0.259268, -0.11955503, 0.11564926, -0.951374, 0.10621078, 0.04027603, 0.042934418
736, 858842497, -0.25961107, -0.11898998, 0.11545602, -0.95137453, 0.1346537, 0.021713277, 0.088643074
737, 858859164, -0.25991032, -0.118452154, 0.11536097, -0.95137167, 0.12846798, -0.024118919, 0.07574749
738, 858875831, -0.26014504, -0.11795953, 0.11550802, -0.95135087, 0.32668975, -0.096642256, 0.06460953
739, 858892498, -0.26032823, -0.11758825, 0.11556507, -0.9513397, 0.51414406, 0.0867594, 0.06546879
740, 858909165, -0.26048845, -0.117357805, 0.11531182, -0.95135504, 0.49064413, 0.16414423, 0.04915428
741, 858925832, -0.26059297, -0.11719647, 0.11486631, -0.9514002, 0.3180499, 0.056312162, 0.03417492
742, 858942499, -0.260654, -0.11702478, 0.1144538, -0.9514544, 0.26136512, 0.049088195, 0.0362072
743, 858959166, -0.2606758, -0.11681974, 0.11402728, -0.95152485, 0.27165043, 0.11869734, 0.104842186
744, 858975833, -0.2606461, -0.116679035, 0.11349967, -0.95161325, 0.27929944, 0.066531815, 0.06771946
745, 858992500, -0.26052094, -0.116637945, 0.11284116, -0.95173085, 0.27716175, 0.021718362, 0.05605507
746, 859009167, -0.2602838, -0.116664134, 0.11219081, -0.9518694, 0.24577758, -0.040938605, 0.08679867
747, 859025834, -0.25990996, -0.11683384, 0.11143896, -0.9520391, 0.29362455, 0.057188082, 0.1471262
748, 859042501, -0.25940487, -0.11723343, 0.11042891, -0.9522455, 0.18337643, 0.11733162, 0.133914
749, 859059168, -0.25876293, -0.11772896, 0.10921385, -0.952499, -0.044246178, -0.018026153, 0.068852425
750, 859075835, -0.2579563, -0.1183511, 0.10794793, -0.95278496, -0.13536833, -0.14121076, 0.07921028
751, 859092502, -0.25701484, -0.11898941, 0.10663642, -0.95310754, -0.21434174, -0.20828806, 0.014627457
752, 859109169, -0.2561699, -0.11949092, 0.10544445, -0.9534049, -0.20635004, -0.14387906, 0.07960129
753, 859125836, -0.2554003, -0.119915746, 0.104449674, -0.9536674, -0.21374795, -0.22835852, 0.10838127
754, 859142503, -0.2546266, -0.120427586, 0.103287555, -0.95393634, -0.04984347, -0.17550091, 0.14451313
755, 859159170, -0.25371566, -0.12116138, 0.10220715, -0.95420253, -0.07195804, -0.39484343, 0.09499359
756, 859175837, -0.25259843, -0.12214504, 0.10130293, -0.95446986, -0.19348961, -0.5081204, 0.02675438
757, 859192504, -0.25155395, -0.122917295, 0.100580335, -0.954723, -0.34358138, -0.30931163, 0.045660973
758, 859209171, -0.25076842, -0.123364836, 0.10029824, -0.9549016, -0.21669263, -0.32834023, 0.08308315
759, 859225838, -0.25006056, -0.123989336, 0.10017769, -0.9550189, 0.0026456949, -0.5254552, 0.03242016
760, 859242505, -0.24930447, -0.12477259, 0.09990161, -0.9551436, 0.12068361, -0.50327873, 0.013458252
761, 859259172, -0.2487849, -0.12534124, 0.09982192, -0.9552129, 0.051685948, -0.29270482, 0.055009842
762, 859275839, -0.2484095, -0.12594315, 0.09996399, -0.9552166, 0.25232837, -0.45726547, 0.09358215
763, 859292506, -0.24790189, -0.12684432, 0.10010135, -0.95521474, 0.59368676, -0.6191856, -0.0031576157
764, 859309173, -0.24746895, -0.12782301, 0.10006902, -0.9552, 0.53494287, -0.26485285, -0.14270496
765, 859325840, -0.24730465, -0.12860416, 0.10037886, -0.9551051, 0.71595854, -0.05557496, -0.27541542
766, 859342507, -0.24753799, -0.12940069, 0.10099266, -0.9548723, 1.1701806, -0.27650398, -0.3372898
767, 859359174, -0.24837995, -0.13037719, 0.101464644, -0.9544709, 1.5472691, -0.61771995, -0.6680975
768, 859375841, -0.24967338, -0.13155556, 0.1015909, -0.95395815, 1.906138, -0.56905943, -0.35535526
769, 859392508, -0.25084937, -0.13404177, 0.10081489, -0.95338553, 2.4984944, -0.45783556, 0.46972847
770, 859409175, -0.25154287, -0.13735034, 0.102220535, -0.952582, 2.1052337, -0.59721947, 0.04937172
771, 859425842, -0.25223538, -0.14110444, 0.106723994, -0.9513555, 2.6246448, -1.7308625, 0.6333456
772, 859442509, -0.25196534, -0.14667515, 0.11133882, -0.9500547, 2.6712034, -0.6507843, 0.52044296
773, 859459176, -0.2512758, -0.15498774, 0.1157247, -0.94839203, 2.535833, -0.87004364, 0.3256979
774, 859475843, -0.25046903, -0.16320004, 0.119194575, -0.9467969, 2.085424, 0.4019871, 0.07064724
775, 859492510, -0.24969384, -0.17137057, 0.12134839, -0.945283, 1.8059944, -0.31553712, 0.15780449
776, 859509177, -0.2489705, -0.17963171, 0.12390342, -0.94360715, 0.43190444, -1.9494641, 0.12992573
777, 859525844, -0.24855472, -0.18781304, 0.12742798, -0.9416524, 0.053324714, -1.5449961, 0.12664223
778, 859542511, -0.24861996, -0.1961262, 0.13062377, -0.9395001, 0.10740907, -1.0201972, 0.42428493
779, 859559178, -0.24891604, -0.2050338, 0.13419701, -0.93701315, -1.1128151, -0.73043734, 0.45772552
780, 859575845, -0.24895033, -0.2148577, 0.13872178, -0.9341396, -1.8418058, -0.13813072, 0.48982525
781, 859592512, -0.2489532, -0.22557634, 0.14380458, -0.93083733, -1.6082815, 0.50195587, 0.5335798
782, 859609179, -0.24901557, -0.2367459, 0.14840935, -0.92731744, -1.5481977, 0.86685926, 0.60425186
783, 859625846, -0.24905784, -0.24833593, 0.15257417, -0.9235914, -1.4716619, 0.92434776, 0.72694874
784, 859642513, -0.24901195, -0.26021913, 0.15649262, -0.9196683, -1.3445654, 1.1069515, 0.66764164
785, 859659180, -0.24903017, -0.2722532, 0.16007619, -0.91555345, -1.3095934, 1.0487007, 0.588294
786, 859675847, -0.24905106, -0.28410867, 0.1634046, -0.9113479, -1.5011653, 0.7133153, 0.52740383
787, 859692514, -0.24910632, -0.2955231, 0.16713022, -0.9070172, -1.5094254, 0.32339275, 0.4850378
788, 859709181, -0.24918562, -0.30674636, 0.17119777, -0.9024992, -1.2544148, 0.40165317, 0.31640053
789, 859725848, -0.24948695, -0.31799653, 0.17526926, -0.8977279, -1.1051992, 0.38120916, 0.04932213
790, 859742515, -0.25001213, -0.32943985, 0.17898484, -0.8927083, -0.69292575, 0.21505204, 0.08101463
791, 859759182, -0.25064498, -0.3412658, 0.18215054, -0.8874324, -0.42185944, 0.20224978, 0.012225151
792, 859775849, -0.2513238, -0.35338768, 0.18493253, -0.88190347, -0.5007278, 0.27249336, -0.019563675
793, 859792516, -0.25180516, -0.36540797, 0.18764345, -0.87627697, -0.47557288, 0.3822033, -0.14337254
794, 859809183, -0.252045, -0.37742203, 0.19033875, -0.8705157, -0.49748603, 0.38932902, -0.0815506
795, 859825850, -0.25218275, -0.38945296, 0.19311568, -0.86454445, -0.5812374, 0.6371915, -0.19765091
796, 859842517, -0.25222734, -0.4012283, 0.19600423, -0.8584753, -0.26263803, 0.6406881, -0.23123169
797, 859859184, -0.25225732, -0.41277424, 0.19916405, -0.8522428, -0.39368692, 0.3972109, -0.14627552
798, 859875851, -0.25222963, -0.42439687, 0.20194733, -0.8458636, -0.2248716, 0.73174334, -0.2142582
799, 859892518, -0.25192982, -0.43608117, 0.2041749, -0.83945066, -0.30854106, 0.9473607, -0.18636131
800, 859909185, -0.25125802, -0.4476731, 0.20583948, -0.8331198, -0.41206843, 0.8079335, -0.085933685
801, 859925852, -0.25034794, -0.45919293, 0.20719776, -0.82676303, -0.54855967, 0.8752129, -0.071190834
802, 859942519, -0.24903916, -0.47066402, 0.20830637, -0.8204045, -0.44952607, 0.6602684, 0.041752815
803, 859959186, -0.24745925, -0.4821532, 0.20938773, -0.8139098, -0.79410166, 0.39623663, -0.14586449
804, 859975853, -0.24600944, -0.4936857, 0.21059267, -0.8070966, -0.80040187, 0.006016745, -0.26632977
805, 859992520, -0.24486911, -0.5047424, 0.21207897, -0.8001855, -0.8224637, -0.034405127, -0.29319096
806, 860009187, -0.24409921, -0.51565516, 0.21365486, -0.7930115, -1.2586725, -0.21933684, -0.32051563
807, 860025854, -0.24360211, -0.52617604, 0.214891, -0.7858874, -1.0952255, -0.4000085, -0.36756802
808, 860042521, -0.24360558, -0.536245, 0.21636052, -0.77864397, -0.59587383, -0.7904042, -0.44013023
809, 860059188, -0.24448608, -0.54608935, 0.21843362, -0.7709086, -0.37711895, -0.37319723, -0.50171757
810, 860075855, -0.2456659, -0.5555905, 0.22138526, -0.7628607, -0.49206662, -0.22500457, -0.26838112
811, 860092522, -0.24714051, -0.5644018, 0.22460485, -0.7549339, -0.24294126, 0.3191415, -0.41970158
812, 860109189, -0.2481811, -0.57274437, 0.22756186, -0.7473862, 0.30153814, 0.46482202, -0.3278799
813, 860125856, -0.24882117, -0.58104694, 0.22973216, -0.7400648, 0.77381057, 0.5044423, -0.21848774
814, 860142523, -0.24922436, -0.5890655, 0.23161821, -0.7329682, 0.35301557, 0.39513448, -0.14867306
815, 860159190, -0.24862404, -0.5972524, 0.23278442, -0.72614557, 0.20701334, -0.11890487, -0.18767357
816, 860175857, -0.24849148, -0.6049516, 0.2341026, -0.7193621, -0.0720251, -0.44373813, -0.12829399
817, 860192524, -0.24906734, -0.612037, 0.23601112, -0.71251345, -0.43163252, -0.6582563, 0.14352322
818, 860209191, -0.25017637, -0.6181566, 0.23774847, -0.70623684, -0.21682467, -0.51901126, 0.18981266
819, 860225858, -0.2510971, -0.6239999, 0.23901726, -0.7003182, 0.07187182, -0.8380101, 0.024928093
820, 860242525, -0.2518025, -0.62949264, 0.24004048, -0.69477725, 0.21566088, -0.8777031, 0.07048035
821, 860259192, -0.2531947, -0.63430095, 0.24130791, -0.68943864, 0.37112185, -0.7116039, 0.22326565
822, 860275859, -0.25525802, -0.6384776, 0.24281825, -0.68427294, 0.53246605, -0.2547815, 0.13991737
823, 860292526, -0.25734687, -0.6424337, 0.24440633, -0.67920357, 0.42689762, 0.01279567, 0.11951923
824, 860309193, -0.25925848, -0.646153, 0.24585548, -0.67440856, 0.3483194, 0.5162845, 0.11766434
825, 860325860, -0.26018885, -0.6495506, 0.24640033, -0.6705765, 0.33894482, 0.45175266, 0.24711323
826, 860342527, -0.2601071, -0.6529854, 0.24640983, -0.6672607, 0.21838143, -0.023871519, 0.17529964
827, 860359194, -0.26006785, -0.6563287, 0.24651115, -0.66395026, 0.1703323, -0.33699206, 0.20373821
828, 860375861, -0.26039547, -0.6595584, 0.24669257, -0.66054523, 0.45233542, -0.112832025, 0.25406075
829, 860392528, -0.26085684, -0.6622659, 0.24691686, -0.65756375, 0.29092336, 0.15637837, 0.2934065
830, 860409195, -0.26073605, -0.6646653, 0.24671017, -0.6552641, 0.2392752, 0.08809137, 0.30799675
831, 860425862, -0.25975657, -0.6669841, 0.24609387, -0.65352654, 0.06918391, -0.14229281, 0.12669468
832, 860442529, -0.25875342, -0.66922104, 0.24548812, -0.6518632, 0.027933476, -0.4317478, 0.16423416
833, 860459196, -0.258344, -0.6711632, 0.24538615, -0.650065, 0.050086237, -0.23400398, 0.16406822
834, 860475863, -0.2580269, -0.67266333, 0.24524891, -0.64869064, 0.21045265, -0.23677789, 0.16674519
835, 860492530, -0.2581314, -0.67348015, 0.24515307, -0.64783704, 0.37030095, 0.005641802, 0.42308235
836, 860509197, -0.25847745, -0.67384666, 0.24532488, -0.64725274, 0.14994517, -0.10472006, 0.31572723
837, 860525864, -0.25891402, -0.67409205, 0.24584417, -0.6466255, -0.1434837, -0.37123168, 0.018427849
838, 860542531, -0.2597008, -0.674231, 0.24663849, -0.6458623, -0.17959121, -0.10754695, 0.16073799
839, 860559198, -0.26033208, -0.6743614, 0.24733922, -0.64520353, 0.011851998, 0.044679906, 0.18996906
840, 860575865, -0.2610701, -0.6742985, 0.24801582, -0.6447111, -0.21395476, 0.3758985, 0.14097881
841, 860592532, -0.26154336, -0.6742474, 0.2482922, -0.64446646, -0.3469994, 0.33004805, 0.03700447
842, 860609199, -0.26139796, -0.6745286, 0.24807218, -0.6443156, -0.06418583, 0.33840075, 0.009613037
843, 860625866, -0.2605389, -0.67500377, 0.24724205, -0.6444851, -0.04670197, 0.2236095, 0.22380638
844, 860642533, -0.25956067, -0.67537826, 0.2461794, -0.6448942, -0.019451104, 0.1143537, 0.19687271
845, 860659200, -0.2586114, -0.6756845, 0.2451223, -0.6453574, -0.34057736, -0.101578705, 0.07674885
846, 860675867, -0.2581252, -0.67593175, 0.24436346, -0.6455807, -0.4794326, -0.05569049, 0.08687878
847, 860692534, -0.2579287, -0.6761644, 0.24391775, -0.6455843, -0.55403733, -0.042599782, 0.08211899
848, 860709201, -0.25785643, -0.6763895, 0.2434494, -0.64555407, -0.33982193, -0.04416996, 0.10754871
849, 860725868, -0.25776362, -0.67647535, 0.24296337, -0.6456843, 0.011995438, 0.008820157, 0.08989239
850, 860742535, -0.25742808, -0.6765763, 0.24243642, -0.6459104, 0.25125414, -0.23422135, 0.05854416
851, 860759202, -0.25719556, -0.6766612, 0.24201895, -0.6460706, 0.29813293, -0.2048816, 0.25336456
852, 860775869, -0.2571167, -0.67656654, 0.24194627, -0.6462284, 0.23119538, -0.16932794, 0.12300682
853, 860792536, -0.25707093, -0.6765183, 0.24210042, -0.6462393, 0.17484072, -0.15243606, 0.05842781
854, 860809203, -0.25699598, -0.6764679, 0.24221756, -0.6462779, -0.018323034, -0.05406119, 0.11999321
855, 860825870, -0.2569552, -0.6762767, 0.24222235, -0.6464925, -0.10697246, -0.029598145, 0.16210842
856, 860842537, -0.25725445, -0.67583436, 0.24236071, -0.6467841, -0.3009018, 0.06237375, 0.12707615
857, 860859204, -0.25756937, -0.67548746, 0.24255222, -0.64694947, -0.24538861, 0.02286884, -0.023117065
858, 860875871, -0.25784162, -0.6752503, 0.2427842, -0.6470014, -0.1287139, -0.041798152, 0.12558842
859, 860892538, -0.25789428, -0.6750894, 0.24281818, -0.6471355, 0.035068624, 0.020300452, 0.15111446
860, 860909205, -0.2578484, -0.67491454, 0.24277028, -0.64735425, 0.19531608, 0.028547745, 0.12296486
861, 860925872, -0.25784358, -0.67462665, 0.24282289, -0.6476364, 0.04922247, -0.20561907, 0.17924976
862, 860942539, -0.25820592, -0.67405117, 0.24298713, -0.6480295, -0.2227695, 0.09847277, 0.23516655
863, 860959206, -0.25845543, -0.67329276, 0.24324407, -0.6486219, -0.3526483, 0.05259975, 0.049167633
864, 860975873, -0.2584854, -0.672681, 0.24330267, -0.6492223, -0.30520386, 0.04641213, 0.08238602
865, 860992540, -0.25860658, -0.672117, 0.24332023, -0.6497514, -0.06095785, 0.12341938, 0.12123966
866, 861009207, -0.25864512, -0.67145085, 0.24335745, -0.65041065, -0.0025191586, -0.07407734, 0.09975624
867, 861025874, -0.25867182, -0.67070574, 0.24326526, -0.65120274, 0.15636435, -0.19644833, 0.22474384
868, 861042541, -0.2587529, -0.66966933, 0.24303685, -0.6523215, 0.1327249, 0.01743971, 0.3042059
869, 861059208, -0.25875193, -0.668564, 0.24307513, -0.65344036, -0.0042599333, 0.18206237, 0.14813137
870, 861075875, -0.25873238, -0.66740525, 0.24328017, -0.65455544, -0.38250118, 0.13261326, 0.06868076
871, 861092542, -0.25849018, -0.6662078, 0.24315985, -0.6559143, -0.34829944, 0.119064346, 0.11559391
872, 861109209, -0.25800285, -0.66498536, 0.24246722, -0.6576008, -0.06836893, 0.14784946, 0.24003506
873, 861125876, -0.2579238, -0.66327876, 0.24187191, -0.6595718, -0.080555916, 0.35936213, 0.3122816
874, 861142543, -0.25792116, -0.661101, 0.24126907, -0.66197556, -0.44811055, 0.30919966, 0.15500164
875, 861159210, -0.25746867, -0.65865064, 0.24012218, -0.6650044, -0.28486407, 0.013380603, 0.18799591
876, 861175877, -0.25678045, -0.65595996, 0.23864877, -0.66845155, 0.041085538, 0.027849827, 0.42708588
877, 861192544, -0.25629124, -0.65260386, 0.23732476, -0.672384, -0.089566335, 0.32242638, 0.4864769
878, 861209211, -0.25540993, -0.64866334, 0.23578446, -0.677058, -0.23803046, 0.11696545, 0.14706135
879, 861225878, -0.2543449, -0.64409864, 0.23371072, -0.6825141, 0.19774248, -0.039362643, 0.2564745
880, 861242545, -0.25348702, -0.6387949, 0.23173425, -0.6884656, 0.38274157, -0.045076415, 0.39143848
881, 861259212, -0.2521083, -0.63327587, 0.22988467, -0.6946628, -0.019254468, -0.25229818, 0.3749647
882, 861275879, -0.25036314, -0.6272295, 0.22767004, -0.70147574, 0.047606304, -0.5913596, 0.4316311
883, 861292546, -0.24830909, -0.62024105, 0.22547726, -0.70908666, -0.2063855, -0.4959329, 0.36274815
884, 861309213, -0.24770355, -0.61172503, 0.22473794, -0.71688825, -0.4602173, -0.832072, 0.28712654
885, 861325880, -0.24882497, -0.60242176, 0.22506347, -0.7242383, -0.3755073, -1.3649276, -0.23782158
886, 861342547, -0.25082776, -0.59240496, 0.22638312, -0.73136365, -1.0948708, -1.5833787, 0.07174587
887, 861359214, -0.25448716, -0.58123, 0.22932345, -0.7381186, -2.048997, -0.41048747, 0.037407875
888, 861375881, -0.25823036, -0.56989306, 0.23258975, -0.7446082, -0.86150724, -0.55820906, -0.43527412
889, 861392548, -0.2604712, -0.5603512, 0.23380911, -0.75066304, 0.08034643, 0.14526744, -0.40727997
890, 861409215, -0.26045817, -0.5513281, 0.23240669, -0.7577509, 0.76297885, 0.27629253, 0.14398575
891, 861425882, -0.26010495, -0.5418041, 0.23026966, -0.76535636, 0.45411038, -0.122357026, 0.0657711
892, 861442549, -0.2604778, -0.5308209, 0.22933073, -0.77316785, -0.48285967, -0.7548842, -0.22021866
893, 861459216, -0.2626734, -0.518776, 0.23047657, -0.7802276, -0.046558473, -0.17460084, -0.63041973
894, 861475883, -0.26498878, -0.50715077, 0.23194987, -0.7866249, 1.5484924, -0.14406471, -0.5797653
895, 861492550, -0.2655659, -0.49715704, 0.23137058, -0.79295516, 1.779339, 0.6516522, -0.25022888
896, 861509217, -0.26400548, -0.48780426, 0.22795543, -0.80024034, 0.7312553, 0.5670479, -0.2940216
897, 861525884, -0.26272494, -0.47795206, 0.22457469, -0.80752957, 0.016652945, 0.47981036, -0.7286682
898, 861542551, -0.2624998, -0.4674687, 0.22206987, -0.8144029, -0.41444844, 0.5198853, -0.8452196
899, 861559218, -0.26293647, -0.45719773, 0.22067112, -0.82045066, 0.8188635, 0.5292491, -0.19849968
900, 861575885, -0.26200858, -0.44858095, 0.21857373, -0.82604647, 0.47865355, 0.36178264, 0.28015518
901, 861592552, -0.26079264, -0.43995404, 0.21547928, -0.8318634, -0.12144968, 0.13851489, 0.14058495
902, 861609219, -0.2597839, -0.43077424, 0.21334648, -0.8375139, -0.3870189, -0.8159753, -0.01745224
903, 861625886, -0.25987393, -0.42084795, 0.21227182, -0.8427893, -1.0980564, -0.3256652, -0.63755417
904, 861642553, -0.26077086, -0.41090783, 0.21130806, -0.84764534, -0.7093065, -0.20104097, -0.6759329
905, 861659220, -0.2620013, -0.40066195, 0.20999983, -0.85248214, -0.25264835, 0.8003864, -0.5730982
906, 861675887, -0.26287904, -0.3895644, 0.2075839, -0.8579297, -0.1046239, 0.011677993, -0.1384058
907, 861692554, -0.26286152, -0.37989545, 0.20462658, -0.8629667, -0.26973057, -0.39773884, -0.19167805
908, 861709221, -0.26297507, -0.36992952, 0.20158432, -0.8679634, -0.48281485, -0.0093634045, -0.31999874
909, 861725888, -0.26367557, -0.35907397, 0.19984335, -0.8726993, -1.1055536, -0.60210836, -0.15152168
910, 861742555, -0.2645907, -0.34785545, 0.19911495, -0.87712145, -0.9908032, 0.8081435, 0.033399582
911, 861759222, -0.26511464, -0.3368938, 0.19793752, -0.88149774, -0.9201739, 1.8518047, 0.42380714
912, 861775889, -0.26493907, -0.32589915, 0.19570076, -0.88617086, -1.1226417, 2.0011475, 0.3324585
913, 861792556, -0.26462597, -0.31500432, 0.19252291, -0.8908876, -0.9555668, 0.8714999, 0.19905376
914, 861809223, -0.26441053, -0.30433223, 0.1889602, -0.8954124, -0.94812405, 0.020988425, 0.14736938
915, 861825890, -0.264458, -0.29385018, 0.18575011, -0.8995617, -1.2077813, -0.19408457, 0.18423557
916, 861842557, -0.2645078, -0.2839571, 0.18226957, -0.9034279, -0.9942006, 0.97668827, 0.4039259
917, 861859224, -0.26433647, -0.27404624, 0.17763583, -0.90745276, -0.80744094, 1.1374193, 0.34286308
918, 861875891, -0.26418084, -0.2632266, 0.1726863, -0.9116468, -1.0714191, -0.025449688, 0.04049301
919, 861892558, -0.26433435, -0.25190014, 0.16854982, -0.9155682, -0.66923356, -0.8690827, -0.20122051
920, 861909225, -0.2647423, -0.24114731, 0.1646785, -0.9190435, 0.42472193, -0.4121764, -0.015292168
921, 861925892, -0.2651711, -0.2309765, 0.16092867, -0.9221911, 0.5293275, 0.3494609, 0.2967472
922, 861942559, -0.26504624, -0.22081771, 0.15719002, -0.9253548, 0.4344236, 0.5337273, 0.23800087
923, 861959226, -0.26435956, -0.21093158, 0.15322514, -0.9285173, 0.694194, 0.016211338, -0.13794327
924, 861975893, -0.26351216, -0.20073763, 0.14929107, -0.93165356, 0.7612526, -0.14148547, -0.44635105
925, 861992560, -0.26298407, -0.19024445, 0.14576338, -0.93455875, 1.0356119, -0.28697434, 0.18583107
926, 862009227, -0.26249915, -0.18014319, 0.14237888, -0.9372147, 0.7307591, -0.12781353, 0.52351284
927, 862025894, -0.2622521, -0.17057183, 0.13898878, -0.9395806, 0.44493753, 0.24182817, 0.5414543
928, 862042561, -0.26192188, -0.16201271, 0.13588978, -0.9416384, -0.5988368, -0.15151039, 0.98562527
929, 862059228, -0.2611075, -0.154703, 0.13345493, -0.94344056, -0.52375793, -0.2944849, 1.1504211
930, 862075895, -0.26025996, -0.14881675, 0.13124096, -0.94493085, 0.04390775, -0.14130902, 0.848608
931, 862092562, -0.2599971, -0.14397909, 0.12893614, -0.94606954, 0.39641568, -0.7027249, 0.6358719
932, 862109229, -0.26048544, -0.13976492, 0.12735799, -0.94678056, 0.6287304, -1.0657018, 0.11905575
933, 862125896, -0.26160803, -0.13598509, 0.12669225, -0.9471107, 0.10022237, -1.2197285, -0.023568153
934, 862142563, -0.26275125, -0.13302377, 0.12677076, -0.9472044, -0.060737606, -1.1704109, 0.41020775
935, 862159230, -0.2637268, -0.13091612, 0.12697347, -0.9471997, 0.67362046, -0.87696266, 0.20161343
936, 862175897, -0.26491517, -0.12894437, 0.12731594, -0.94709253, 0.80683285, -0.891699, -0.27324295
937, 862192564, -0.26639658, -0.12661661, 0.127749, -0.94693273, 0.5893445, -0.6448538, -0.5422354
938, 862209231, -0.26817372, -0.12387591, 0.12856582, -0.94668317, 0.49546602, -0.7761321, -0.3440876
939, 862225898, -0.2698258, -0.12090999, 0.12994193, -0.94640917, 0.5194089, -0.6255951, -0.12858391
940, 862242565, -0.2713103, -0.11821441, 0.131695, -0.9460829, 1.1712481, -0.26695403, -0.15590668
941, 862259232, -0.27286762, -0.11591564, 0.13286796, -0.94575536, 1.2262203, 0.19746883, 0.09026718
942, 862275899, -0.2742184, -0.11375195, 0.13337797, -0.9455556, 1.0931677, 0.37261125, 0.22808838
943, 862292566, -0.2751758, -0.11172424, 0.13329495, -0.9455309, 1.1276696, 0.3441545, 0.11821842
944, 862309233, -0.2759532, -0.109756246, 0.13283841, -0.9455991, 0.97269684, 0.37916642, -0.0064315796
945, 862325900, -0.27651954, -0.10788777, 0.13220543, -0.9457375, 0.7506232, 0.40253562, 0.098148346
946, 862342567, -0.27675867, -0.106208205, 0.13152285, -0.94595283, 0.5421811, 0.4069339, 0.24186039
947, 862359234, -0.27666536, -0.10495919, 0.1308174, -0.94621724, 0.68407106, 0.34882453, 0.34027958
948, 862375901, -0.27629855, -0.10424972, 0.12992465, -0.9465258, 0.4392746, 0.24073762, 0.2903986
949, 862392568, -0.27581424, -0.103879504, 0.12875372, -0.94686776, 0.2774484, 0.1720018, 0.2770424
950, 862409235, -0.27542248, -0.1036626, 0.1275317, -0.9471708, 0.25560364, -0.10096263, 0.13032818
951, 862425902, -0.27511042, -0.10332412, 0.12670693, -0.9474091, -0.07736197, -0.23051251, 0.09073925
952, 862442569, -0.27483988, -0.1030089, 0.12629193, -0.9475773, -0.17665103, -0.24074109, 0.13228893
953, 862459236, -0.2745675, -0.10290075, 0.12582648, -0.94773, -0.09863881, -0.19511259, 0.11927223
954, 862475903, -0.27422807, -0.103233434, 0.12493042, -0.9479106, -0.0028188056, -0.31608313, 0.06271839
955, 862492570, -0.27387196, -0.10358341, 0.12406193, -0.9480894, -0.0323048, -0.52924, -0.025894165
956, 862509237, -0.27377072, -0.103677176, 0.12364056, -0.94816357, -0.07691611, -0.38960785, 0.009842873
957, 862525904, -0.27389893, -0.103524745, 0.12338408, -0.9481766, -0.16259332, -0.21101531, 0.079779625
958, 862542571, -0.27404866, -0.1033099, 0.12312801, -0.94819, -0.21540187, -0.28283173, 0.04368782
959, 862559238, -0.27406475, -0.10318244, 0.12307607, -0.948206, -0.110561326, -0.34094048, 0.034243584
960, 862575905, -0.27387452, -0.10331571, 0.12306567, -0.94824773, 0.026998522, -0.2665919, 0.029341698
961, 862592572, -0.27367523, -0.10358719, 0.12292098, -0.94829446, 0.15009888, -0.24248518, 0.03300953
962, 862609239, -0.27371854, -0.103740826, 0.12260161, -0.9483065, 0.06227236, -0.11989872, 0.06604767
963, 862625906, -0.2740207, -0.10368618, 0.12240886, -0.94825006, 0.060752917, -0.087537594, 0.11325836
964, 862642573, -0.27427572, -0.103707224, 0.122449175, -0.94816893, 0.07589072, -0.17398743, 0.075829506
965, 862659240, -0.2743185, -0.103863634, 0.122555874, -0.94812566, 0.16292614, -0.029193642, 0.079286575
966, 862675907, -0.27421358, -0.10395942, 0.12269, -0.9481281, 0.25531825, 0.1771876, 0.089491844
967, 862692574, -0.27395567, -0.104160674, 0.12283807, -0.9481614, 0.49492875, 0.28161433, 0.12632847
968, 862709241, -0.2734225, -0.10478825, 0.12247719, -0.94829273, 0.6628854, 0.24007995, 0.14027596
969, 862725908, -0.2727178, -0.10555032, 0.1218151, -0.9484967, 0.5440961, 0.37834316, 0.061724663
970, 862742575, -0.27197883, -0.10623933, 0.121362075, -0.94868976, 0.5200041, 0.30350444, 0.12660122
971, 862759242, -0.27096897, -0.10713314, 0.120945886, -0.94893134, 0.6030727, 0.30973604, 0.11216259
972, 862775909, -0.26965544, -0.108269386, 0.12028111, -0.949261, 0.6349113, 0.28359497, 0.07655811
973, 862792576, -0.26822054, -0.10951312, 0.119443886, -0.94963056, 0.69907546, 0.33037993, 0.045851707
974, 862809243, -0.26649576, -0.11115978, 0.11798271, -0.9501074, 0.8048225, 0.09943455, 0.039668083
975, 862825910, -0.2648737, -0.112859786, 0.116401546, -0.95055544, 0.67274207, -0.09316575, 0.003399849
976, 862842577, -0.26348418, -0.11452892, 0.1149553, -0.950918, 0.5588214, -0.088744886, -0.071115494
977, 862859244, -0.26220128, -0.11610768, 0.11392434, -0.951205, 0.7084632, 0.067943744, -0.34158134
978, 862875911, -0.26119787, -0.117577635, 0.11250781, -0.9514692, 0.86898315, 0.282366, -0.48597622
979, 862892578, -0.2603261, -0.11924196, 0.11072728, -0.95170987, 1.2556195, 0.22637862, -0.15548134
980, 862909245, -0.25917217, -0.12222641, 0.108262375, -0.95192975, 2.0936031, 0.0326881, 0.18318653
981, 862925912, -0.2577393, -0.12664877, 0.10531517, -0.95207125, 2.370094, -1.7114025, 0.77291584
982, 862942579, -0.25706467, -0.13219023, 0.107255735, -0.95128334, 2.112102, -2.9051995, 0.68267727
983, 862959246, -0.2557394, -0.14034066, 0.11061335, -0.9500879, 2.1548014, -2.271691, -0.1534481
984, 862975913, -0.2545509, -0.14749867, 0.11357645, -0.9489724, 1.536308, -1.1842501, -0.9360447
985, 862992580, -0.2536141, -0.1549396, 0.11598143, -0.9477458, 2.2372377, -1.0994071, 0.33542442
986, 863009247, -0.25326204, -0.16288947, 0.11682446, -0.94640255, 1.834323, -0.18162392, 0.26497746
987, 863025914, -0.25253883, -0.1712621, 0.118010744, -0.94496965, 0.24897575, -2.9237342, -0.12242794
988, 863042581, -0.25195464, -0.17912938, 0.12159495, -0.9432107, -0.4749011, -2.7713215, -0.13467026
989, 863059248, -0.25246313, -0.18700446, 0.12577692, -0.9409954, -0.28439495, -1.502276, 0.29400158
990, 863075915, -0.25358567, -0.19445914, 0.12979949, -0.9386333, -0.36605838, -1.1012206, -0.0021343231
991, 863092582, -0.25507012, -0.20208713, 0.13422135, -0.93599415, -0.8286358, -0.5353565, 0.62687874
992, 863109249, -0.25661173, -0.21083708, 0.13893497, -0.93294996, -1.3379096, 0.25209072, 0.8251238
993, 863125916, -0.25791436, -0.22032942, 0.14393657, -0.92963314, -1.6753253, 0.45997906, 0.55853844
994, 863142583, -0.25919944, -0.23038356, 0.1493278, -0.92598087, -1.6540372, 0.8071414, 0.65475464
995, 863159250, -0.26060882, -0.24079962, 0.15476201, -0.9220345, -1.6752884, 1.4321928, 0.89376926
996, 863175917, -0.26193756, -0.25160396, 0.15992358, -0.917883, -1.4480975, 1.8791338, 1.1204262
997, 863192584, -0.26294434, -0.2628147, 0.16475095, -0.91358984, -1.3480518, 1.6533108, 1.1706009
998, 863209251, -0.26366773, -0.27447802, 0.16950694, -0.9090704, -1.5971546, 1.1361203, 0.5990839
999, 863225918, -0.2643836, -0.28646153, 0.17463754, -0.90418094, -1.4492776, 0.76928633, 0.5020113
1000, 863242585, -0.26514778, -0.29878387, 0.17993082, -0.8989161, -1.2651873, 0.9468235, 0.65687275
1001, 863259252, -0.2658733, -0.3116026, 0.18469152, -0.89336693, -1.0454593, 1.1001719, 0.6531658
1002, 863275919, -0.26658955, -0.32487056, 0.1885265, -0.8876076, -0.9455526, 1.0391978, 0.350955
1003, 863292586, -0.2673616, -0.33855483, 0.19170848, -0.8815593, -0.80617726, 1.0638436, 0.038409233
1004, 863309253, -0.2681827, -0.35245815, 0.19477145, -0.8751661, -0.6261303, 1.0950012, 0.06856823
1005, 863325920, -0.26865304, -0.366472, 0.19777654, -0.8685671, -0.6447394, 1.3026829, -0.2512293
1006, 863342587, -0.26853877, -0.38065532, 0.20089822, -0.8617591, -0.3666012, 0.8858751, -0.20005322
1007, 863359254, -0.26807943, -0.39489445, 0.20351566, -0.854853, -0.4461276, 1.059383, -0.3306942
1008, 863375921, -0.2677543, -0.408607, 0.20592421, -0.84790546, -0.5181274, 1.0402998, -0.10045242
1009, 863392588, -0.26727453, -0.42241672, 0.2078952, -0.8407784, -0.52358454, 0.85022575, -0.17607784
1010, 863409255, -0.26663664, -0.43620896, 0.20913756, -0.8335996, -0.17696999, 1.0136536, -0.34687614
1011, 863425922, -0.26525658, -0.45076224, 0.20963742, -0.82613844, 0.17014496, 1.4265075, -0.6766825
1012, 863442589, -0.26310936, -0.46555728, 0.21023744, -0.81843174, -0.2554491, 0.99385697, -0.7885313
1013, 863459256, -0.2605629, -0.48064387, 0.21040064, -0.81044465, -0.79545057, 0.35106108, -1.0149593
1014, 863475923, -0.25812438, -0.4954817, 0.21038595, -0.80225164, -0.90583235, -0.27262455, -0.73329926
1015, 863492590, -0.25642088, -0.5095449, 0.21077487, -0.79384303, -1.6755233, -0.9018415, -0.6733618
1016, 863509257, -0.25547925, -0.5234532, 0.21204297, -0.7847073, -1.4226286, -1.5387992, -0.7875023
1017, 863525924, -0.25511903, -0.5370266, 0.21386524, -0.7750992, -1.2741688, -1.3908552, -0.70613956
1018, 863542591, -0.2559816, -0.5504165, 0.21611917, -0.7647274, -0.9240778, -0.5279073, -0.8356056
1019, 863559258, -0.2578985, -0.5623144, 0.21944751, -0.7544096, -0.6050937, 0.44446635, -0.9056587
1020, 863575925, -0.25899118, -0.5741285, 0.22270794, -0.7441111, 0.29067224, -0.17369114, -0.64350796
1021, 863592592, -0.25940034, -0.5856331, 0.22577786, -0.73400956, 0.97197133, -0.15727288, -0.3910694
1022, 863609259, -0.26039213, -0.59663475, 0.22990866, -0.7234398, 0.5258841, -0.34097895, -0.1608162
1023, 863625926, -0.262215, -0.6066514, 0.23525688, -0.7126513, -0.077659965, -0.723223, -0.3287487
1024, 863642593, -0.26375464, -0.6157618, 0.2392964, -0.70285755, 0.4350197, -1.8379972, -0.080970764
1025, 863659260, -0.26621822, -0.6237675, 0.2419305, -0.6939106, 0.9543796, -1.6594301, 0.2850647
1026, 863675927, -0.26782656, -0.6312616, 0.24332273, -0.68598264, 1.2335559, -1.8350297, 0.5914593
1027, 863692594, -0.26903424, -0.63763005, 0.24434856, -0.6792222, 1.1587768, -1.5045284, 0.6695318
1028, 863709261, -0.27071387, -0.64277375, 0.24585116, -0.6731371, 1.7251657, -1.1240766, 0.37842083
1029, 863725928, -0.272709, -0.64684254, 0.24787466, -0.66766983, 1.4578, -0.59387594, 0.45013523
1030, 863742595, -0.274233, -0.6498993, 0.24982488, -0.6633364, 1.564181, -0.31575117, 0.54220676
1031, 863759262, -0.2747927, -0.65236306, 0.2514488, -0.66006476, 1.2521176, -0.45161474, 0.5748205
1032, 863775929, -0.27585718, -0.65416265, 0.2533108, -0.657121, 1.0046277, 0.09830368, 0.3743
1033, 863792596, -0.27700892, -0.65534854, 0.25484273, -0.6548586, 0.68478495, 0.57221806, 0.46203327
1034, 863809263, -0.27746394, -0.6562478, 0.25572872, -0.6534184, -0.10432149, 0.5892814, 0.055808067
1035, 863825930, -0.2771622, -0.6572968, 0.25620607, -0.65230423, -0.71385604, 0.3985453, -0.17848682
1036, 863842597, -0.2766969, -0.65852195, 0.25631234, -0.65122336, -1.1498313, 0.17778243, 0.075240135
1037, 863859264, -0.27618748, -0.66001683, 0.2562537, -0.6499481, -0.9187906, -0.096498586, 0.059767723
1038, 863875931, -0.27583548, -0.6615777, 0.2560738, -0.6485803, -0.4798153, 0.41108423, 0.24062347
1039, 863892598, -0.27534688, -0.66309714, 0.25564462, -0.64740443, 0.15749556, 0.6995059, 0.14465904
1040, 863909265, -0.2741573, -0.6647354, 0.2548973, -0.64652336, 0.1501203, 0.64263105, 0.08643246
1041, 863925932, -0.27265936, -0.6662461, 0.25395054, -0.645974, -0.08453992, 0.3544512, 0.12865925
1042, 863942599, -0.27119893, -0.66752774, 0.2530641, -0.64561355, -0.4113902, -0.0013661112, 0.19283104
1043, 863959266, -0.2701791, -0.66865075, 0.25243297, -0.6451258, -0.5270306, -0.10440927, 0.21921158
1044, 863975933, -0.27002013, -0.6694176, 0.25224414, -0.64447063, -0.44369864, 0.16229063, 0.2840042
1045, 863992600, -0.27017766, -0.6700128, 0.25247043, -0.6436971, -0.3634715, 0.13343388, 0.036834717
1046, 864009267, -0.27032304, -0.67060107, 0.25265062, -0.64295244, -0.39034632, -0.010859824, 0.09640598
1047, 864025934, -0.2703849, -0.67109877, 0.25269693, -0.64238864, -0.120075405, 0.08654511, 0.13533211
1048, 864042601, -0.2705098, -0.6715622, 0.2525727, -0.6419003, 0.15186459, 0.1928414, 0.12734509
1049, 864059268, -0.27057448, -0.67211014, 0.25248367, -0.64133435, 0.01916579, 0.32807308, 0.28547
1050, 864075935, -0.27007318, -0.6725653, 0.25217128, -0.64119136, -0.049967885, 0.16724457, -0.091127396
1051, 864092602, -0.2693401, -0.67302996, 0.25163585, -0.6412224, -0.21796346, -0.07014116, 0.32465553
1052, 864109269, -0.26892504, -0.673083, 0.25121638, -0.6415056, -0.21775772, 0.021253623, 0.17656612
1053, 864125936, -0.26881546, -0.67302537, 0.25099823, -0.6416972, -0.37729937, 0.09005047, 0.09025097
1054, 864142603, -0.26875505, -0.6730492, 0.25086796, -0.6417484, -0.39393046, 0.28089958, 0.082268715
1055, 864159270, -0.26865903, -0.6733377, 0.25097775, -0.64144313, -0.45261043, 0.02573137, 0.047644615
1056, 864175937, -0.26889518, -0.6735258, 0.25111663, -0.6410922, -0.34331042, -0.13628803, 0.16562176
1057, 864192604, -0.26904726, -0.67355263, 0.25102782, -0.64103496, 0.07704922, -0.032194022, 0.1765585
1058, 864209271, -0.2690096, -0.67340744, 0.25085315, -0.64127153, 0.22999327, 0.03186434, 0.10875797
1059, 864225938, -0.26886448, -0.6732712, 0.2507416, -0.6415192, 0.1507734, -0.12976067, 0.09705639
1060, 864242605, -0.26883888, -0.6730293, 0.2506919, -0.6418029, 0.14696631, 0.082739465, 0.1481781
1061, 864259272, -0.26875645, -0.6729218, 0.25064695, -0.64196783, -0.0578223, 0.064444035, 0.04484272
1062, 864275939, -0.26869604, -0.67292136, 0.25058946, -0.64201593, -0.1935341, -0.022947181, 0.018577576
1063, 864292606, -0.26856583, -0.6728649, 0.25048625, -0.64216995, -0.13157459, -0.07231292, 0.12257767
1064, 864309273, -0.2686517, -0.67287886, 0.25050956, -0.6421102, -0.008633914, 0.03490803, 0.13655186
1065, 864325940, -0.2684503, -0.6729752, 0.25035915, -0.64215225, 0.11773355, 0.021706013, 0.07003498
1066, 864342607, -0.26816103, -0.67300624, 0.2501034, -0.6423403, -7.017189E-4, 0.0643448, 0.072361946
1067, 864359274, -0.2680446, -0.6728828, 0.24977462, -0.6426459, 0.08780472, -0.005538875, 0.0739212
1068, 864375941, -0.2677405, -0.672994, 0.24941431, -0.64279616, 0.10241157, -0.079300724, 0.076888084
1069, 864392608, -0.26755995, -0.67309415, 0.2491748, -0.6428593, 0.09941242, 0.01921295, 0.12516594
1070, 864409275, -0.26739082, -0.6730476, 0.24893239, -0.6430723, 0.15403792, -0.056537826, 0.09431553
1071, 864425942, -0.26720372, -0.6730067, 0.2487034, -0.64328134, 0.18201414, -0.06531082, 0.1166811
1072, 864442609, -0.2671324, -0.6728524, 0.24867201, -0.64348465, 0.14622016, -0.1243226, 0.13445091
1073, 864459276, -0.2672505, -0.6726064, 0.24878293, -0.6436498, 0.09357727, -0.06767671, 0.11894894
1074, 864475943, -0.26748326, -0.6723342, 0.24896084, -0.64376867, 0.14290267, -0.015793202, 0.05923462
1075, 864492610, -0.26785126, -0.6719245, 0.24927834, -0.64392066, 0.03278231, -0.008648052, 0.12157726
1076, 864509277, -0.26798135, -0.67154926, 0.24931672, -0.644243, -0.07045855, -0.040789325, 0.13318443
1077, 864525944, -0.2679521, -0.67115825, 0.24920583, -0.6447054, 0.054005034, 0.04852198, 0.121795654
1078, 864542611, -0.26796916, -0.67072326, 0.2491532, -0.64517146, -0.1723866, 0.23940708, 0.16353512
1079, 864559278, -0.26788983, -0.67033625, 0.24903446, -0.645652, -0.19080038, 0.062667556, 0.026637077
1080, 864575945, -0.26761606, -0.6700452, 0.2487915, -0.6461611, -0.12634589, 0.01745301, 0.09245968
1081, 864592612, -0.26734227, -0.66967255, 0.24831627, -0.64684325, 0.09498714, 0.0025902917, 0.23560524
1082, 864609279, -0.26734218, -0.6690297, 0.24794452, -0.64765066, -0.020445121, 0.1516751, 0.21852493
1083, 864625946, -0.26725662, -0.66824555, 0.24750863, -0.64866143, -0.07905184, 0.10324477, 0.1348238
1084, 864642613, -0.2670688, -0.66722137, 0.24709818, -0.6499482, -0.14627442, 0.1210497, 0.18185711
1085, 864659280, -0.2668111, -0.66599506, 0.24648608, -0.65154237, 0.006778198, -0.038187858, 0.20700455
1086, 864675947, -0.2663963, -0.66444194, 0.2456555, -0.65360814, 0.15134431, -0.12007753, 0.29033947
1087, 864692614, -0.2663806, -0.66249317, 0.24515195, -0.65577835, -0.042372134, 0.098228134, 0.2390604
1088, 864709281, -0.26647103, -0.6601993, 0.24501835, -0.6581007, -0.33709085, 0.037259497, 0.16788006
1089, 864725948, -0.26635653, -0.6576531, 0.24475643, -0.6607884, -0.5615247, -0.025830498, 0.26869106
1090, 864742615, -0.26659805, -0.65465343, 0.24455641, -0.663737, -0.7176268, 0.2963099, 0.3569374
1091, 864759282, -0.26695374, -0.6511595, 0.24427332, -0.6671264, -0.7471277, 0.34126493, 0.35351944
1092, 864775949, -0.26733485, -0.64749026, 0.24407214, -0.67060983, -0.7760961, 0.23367217, 0.20286655
1093, 864792616, -0.26756153, -0.6438441, 0.244074, -0.67402077, -0.8509055, 0.33081415, 0.10672665
1094, 864809283, -0.26705354, -0.6403149, 0.243463, -0.6777945, -0.8840867, 0.29806292, 0.18938065
1095, 864825950, -0.26561937, -0.6369756, 0.2417681, -0.68209755, -0.44455463, 0.19939534, 0.0504961
1096, 864842617, -0.2633291, -0.63373363, 0.23921362, -0.68688905, 0.047825348, -0.04185392, 0.21153641
1097, 864859284, -0.2612761, -0.63031596, 0.23667918, -0.69167894, 0.23368928, 0.0022748031, 0.5465002
1098, 864875951, -0.26049834, -0.6258656, 0.23528448, -0.696473, -0.5118055, -0.056227144, 0.45883656
1099, 864892618, -0.2603683, -0.62096995, 0.23481235, -0.70104796, -0.79974306, -0.23928325, -0.21278954
1100, 864909285, -0.26033857, -0.616006, 0.23451145, -0.705525, -0.037845828, 0.12707584, -0.27728462
1101, 864925952, -0.26011938, -0.6109646, 0.2338721, -0.71018624, 0.26882055, -0.16586304, 0.11685276
1102, 864942619, -0.2602524, -0.6052002, 0.23348361, -0.7151834, 0.24555194, -0.6731764, 0.45824814
1103, 864959286, -0.26170444, -0.598401, 0.23416159, -0.7201358, -0.46844324, -1.7239785, 0.3996811
1104, 864975953, -0.26423165, -0.59121644, 0.23587294, -0.7245751, -0.43527946, -0.93149304, -0.08852863
1105, 864992620, -0.26672786, -0.58352983, 0.23783103, -0.72923666, 0.2825573, -0.061641745, -0.24553013
1106, 865009287, -0.26869196, -0.57563114, 0.23914926, -0.7343442, 0.51874197, -0.14580745, -0.049808502
1107, 865025954, -0.26942357, -0.56758684, 0.23939049, -0.74023545, 1.1179725, -0.43571773, 0.1760273
1108, 865042621, -0.27006933, -0.5595028, 0.23993726, -0.74595547, 0.4886343, -0.22059041, 0.022276878
1109, 865059288, -0.27103716, -0.5506183, 0.24032328, -0.75206614, 0.27990794, -0.41404814, -0.12019539
1110, 865075955, -0.27202192, -0.54136056, 0.24064143, -0.75830406, 0.5384838, -0.16322279, -0.25915718
1111, 865092622, -0.27162045, -0.53230476, 0.23939756, -0.765221, 0.527236, 0.11940364, -0.023706436
1112, 865109289, -0.2701832, -0.52335703, 0.2370549, -0.7725955, 0.85088724, -0.64226526, 0.0010890961
1113, 865125956, -0.26901677, -0.51415324, 0.2341421, -0.7800349, 0.71942765, -0.5212036, -0.32206726
1114, 865142623, -0.26850626, -0.50484425, 0.23084839, -0.78723955, 0.04945794, 0.17629997, -0.3963728
1115, 865159290, -0.26832452, -0.49453866, 0.2275965, -0.79475385, 0.2048832, 0.23811628, -0.63959026
1116, 865175957, -0.2681169, -0.4837754, 0.22558866, -0.8019882, 0.05515316, -0.5762178, -0.67311
1117, 865192624, -0.26805252, -0.47386333, 0.22532165, -0.8079801, -0.39072874, -0.9919684, -0.6833267
1118, 865209291, -0.2678842, -0.46371287, 0.22500153, -0.813992, -0.3079024, -0.38803348, -0.10306358
1119, 865225958, -0.26786652, -0.45409504, 0.2240914, -0.8196515, 0.16623749, 0.05916522, -0.33659363
1120, 865242625, -0.2683837, -0.44403487, 0.2220625, -0.82552516, -0.42724463, 0.8428983, -0.7731037
1121, 865259292, -0.26908574, -0.4341876, 0.21948318, -0.83120495, 0.6867982, 0.6728507, -0.4775629
1122, 865275959, -0.26874602, -0.42529234, 0.21630023, -0.8367298, 0.30697203, 0.7677185, 0.15188694
1123, 865292626, -0.267534, -0.41686353, 0.21245974, -0.8423251, -0.40366808, 1.0512735, 0.047361374
1124, 865309293, -0.2658667, -0.40890738, 0.20773397, -0.84791315, 0.18094777, 0.5145541, -0.23047352
1125, 865325960, -0.26613384, -0.39933312, 0.20375092, -0.8533416, -0.127278, -0.19617699, -0.55953693
1126, 865342627, -0.26709428, -0.38820395, 0.20097238, -0.8588184, -0.32220924, -0.6699459, -0.5952883
1127, 865359294, -0.26783043, -0.37683433, 0.19943662, -0.86399543, -0.76884896, 0.087926865, -0.65565205
1128, 865375961, -0.2683515, -0.36660174, 0.19810499, -0.8685306, -0.59282565, 0.7035554, 0.23148727
1129, 865392628, -0.2678274, -0.35732174, 0.1951577, -0.8732145, -0.20026605, 1.8367333, 0.51791
1130, 865409295, -0.26680204, -0.34786114, 0.19110015, -0.8782314, -0.8841509, 1.4401323, 0.22970867
1131, 865425962, -0.26618937, -0.33761424, 0.18838206, -0.88299066, -1.1594946, 0.37049574, 0.6459112
1132, 865442629, -0.26620498, -0.32725742, 0.18698834, -0.8871715, -1.6646756, -0.11536163, 0.7295008
1133, 865459296, -0.26669374, -0.316666, 0.18631148, -0.89100254, -1.3662043, -0.045019086, 0.028664589
1134, 865475963, -0.26698825, -0.30637345, 0.18517752, -0.8947415, -0.73004156, 0.11703457, 0.015526772
1135, 865492630, -0.26689446, -0.2969974, 0.18254574, -0.89846385, -0.46194464, 1.0060203, 0.2087326
1136, 865509297, -0.2666793, -0.28825966, 0.17830393, -0.9022177, -0.11891515, 1.5090079, 0.35267925
1137, 865525964, -0.26649362, -0.28004244, 0.17390019, -0.9057132, -0.6772359, 0.27948686, 0.71437836
1138, 865542631, -0.26609972, -0.27171952, 0.17050488, -0.909004, -1.3663037, -0.33460337, 0.6074047
1139, 865559298, -0.26556024, -0.2636318, 0.16760637, -0.9120771, -0.8087761, -0.3721422, -0.027136803
1140, 865575965, -0.26516023, -0.25553188, 0.16441153, -0.9150753, -0.20216031, -0.23711696, 0.10465813
1141, 865592632, -0.26491794, -0.24719359, 0.16065195, -0.9180987, 0.24232437, 0.117342964, -0.31937313
1142, 865609299, -0.26516932, -0.23898122, 0.15689255, -0.92084664, 0.49708924, 0.08888954, 0.2819252
1143, 865625966, -0.26572683, -0.23076306, 0.15330347, -0.923383, -0.23458612, 0.0675255, 0.12822437
1144, 865642633, -0.26591572, -0.2227381, 0.15044844, -0.9257658, -0.21431486, -0.14630136, 0.16223812
1145, 865659300, -0.26565638, -0.21488215, 0.1481062, -0.9280718, 0.0989978, 0.24250066, 0.21238136
1146, 865675967, -0.2652193, -0.20709212, 0.14552546, -0.9303732, 0.1989473, 0.61219764, 0.35395145
1147, 865692634, -0.26440093, -0.19946934, 0.14256626, -0.9327268, 0.6881526, 0.58280957, 0.13492393
1148, 865709301, -0.26339066, -0.19176736, 0.13924983, -0.935126, 0.8423612, 0.616051, -0.14692402
1149, 865725968, -0.26257825, -0.1840801, 0.1358135, -0.9374019, 0.929695, -0.013238672, 0.09545803
1150, 865742635, -0.26189953, -0.17667347, 0.13266955, -0.93946487, 0.4530005, -0.5029036, 0.31849575
1151, 865759302, -0.261309, -0.16970982, 0.12975527, -0.9413183, 0.32251814, -0.2551083, 0.49671364
1152, 865775969, -0.26041096, -0.16356373, 0.12656547, -0.94308776, 0.20674086, -0.014642948, 0.6730957
1153, 865792636, -0.25952595, -0.15825582, 0.123560004, -0.9446346, 0.1687097, -0.4871909, 0.60161114
1154, 865809303, -0.25911066, -0.15392119, 0.12100565, -0.9457949, 0.19498539, -0.97537243, 0.2022419
1155, 865825970, -0.25926188, -0.15033574, 0.1188925, -0.94659775, 0.50451446, -0.70881355, 0.26551056
1156, 865842637, -0.25977528, -0.14695492, 0.11702274, -0.94722074, -0.4535376, 0.3241883, -0.31049252
1157, 865859304, -0.26014814, -0.14367445, 0.1151119, -0.9478557, -0.6136336, -0.41836637, 0.24314404
1158, 865875971, -0.26039264, -0.14061245, 0.113628924, -0.94842637, 0.10608419, -0.71818745, 0.23744106
1159, 865892638, -0.26111186, -0.1377362, 0.11237799, -0.9487998, 0.2939339, -1.2680671, 0.07357025
1160, 865909305, -0.26235262, -0.1349853, 0.11190748, -0.9489084, 0.79661304, -1.6779637, -0.020723343
1161, 865925972, -0.26388207, -0.13227344, 0.11219716, -0.94883204, 1.1367013, -1.1307906, -0.10980129
1162, 865942639, -0.26530364, -0.12967573, 0.112995096, -0.9486994, 0.8945323, -0.57456845, -0.0625782
1163, 865959306, -0.2665401, -0.12734511, 0.11414854, -0.94853044, 0.5035273, 0.1413007, -0.19684505
1164, 865975973, -0.2676114, -0.12524575, 0.114341274, -0.94848514, 0.11411993, 0.6699415, -0.028470993
1165, 865992640, -0.2685358, -0.12323176, 0.11356611, -0.94858086, 0.22152989, 0.37913826, 0.13070393
1166, 866009307, -0.26962683, -0.12130071, 0.11253199, -0.94864345, 0.35957086, -0.16870688, 0.112054825
1167, 866025974, -0.2710838, -0.11930753, 0.11176101, -0.94857216, 0.43302912, -0.39958298, 0.07618141
1168, 866042641, -0.2726049, -0.1172855, 0.111418344, -0.9484288, 0.42116827, -0.42108223, 0.06792736
1169, 866059308, -0.27375722, -0.11546778, 0.11140719, -0.94832116, 0.3218747, -0.3137823, 0.05144024
1170, 866075975, -0.27444458, -0.113988124, 0.11156903, -0.94828254, 0.3932305, -0.29754415, 0.00538826
1171, 866092642, -0.27499467, -0.11267178, 0.11153682, -0.94828415, 0.2899469, -0.15597482, 0.16352367
1172, 866109309, -0.27567577, -0.111375384, 0.11131234, -0.94826597, 0.20166661, -0.21934904, 0.20785236
1173, 866125976, -0.27633464, -0.11024194, 0.111271776, -0.9482114, 0.34392357, -0.47784567, 0.13843155
1174, 866142643, -0.27691856, -0.10928415, 0.111488335, -0.9481265, 0.34109285, -0.36870855, 0.09834194
1175, 866159310, -0.27746558, -0.10846087, 0.111922935, -0.9480098, 0.28999752, -0.33890405, 0.07429123
