sep=,
DeviceTag:,46,,,,,,,,,,,,,,,,,
FirmwareVersion:,1.6.0,,,,,,,,,,,,,,,,,
AppVersion:,2020.4,,,,,,,,,,,,,,,,,
SyncStatus:,Synced,,,,,,,,,,,,,,,,,
OutputRate:,60Hz,,,,,,,,,,,,,,,,,
FilterProfile:,General,,,,,,,,,,,,,,,,,
Measurement Mode:,Sensor fusion Mode - Complete (Quaternion),,,,,,,,,,,,,,,,,
StartTime:,2021-03-24 15:25:31.472 +0800,,,,,,,,,,,,,,,,,
© Xsens Technologies B. V. 2005-2021,,,,,,,,,,,,,,,,,,,

PacketCounter,SampleTimeFine,Quat_W,Quat_X,Quat_Y,Quat_Z,FreeAcc_X,FreeAcc_Y,FreeAcc_Z
1, 846592252, 0.58377486, 0.116959095, -0.7950345, -0.115965046, -0.27177566, 0.0059379567, 0.051926613
2, 846608919, 0.58380663, 0.11703208, -0.795013, -0.11587898, -0.21641105, 0.008122908, 0.08279228
3, 846625586, 0.5837964, 0.1171075, -0.79502696, -0.11575794, -0.13609973, 0.042031948, 0.09646702
4, 846642253, 0.58375835, 0.11722715, -0.7950653, -0.11556526, -0.088560246, 0.03303809, 0.109478
5, 846658920, 0.583701, 0.11739055, -0.7951203, -0.11530998, -0.032387473, 0.09441042, 0.086369514
6, 846675587, 0.5836364, 0.117569104, -0.795187, -0.114995144, 0.00434241, 0.057598617, 0.13414574
7, 846692254, 0.58355385, 0.11769424, -0.79526544, -0.11474374, 0.03957297, 0.040223558, 0.123147964
8, 846708921, 0.5834754, 0.117755935, -0.7953429, -0.114542045, 0.04094221, -0.03240362, 0.14809418
9, 846725588, 0.58338845, 0.11773979, -0.7954257, -0.11442652, 0.030282876, -0.06516012, 0.13428593
10, 846742255, 0.58330077, 0.11774327, -0.7955068, -0.11430628, 0.024008421, -0.0521891, 0.11534405
11, 846758922, 0.5831863, 0.11767283, -0.79560924, -0.11424997, -0.019707138, 0.06686809, 0.09638882
12, 846775589, 0.5830388, 0.11758136, -0.7957347, -0.11422271, -0.067359656, 0.04104279, 0.11530304
13, 846792256, 0.58287704, 0.11754467, -0.7958717, -0.1141317, -0.05230561, 0.010723369, 0.09893036
14, 846808923, 0.58270794, 0.11755101, -0.79601556, -0.11398559, -0.05095693, 0.029917879, 0.112698555
15, 846825590, 0.58251524, 0.11750913, -0.79617834, -0.11387675, -0.051977936, -0.029230354, 0.093997
16, 846842257, 0.58231485, 0.11750126, -0.7963438, -0.11375303, -0.04193103, -0.05556968, 0.09790707
17, 846858924, 0.5821101, 0.117542446, -0.7965095, -0.11359702, -0.006573069, -0.0407097, 0.1029129
18, 846875591, 0.5819015, 0.117568366, -0.7966768, -0.11346613, 0.018021403, -0.03953352, 0.13333797
19, 846892258, 0.5816975, 0.11761024, -0.79683626, -0.113348566, 0.06407043, -0.039839227, 0.14410782
20, 846908925, 0.5815044, 0.11765592, -0.79698485, -0.11324748, 0.098038144, -0.0071096676, 0.112724304
21, 846925592, 0.58132285, 0.11768835, -0.7971265, -0.113149844, 0.108701505, 0.04291298, 0.12205219
22, 846942259, 0.58113134, 0.1176837, -0.79727393, -0.11309872, 0.05532814, 0.029569631, 0.120373726
23, 846958926, 0.58095866, 0.117715925, -0.7974057, -0.11302401, 0.01472548, -0.010393911, 0.13198185
24, 846975593, 0.5807827, 0.117729194, -0.7975435, -0.11294142, 0.011893124, -0.0041506914, 0.109015465
25, 846992260, 0.5805959, 0.11772455, -0.7976887, -0.11288134, 0.017893553, 0.014911499, 0.11640835
26, 847008927, 0.5804142, 0.11767421, -0.79782826, -0.11288161, 0.062411077, 0.026293281, 0.14677429
27, 847025594, 0.58023334, 0.11763178, -0.7979681, -0.11286785, 0.10216285, 0.012120325, 0.14463615
28, 847042261, 0.58008546, 0.11752283, -0.7980832, -0.112927824, 0.16176616, 0.019842697, 0.15706825
29, 847058928, 0.5799658, 0.11738539, -0.7981792, -0.11300712, 0.15612648, -0.009045737, 0.14932442
30, 847075595, 0.5798534, 0.11721049, -0.79826814, -0.11313687, 0.13625081, 0.01988796, 0.12558079
31, 847092262, 0.57976097, 0.11704503, -0.7983435, -0.11325022, 0.05226046, 0.039847944, 0.123472214
32, 847108929, 0.57966965, 0.11691574, -0.79841644, -0.113337025, 0.0036463903, 0.016744195, 0.12213135
33, 847125596, 0.5795848, 0.116787024, -0.7984896, -0.11338874, -0.0058757085, -0.0048691737, 0.105885506
34, 847142263, 0.57950723, 0.11665937, -0.79855853, -0.113430366, 0.013872555, 0.009889945, 0.11476421
35, 847158930, 0.5794302, 0.11653918, -0.7986282, -0.113457575, 0.037797827, -0.007864135, 0.1316204
36, 847175597, 0.5793552, 0.1164425, -0.7986929, -0.11348383, 0.05972311, 0.019891256, 0.13526058
37, 847192264, 0.5792809, 0.11630917, -0.7987623, -0.11351065, 0.03842724, 0.04634927, 0.12815857
38, 847208931, 0.57920086, 0.11613112, -0.79883504, -0.11359019, 0.014232411, 0.009434426, 0.12655449
39, 847225598, 0.57912576, 0.116010986, -0.7989042, -0.11360936, -0.031549405, 0.006805092, 0.10929489
40, 847242265, 0.57903445, 0.11591439, -0.79898775, -0.11358587, -0.049281478, 0.010203422, 0.10259342
41, 847258932, 0.57894903, 0.11591069, -0.79906356, -0.113491006, -0.039858617, -0.0076713, 0.12263775
42, 847275599, 0.57885295, 0.11586688, -0.7991531, -0.11339591, 2.1010217E-5, -0.013108532, 0.13507652
43, 847292266, 0.5787613, 0.115741566, -0.79924184, -0.11336711, 0.04101686, 0.018375335, 0.117432594
44, 847308933, 0.5786707, 0.11561011, -0.7993278, -0.113356456, 0.07330555, 0.0011760693, 0.12740993
45, 847325600, 0.57858074, 0.1154649, -0.7994109, -0.11337859, 0.080080666, 0.014616127, 0.1284275
46, 847342267, 0.5785007, 0.11531165, -0.79948634, -0.11341004, 0.037859965, 0.027989913, 0.12154961
47, 847358934, 0.57841265, 0.11514021, -0.7995643, -0.11348439, 0.024792057, -0.024188852, 0.12283325
48, 847375601, 0.57830256, 0.11489452, -0.79966116, -0.11361191, -0.007830106, -0.012638372, 0.07038784
49, 847392268, 0.57819104, 0.114760384, -0.799756, -0.11364774, -0.048420507, -0.05556616, 0.09794712
50, 847408935, 0.57806796, 0.11460133, -0.79986084, -0.11369608, -0.025930185, -0.022902424, 0.09269047
51, 847425602, 0.57795477, 0.11450496, -0.7999573, -0.11369031, 0.023252947, -0.012920334, 0.13881588
52, 847442269, 0.5778466, 0.114385605, -0.80004877, -0.11371649, 0.08160011, 0.02714889, 0.13122559
53, 847458936, 0.5777463, 0.11428901, -0.8001311, -0.11374452, 0.07591126, -0.005211652, 0.14655018
54, 847475603, 0.57764673, 0.11413208, -0.8002158, -0.1138116, 0.045246176, -0.01464781, 0.13262653
55, 847492270, 0.57756007, 0.114052944, -0.8002882, -0.113820985, 0.023161307, -0.03936946, 0.12200165
56, 847508937, 0.5774755, 0.113967136, -0.8003558, -0.11386064, -0.0017019297, -0.029226853, 0.10084057
57, 847525604, 0.5773653, 0.11374562, -0.80044836, -0.113990314, -0.011659777, -0.0031644965, 0.120983124
58, 847542271, 0.5772574, 0.113631345, -0.8005344, -0.114046276, -0.021996357, 0.004287146, 0.0850935
59, 847558938, 0.5771739, 0.11368935, -0.8005992, -0.1139561, -0.0027934648, -0.0035897857, 0.12844372
60, 847575605, 0.57708806, 0.11373443, -0.8006656, -0.11387923, 0.022877445, 0.04338867, 0.1240654
61, 847592272, 0.57698095, 0.11365935, -0.8007512, -0.11389502, 0.024916777, -0.0023723107, 0.11155033
62, 847608939, 0.57688344, 0.11359702, -0.80083054, -0.11389313, 0.0124121215, 0.0012526783, 0.12345123
63, 847625606, 0.57674557, 0.11336121, -0.8009455, -0.11401767, -0.006743386, 0.008388665, 0.106108665
64, 847642273, 0.57661337, 0.11323875, -0.8010492, -0.11408078, -0.019547548, 0.0051851654, 0.1099329
65, 847658940, 0.57645595, 0.113027945, -0.8011735, -0.114212014, -0.017229272, -0.0011917152, 0.08654785
66, 847675607, 0.5763211, 0.11311775, -0.80127126, -0.11411763, -0.03491496, 0.0048522986, 0.0939703
67, 847692274, 0.576153, 0.1129788, -0.80140406, -0.11417223, -0.010662909, -0.022082577, 0.13071632
68, 847708941, 0.5759977, 0.11295181, -0.8015247, -0.11413599, 0.014619983, 0.0038981219, 0.112792015
69, 847725608, 0.57584494, 0.11285681, -0.80164784, -0.11413605, 0.055082086, -0.0067825564, 0.12960243
70, 847742275, 0.5757178, 0.112849556, -0.8017468, -0.11408928, 0.09215305, -0.04410682, 0.14905548
71, 847758942, 0.57560915, 0.112940274, -0.8018294, -0.11396686, 0.077905886, 0.0063434094, 0.13202667
72, 847775609, 0.575505, 0.11299544, -0.801909, -0.11387801, 0.041951593, 0.0028191688, 0.13040066
73, 847792276, 0.5753985, 0.11301197, -0.8019897, -0.11383224, -0.004523008, -0.002527652, 0.13746452
74, 847808943, 0.5753134, 0.11316857, -0.80205226, -0.11366438, 0.0070960675, -0.013265898, 0.10681343
75, 847825610, 0.5752187, 0.11320228, -0.8021267, -0.11358487, 0.06320634, 0.013456933, 0.1354351
76, 847842277, 0.57513446, 0.11320999, -0.80219525, -0.113519445, 0.07799753, 0.030942574, 0.115073204
77, 847858944, 0.57505083, 0.113196366, -0.80226475, -0.11346582, 0.071468264, -0.016119251, 0.13055325
78, 847875611, 0.574976, 0.1132491, -0.80232555, -0.113363296, 0.021590905, 0.015424126, 0.13470745
79, 847892278, 0.5749017, 0.113224275, -0.80238867, -0.113317855, 0.012102333, 0.007998747, 0.1374321
80, 847908945, 0.5748177, 0.11319691, -0.8024582, -0.113277964, 0.028948504, 0.024537196, 0.12150192
81, 847925612, 0.5747291, 0.113087036, -0.8025329, -0.11330884, 0.039810788, 0.0020553693, 0.12264061
82, 847942279, 0.57465225, 0.11303438, -0.8025948, -0.11331297, 0.0643315, 0.0014126578, 0.123007774
83, 847958946, 0.5745911, 0.11294616, -0.8026441, -0.11336243, 0.07879547, 0.012600599, 0.13262749
84, 847975613, 0.574539, 0.11285501, -0.8026865, -0.11341589, 0.064391844, 0.0013621438, 0.11363602
85, 847992280, 0.5744982, 0.112798735, -0.80271983, -0.11344281, 0.01847424, -0.018926518, 0.13269329
86, 848008947, 0.574469, 0.11284964, -0.80274296, -0.113377, 0.009882849, 0.0049519297, 0.096580505
87, 848025614, 0.574419, 0.11280548, -0.8027829, -0.11339062, 0.008174316, -0.005334807, 0.12355423
88, 848042281, 0.5743881, 0.112847075, -0.80280685, -0.11333611, 0.019013353, 0.0031138149, 0.109867096
89, 848058948, 0.5743538, 0.11287435, -0.8028346, -0.113287665, 0.005317373, -0.0044604247, 0.120396614
90, 848075615, 0.5743129, 0.11286597, -0.8028692, -0.11325785, 0.017685685, 0.01403449, 0.122626305
91, 848092282, 0.5742601, 0.11277237, -0.8029135, -0.11330409, 0.02834806, -0.01111591, 0.12264347
92, 848108949, 0.574217, 0.1127645, -0.80294776, -0.113287225, 0.009210522, -0.012445257, 0.12500095
93, 848125616, 0.5741614, 0.112753406, -0.80298895, -0.1132879, 0.014571704, 0.0074777934, 0.11023331
94, 848142283, 0.57409745, 0.11270577, -0.8030386, -0.11330788, -0.0017407188, -0.004008537, 0.12426758
95, 848158950, 0.5740396, 0.1127022, -0.8030836, -0.11328537, -0.0058748145, -0.001069286, 0.11811733
96, 848175617, 0.57396173, 0.112691335, -0.80314296, -0.11326902, -0.024465282, -0.012952184, 0.096440315
97, 848192284, 0.5738839, 0.11267601, -0.8032055, -0.11323664, -0.011697327, -0.012660221, 0.12280941
98, 848208951, 0.573814, 0.11273137, -0.80326116, -0.113141604, 0.008277579, 0.032054104, 0.11664963
99, 848225618, 0.57372504, 0.112730406, -0.80332935, -0.11310851, 0.02688995, 0.020499546, 0.13245201
100, 848242285, 0.5736449, 0.11276749, -0.80338883, -0.11305606, 0.02363292, -0.015373891, 0.11611462
101, 848258952, 0.57356733, 0.112815246, -0.8034482, -0.11298101, 0.035471953, 0.014360093, 0.11450291
102, 848275619, 0.5734905, 0.11287773, -0.8035065, -0.112892926, 0.039596215, 0.011962637, 0.12280941
103, 848292286, 0.5734099, 0.11283035, -0.8035689, -0.112904556, 0.03693328, 0.014344447, 0.12190437
104, 848308953, 0.5733235, 0.11277574, -0.80363756, -0.11290931, 0.057760663, 0.01065056, 0.11660385
105, 848325620, 0.5732498, 0.112777375, -0.8036939, -0.11288124, 0.05330739, -0.042642415, 0.15097237
106, 848342287, 0.5731956, 0.11278482, -0.80373764, -0.112838045, 0.04067131, 0.0037674785, 0.11706352
107, 848358954, 0.57313275, 0.11273781, -0.8037871, -0.112851165, 0.028821995, -0.0047161235, 0.109874725
108, 848375621, 0.57306993, 0.1127245, -0.8038359, -0.11283564, -0.0033714694, -0.009268747, 0.111050606
109, 848392288, 0.57301295, 0.11274366, -0.8038823, -0.112776265, 0.0022079933, 0.018488033, 0.1050024
110, 848408955, 0.5729431, 0.112783074, -0.8039354, -0.11271306, -0.014909208, -0.0022022172, 0.12605667
111, 848425622, 0.5728771, 0.11280374, -0.8039868, -0.11266151, 0.01712288, -0.006071115, 0.12010956
112, 848442289, 0.5728061, 0.11280943, -0.8040419, -0.11262316, 0.041166615, 0.008179569, 0.108688354
113, 848458956, 0.57273734, 0.11278967, -0.8040952, -0.11261233, 0.03757968, 0.032577794, 0.119454384
114, 848475623, 0.5726746, 0.11279095, -0.80414414, -0.112580575, 0.033433963, 0.026376205, 0.11403179
115, 848492290, 0.5726116, 0.11282712, -0.8041921, -0.11252268, 0.02419349, -0.009453592, 0.115021706
116, 848508957, 0.5725603, 0.11285893, -0.80423146, -0.112470105, 0.055431213, -0.029787516, 0.14500618
117, 848525624, 0.5725167, 0.112869084, -0.80426526, -0.11244018, 0.0840145, 0.011327581, 0.14237595
118, 848542291, 0.5724812, 0.11281841, -0.80429304, -0.11247275, 0.08704131, -0.011440734, 0.12599754
119, 848558958, 0.57245886, 0.112877145, -0.8043086, -0.11241643, 0.039758038, -0.020144664, 0.12228489
120, 848575625, 0.5724427, 0.112916276, -0.8043201, -0.112377696, 0.026364693, 0.009343624, 0.10873699
121, 848592292, 0.5724225, 0.11290511, -0.80433506, -0.1123834, 0.041315924, 0.014394793, 0.10792732
122, 848608959, 0.572404, 0.11289546, -0.8043476, -0.11239799, 0.03307187, -0.014870652, 0.1337986
123, 848625626, 0.57239413, 0.112891324, -0.804354, -0.11240748, 0.011247619, -0.009344071, 0.118683815
124, 848642293, 0.5723747, 0.112891, -0.8043668, -0.11241346, 0.014623112, 0.010450013, 0.120773315
125, 848658960, 0.57235324, 0.11285754, -0.8043821, -0.11244769, -0.0065489295, 0.014534041, 0.09860802
126, 848675627, 0.5723337, 0.11284452, -0.80439705, -0.11245347, 0.0120909875, -0.0240549, 0.12091732
127, 848692294, 0.5723192, 0.11284433, -0.80440956, -0.11243815, 0.01738171, 0.0012917372, 0.12228298
128, 848708961, 0.5723056, 0.11288535, -0.8044161, -0.11241908, 0.04129223, -0.021411033, 0.11786842
129, 848725628, 0.57229936, 0.1128788, -0.80442065, -0.112424, 0.05021174, -0.017165124, 0.12197113
130, 848742295, 0.57228625, 0.112853155, -0.8044297, -0.11245311, 0.023783566, -0.0015537504, 0.1328106
131, 848758962, 0.5722925, 0.11294048, -0.8044218, -0.11239047, 0.025504617, 0.0048267622, 0.11020279
132, 848775629, 0.5722905, 0.11301071, -0.8044182, -0.11235513, 0.0049803155, 0.028721638, 0.10704136
133, 848792296, 0.57226944, 0.112927034, -0.804434, -0.11243223, -0.024481822, -0.0073061916, 0.1050272
134, 848808963, 0.57225186, 0.11292849, -0.8044437, -0.11245141, -0.0036191219, -0.016690215, 0.12980938
135, 848825630, 0.5722403, 0.112930775, -0.8044513, -0.11245401, 0.03564406, 0.020374157, 0.11527443
136, 848842297, 0.5722268, 0.11290105, -0.80445886, -0.112498164, 0.057061963, -0.021783909, 0.1327343
137, 848858964, 0.5722262, 0.11288627, -0.80445784, -0.11252363, 0.05733644, -0.0077397507, 0.10265064
138, 848875631, 0.5722333, 0.112863354, -0.8044472, -0.11258687, 0.048545226, 0.026162025, 0.12215996
139, 848892298, 0.57224107, 0.11283234, -0.80443776, -0.11264624, 0.027551102, -0.0158968, 0.13491249
140, 848908965, 0.5722458, 0.11273466, -0.8044319, -0.11276162, 0.059502725, 0.021687966, 0.14349174
141, 848925632, 0.5722561, 0.112656616, -0.80442005, -0.112871796, 0.072687306, 0.0031171676, 0.12796783
142, 848942299, 0.57228017, 0.11262231, -0.80439913, -0.11293298, 0.012476941, -0.017928645, 0.11885643
143, 848958966, 0.57230014, 0.112593286, -0.80438083, -0.112990856, -0.003170498, -0.013502501, 0.10509491
144, 848975633, 0.57230705, 0.11256382, -0.80437136, -0.1130524, -0.015950331, 0.027772937, 0.098033905
145, 848992300, 0.57231396, 0.11253563, -0.8043655, -0.11308692, -0.04529311, -0.005194329, 0.0942173
146, 849008967, 0.5723104, 0.11259758, -0.8043646, -0.11304981, -0.04927835, -0.004144321, 0.11668491
147, 849025634, 0.57229185, 0.11263354, -0.8043748, -0.11303504, -0.003897172, 0.011522819, 0.119208336
148, 849042301, 0.572263, 0.112659276, -0.80439216, -0.11303188, 0.044674877, -0.026008246, 0.12979317
149, 849058968, 0.57224846, 0.11268868, -0.8043965, -0.11304658, 0.07434488, -0.005803402, 0.115727425
150, 849075635, 0.57224506, 0.112791546, -0.8043919, -0.11299316, 0.04895828, 0.03400856, 0.115395546
151, 849092302, 0.5722546, 0.11285936, -0.804379, -0.112969264, 0.037529167, -0.0035214466, 0.15095425
152, 849108969, 0.57225573, 0.11281822, -0.804375, -0.113033205, 0.071161605, -0.03777654, 0.1236496
153, 849125636, 0.5722677, 0.112841606, -0.8043601, -0.11305571, 0.06971101, 0.014769065, 0.106684685
154, 849142303, 0.5722589, 0.11264312, -0.8043645, -0.11326633, 0.041343637, -0.008069041, 0.11376953
155, 849158970, 0.57227385, 0.112532906, -0.8043519, -0.11338979, 0.043347657, -0.03287272, 0.13024235
156, 849175637, 0.5723068, 0.11252408, -0.80432, -0.113457724, 0.06416699, 0.0039676903, 0.1155138
157, 849192304, 0.57235616, 0.11255059, -0.80427545, -0.11349806, 0.0051533147, 0.028932523, 0.12498093
158, 849208971, 0.57237893, 0.112451866, -0.8042543, -0.11363117, -0.028154138, -0.006768084, 0.097875595
159, 849225638, 0.5723759, 0.112312704, -0.80425686, -0.11376572, -0.071538895, 0.013374289, 0.1123333
160, 849242305, 0.5723609, 0.11225072, -0.80426437, -0.113849774, -0.05713349, -0.0052158423, 0.1261568
161, 849258972, 0.5723409, 0.11211148, -0.80428123, -0.11396837, -0.002559824, 0.008458293, 0.09956074
162, 849275639, 0.5723172, 0.11204865, -0.8042952, -0.11405088, 0.03626453, 0.009690013, 0.07356548
163, 849292306, 0.5722934, 0.112024665, -0.8043058, -0.11411885, 0.0113544585, -0.017419482, 0.15294266
164, 849308973, 0.5722707, 0.11200511, -0.80431587, -0.11418104, 0.026821109, 0.010208339, 0.10153198
165, 849325640, 0.5722443, 0.11202447, -0.8043295, -0.11419817, -7.644143E-5, 0.042798653, 0.10610771
166, 849342307, 0.5722038, 0.11191128, -0.8043589, -0.1143048, -0.077907674, 0.044921353, 0.13310814
167, 849358974, 0.57210404, 0.111699365, -0.8044358, -0.11447054, -0.19513263, 0.101062894, 0.10595417
168, 849375641, 0.5719449, 0.1114184, -0.8045504, -0.11473478, -0.23254019, 0.12245828, 0.08634186
169, 849392308, 0.57176864, 0.1112214, -0.8046763, -0.11492026, -0.19976023, 0.02298272, 0.10353565
170, 849408975, 0.57155454, 0.111005716, -0.8048266, -0.11514132, -0.059884038, 0.08594833, 0.11972332
171, 849425642, 0.571358, 0.110826515, -0.8049572, -0.11537596, 0.066018574, -0.02971694, 0.15798473
172, 849442309, 0.5711771, 0.11046864, -0.8050766, -0.11578079, 0.18458281, -0.044722147, 0.20206165
173, 849458976, 0.57106745, 0.11013343, -0.80514723, -0.116148785, 0.26548734, -0.047874406, 0.18999481
174, 849475643, 0.5710118, 0.109709285, -0.805176, -0.11662407, 0.34194085, 0.06538514, 0.19094086
175, 849492310, 0.571044, 0.109250546, -0.80513304, -0.11719296, 0.37491974, -0.045471195, 0.20777798
176, 849508977, 0.5711699, 0.10881132, -0.8050276, -0.11771037, 0.37198994, -0.06345806, 0.18603325
177, 849525644, 0.57138807, 0.10832117, -0.80485505, -0.118282385, 0.34643614, -0.031438664, 0.20839977
178, 849542311, 0.5717077, 0.10785905, -0.8046102, -0.11882567, 0.3533594, -0.070345365, 0.20736885
179, 849558978, 0.57213545, 0.107433364, -0.80428106, -0.119379826, 0.44060618, -0.08504053, 0.14707184
180, 849575645, 0.5726956, 0.10696479, -0.8038523, -0.12000025, 0.6051582, -0.03284411, 0.14597702
181, 849592312, 0.57335484, 0.10634963, -0.80334026, -0.120825484, 0.6301152, -0.07201196, 0.08348179
182, 849608979, 0.5741203, 0.105802774, -0.80273426, -0.12169438, 0.46809378, -0.18900982, 0.0810194
183, 849625646, 0.5750245, 0.10552419, -0.80201083, -0.12243474, 0.35143122, -0.26021612, 0.12355423
184, 849642313, 0.57604927, 0.10558319, -0.8011819, -0.12299283, 0.2423171, -0.26491958, 0.20631313
185, 849658980, 0.5771734, 0.10592987, -0.8002671, -0.12337917, 0.046234548, -0.2425144, 0.042775154
186, 849675647, 0.5784121, 0.106773145, -0.79927546, -0.123278916, -0.23973687, -0.23335971, -0.1835022
187, 849692314, 0.5796458, 0.1080585, -0.7983041, -0.122657165, -0.48178977, 0.08561597, -0.21510887
188, 849708981, 0.5807372, 0.10954665, -0.7974344, -0.12183004, -0.7922667, 0.20167384, -0.282403
189, 849725648, 0.5817031, 0.11130413, -0.79669, -0.12049212, -0.8884153, -0.10862064, -0.23114395
190, 849742315, 0.5824993, 0.113302484, -0.79613656, -0.11842269, -0.9503525, 0.039493676, -0.05185604
191, 849758982, 0.5828687, 0.11493631, -0.7959421, -0.11631945, -1.1334324, 0.5376782, -0.14177799
192, 849775649, 0.5827552, 0.11594916, -0.79615706, -0.11439567, -1.4007428, 0.69398224, -0.2556057
193, 849792316, 0.5821774, 0.11663129, -0.7967744, -0.11232703, -1.5840596, 0.80840564, -0.116316795
194, 849808983, 0.5811942, 0.116993316, -0.79776704, -0.109971225, -1.4546916, 0.99814045, -0.15338612
195, 849825650, 0.57985157, 0.11667801, -0.79908097, -0.1078336, -1.2066745, 1.0102801, -0.06107235
196, 849842317, 0.57834125, 0.115997285, -0.80055296, -0.105740204, -0.67974627, 0.81561494, -0.004377365
197, 849858984, 0.5765965, 0.114745304, -0.8022528, -0.103734426, -0.5362138, 0.8101735, -0.026456833
198, 849875651, 0.5746366, 0.11294892, -0.8041127, -0.10216909, -0.22574854, 0.44619602, -0.010212898
199, 849892318, 0.572754, 0.111214064, -0.80590755, -0.10048593, -0.07782497, 0.13926964, -0.045524597
200, 849908985, 0.5708009, 0.109822884, -0.80773747, -0.09841644, -0.29444882, 0.34516135, -0.08377361
201, 849925652, 0.56881607, 0.108482435, -0.8095917, -0.09613309, -0.31178, 0.65863407, 0.020171165
202, 849942319, 0.5667944, 0.10669228, -0.8114887, -0.094060265, -0.031037008, 0.59787303, 0.21560097
203, 849958986, 0.564641, 0.10454753, -0.81345564, -0.0924171, 0.010907432, -0.02016735, 0.024366379
204, 849975653, 0.5626633, 0.10285301, -0.8152376, -0.09065904, 0.15976438, -0.5978938, 0.07952213
205, 849992320, 0.56091714, 0.101851314, -0.81679726, -0.08854745, 0.4105857, -0.6484495, -0.077944756
206, 850008987, 0.5592786, 0.10113719, -0.81826115, -0.08618451, 0.60824805, -0.46201935, 0.118906975
207, 850025654, 0.5577015, 0.10026531, -0.81967217, -0.083987236, 0.50822467, -0.22315098, 0.42679882
208, 850042321, 0.5560925, 0.099322334, -0.8210858, -0.08194311, 0.5739254, -0.39472154, 0.38912964
209, 850058988, 0.5543734, 0.09844017, -0.82253414, -0.08010847, 0.37482497, -0.23623794, -0.023609161
210, 850075655, 0.5528932, 0.09742363, -0.82378656, -0.078697845, 0.26518962, 0.2234069, 0.14011192
211, 850092322, 0.5514653, 0.09596899, -0.82502216, -0.07755483, 0.57758164, 0.11583587, 0.3170843
212, 850108989, 0.54968834, 0.0941264, -0.82650745, -0.076604724, 0.34911472, 0.36844042, -0.11591053
213, 850125656, 0.5478045, 0.09213298, -0.8280386, -0.0759894, -0.23119912, 0.42529595, 0.042110443
214, 850142323, 0.5458773, 0.09033584, -0.8295965, -0.07501477, -0.65426713, -0.13992085, 0.022713661
215, 850158990, 0.54388577, 0.08851597, -0.83121884, -0.0736796, -0.4338127, -0.30778244, -0.33342648
216, 850175657, 0.5419951, 0.08660388, -0.8327452, -0.07264129, -0.2794721, -0.35316318, -0.17782497
217, 850192324, 0.54017955, 0.08478782, -0.8341621, -0.072046615, -0.45830706, -0.76190054, 0.23258781
218, 850208991, 0.5384073, 0.0835271, -0.83554435, -0.07075606, -0.2592777, -0.5827458, 0.0728693
219, 850225658, 0.5365737, 0.08228967, -0.8369925, -0.0689997, 0.022408962, 0.53949845, -0.18223381
220, 850242325, 0.5345938, 0.080535926, -0.8384872, -0.0682854, 0.06347902, -0.00562272, 0.16967869
221, 850258992, 0.53278023, 0.07904617, -0.83985084, -0.06743921, 0.4711036, -1.3120847, 0.37720108
222, 850275659, 0.5314326, 0.0784543, -0.8408701, -0.06604612, 0.65480536, -1.4854916, 0.61276627
223, 850292326, 0.5303815, 0.07854923, -0.8416306, -0.06467981, 0.8603389, -1.0732195, 0.6352701
224, 850308993, 0.52933383, 0.07869165, -0.8423625, -0.063553765, 1.078427, -0.2342463, 0.26303577
225, 850325660, 0.5281684, 0.078284375, -0.8431593, -0.06318461, 0.8168813, 0.59751284, 0.16611099
226, 850342327, 0.5271839, 0.07759073, -0.8438348, -0.06324587, 0.40160853, -0.07788275, 0.56113243
227, 850358994, 0.5266305, 0.077431634, -0.84421843, -0.06293194, 0.63950455, -0.7489137, 0.75419044
228, 850375661, 0.52647406, 0.07775766, -0.84432137, -0.062452976, 0.97501045, -0.76589555, 0.61803627
229, 850392328, 0.52662104, 0.07827035, -0.8442016, -0.062192217, 1.0737125, -0.377469, 0.49302864
230, 850408995, 0.52685887, 0.078434154, -0.8440535, -0.06198311, 0.95945716, 0.7504979, 0.14217758
231, 850425662, 0.52706885, 0.077852234, -0.84394085, -0.06246126, 0.67064303, 1.3914843, 0.16920185
232, 850442329, 0.5272123, 0.07669761, -0.8439258, -0.06288215, 0.50972265, 1.372135, 0.076916695
233, 850458996, 0.52738965, 0.075073026, -0.84392506, -0.063365854, 0.16987431, 0.81352454, -0.04465103
234, 850475663, 0.52797765, 0.073772565, -0.8436569, -0.06356462, -0.13953601, -0.6326553, 0.22559166
235, 850492330, 0.52882564, 0.073226176, -0.84322876, -0.06282467, -0.14400269, -0.76196873, 0.12309837
236, 850508997, 0.52954733, 0.07261009, -0.8428701, -0.06227159, -0.15116985, 0.1508855, -0.08742523
237, 850525664, 0.52985334, 0.071389295, -0.84279853, -0.062046025, -0.29504067, 0.8375984, -0.29639912
238, 850542331, 0.52989423, 0.06955669, -0.8429404, -0.061853845, -0.6601947, 1.2116598, -0.27542496
239, 850558998, 0.52994347, 0.06730948, -0.84309715, -0.061779007, -0.57717395, 0.2508553, -0.031280518
240, 850575665, 0.53022045, 0.0654878, -0.84310466, -0.0612579, -0.23674046, -0.9433201, 0.21668625
241, 850592332, 0.5307135, 0.06451343, -0.8429362, -0.06033221, -0.0051314104, -0.89462566, 0.45083523
242, 850608999, 0.53119683, 0.06397287, -0.84273696, -0.059432752, 0.02573841, -0.37874284, 0.3284607
243, 850625666, 0.5315074, 0.06326909, -0.8426564, -0.058542, 0.23154378, 0.3409763, -0.02529049
244, 850642333, 0.5316005, 0.06188875, -0.8427393, -0.057979565, 0.28864777, 0.43786776, 0.03936863
245, 850659000, 0.53166705, 0.060463145, -0.8428394, -0.057414215, 0.22639628, -0.017085107, 0.17567062
246, 850675667, 0.5319492, 0.059501655, -0.8427958, -0.056436405, 0.20944639, -0.26191244, 0.26381874
247, 850692334, 0.5325654, 0.05884969, -0.8425187, -0.055438254, 0.20861089, -0.50225556, 0.37138462
248, 850709001, 0.53341246, 0.058493227, -0.84206134, -0.054613486, -0.09426435, -0.3814839, 0.4462223
249, 850725668, 0.53410155, 0.058459274, -0.8416841, -0.053722207, 0.046636425, -0.49945965, 0.1144886
250, 850742335, 0.5344814, 0.058411375, -0.8414846, -0.053119693, -0.0746806, -0.3550891, -0.20938683
251, 850759002, 0.5350161, 0.05851357, -0.8411599, -0.05276515, -0.33188546, -0.74453807, 0.29527378
252, 850775669, 0.5357744, 0.059087235, -0.84067005, -0.052236807, 0.31719127, -1.4467376, 0.7519436
253, 850792336, 0.5364852, 0.06001942, -0.8401615, -0.052058462, 0.99842525, -1.6174464, 0.49153137
254, 850809003, 0.53719205, 0.061545506, -0.8396062, -0.051947404, 0.96959203, -1.165356, 0.4184885
255, 850825670, 0.5378359, 0.06363998, -0.8390559, -0.05165285, 0.49624974, 0.13577329, 0.4175167
256, 850842337, 0.53811157, 0.06542251, -0.83873457, -0.051772725, -0.21501097, 0.91835123, -0.10116291
257, 850859004, 0.53829724, 0.06719067, -0.8384596, -0.052031536, -1.1961904, 1.0906134, -0.14925098
258, 850875671, 0.53855544, 0.06863268, -0.8381785, -0.052004945, -1.0487452, 1.2368377, -0.23645115
259, 850892338, 0.5386662, 0.06901287, -0.8380417, -0.05255897, -0.69611055, 1.3298583, -0.24958324
260, 850909005, 0.53855145, 0.068373926, -0.83808374, -0.05388345, -0.45864636, 0.733296, -0.23144817
261, 850925672, 0.53830177, 0.06712038, -0.83824426, -0.05543195, -0.42807692, 0.23649627, -0.002175331
262, 850942339, 0.5379207, 0.06603701, -0.8385067, -0.05645535, -0.48346746, -0.029149164, -0.06491947
263, 850959006, 0.53729004, 0.0653145, -0.8389375, -0.056898955, -0.17294806, -0.08601991, -0.48015976
264, 850975673, 0.53645796, 0.06459821, -0.8394834, -0.0575157, 0.0767159, -0.2921381, -0.18536758
265, 850992340, 0.53562146, 0.0640401, -0.8400123, -0.05820689, 0.1185472, -0.3516107, 0.4280138
266, 851009007, 0.53480107, 0.063577965, -0.8405489, -0.058510605, 0.36642447, -0.016894171, 0.2239008
267, 851025674, 0.53402734, 0.06274097, -0.84106576, -0.059051197, 0.5507467, 0.22990836, 0.10226536
268, 851042341, 0.53338534, 0.061651822, -0.841492, -0.059921663, 0.483159, 0.2096281, 0.34084034
269, 851059008, 0.5329076, 0.060446285, -0.8418129, -0.060886227, 0.50102663, 0.085442916, 0.36180687
270, 851075675, 0.5326695, 0.05933795, -0.8419771, -0.06178484, 0.72361696, -0.20148972, 0.37212276
271, 851092342, 0.5327446, 0.058551636, -0.8419388, -0.062403824, 0.75609964, -0.23090646, 0.42318535
272, 851109009, 0.5330383, 0.057949804, -0.8417641, -0.062813625, 0.68632245, -0.027441049, 0.30167866
273, 851125676, 0.53348607, 0.057353918, -0.8414925, -0.06319688, 0.43770766, 0.0026141517, 0.22657013
274, 851142343, 0.53407127, 0.056808807, -0.84114766, -0.06333476, 0.17369057, 0.04458645, 0.13411903
275, 851159010, 0.53475535, 0.056250922, -0.84076065, -0.06320037, 0.07128767, 0.18367155, -0.01630783
276, 851175677, 0.5354219, 0.055487067, -0.8403931, -0.06311862, 0.00238086, 0.17469268, 0.036951065
277, 851192344, 0.53600407, 0.05462327, -0.8400663, -0.0632816, -0.06991083, -0.018496284, 0.07660198
278, 851209011, 0.5365327, 0.053875927, -0.83976066, -0.063499674, -0.17885506, -0.2625914, 0.049334526
279, 851225678, 0.5370432, 0.0533563, -0.8394691, -0.06347874, -0.2619022, -0.27076063, -0.050053596
280, 851242345, 0.53751886, 0.053010896, -0.83920366, -0.06325177, -0.2849741, -0.10742474, -0.06268692
281, 851259012, 0.5378949, 0.052620873, -0.83900696, -0.062989995, -0.31699592, 0.09008248, 0.025802612
282, 851275679, 0.53810245, 0.052060723, -0.838915, -0.06290627, -0.28971922, 0.11192051, 0.031546593
283, 851292346, 0.53818995, 0.051445358, -0.8388948, -0.06293362, -0.2165617, -0.11795832, 0.0068330765
284, 851309013, 0.5382187, 0.050921116, -0.8389132, -0.06286832, -0.16879117, -0.098037474, 0.01884079
285, 851325680, 0.5381843, 0.05035424, -0.838964, -0.06294343, -0.15182476, -0.12187019, 0.03020668
286, 851342347, 0.5380959, 0.04980389, -0.8390386, -0.06314155, -0.1796843, -0.29364523, 0.11032677
287, 851359014, 0.53798205, 0.049425833, -0.8391275, -0.0632257, -0.16692215, -0.3381277, 0.10829353
288, 851375681, 0.5378258, 0.049207054, -0.8392411, -0.063217595, -0.10739708, -0.20765373, 0.066319466
289, 851392348, 0.537585, 0.048954226, -0.8393897, -0.06348857, -0.10716776, -0.078655005, 0.080002785
290, 851409015, 0.53732246, 0.048720356, -0.8395461, -0.063823216, -0.1569727, -0.40849417, 0.16730404
291, 851425682, 0.53710663, 0.048749443, -0.839671, -0.06397544, -0.09347446, -0.50379574, 0.07169151
292, 851442349, 0.5368651, 0.048967183, -0.83979815, -0.06416652, -0.05117955, -0.5113394, 0.053567886
293, 851459016, 0.5366552, 0.04953488, -0.8399044, -0.0640969, 0.001967808, -0.22819875, 0.061676025
294, 851475683, 0.5364415, 0.05005456, -0.8400135, -0.06404967, 0.09224648, 0.04650243, 0.10530186
295, 851492350, 0.53621614, 0.050503977, -0.840126, -0.064111225, 0.15760346, 0.13166699, 0.16978264
296, 851509017, 0.53602695, 0.05094047, -0.8402144, -0.0641878, 0.22356838, 0.1530202, 0.17799664
297, 851525684, 0.535958, 0.051380742, -0.84023535, -0.06413925, 0.27029645, 0.21111003, 0.10394764
298, 851542351, 0.5359592, 0.051662974, -0.84022087, -0.06409024, 0.24535061, 0.36582655, 0.04745388
299, 851559018, 0.5359574, 0.051704846, -0.8402177, -0.064113185, 0.19298372, 0.27636704, 0.06714344
300, 851575685, 0.5359856, 0.05169243, -0.8402107, -0.06397958, 0.1354587, 0.28503793, 0.058535576
301, 851592352, 0.5360059, 0.051598877, -0.8402173, -0.063798055, 0.062695384, 0.39252388, 0.08244419
302, 851609019, 0.5360163, 0.051357746, -0.84023786, -0.06363561, -0.024897108, 0.41324446, 0.13256645
303, 851625686, 0.5360058, 0.050886497, -0.8402759, -0.0636013, 0.005176113, 0.30404034, 0.09069252
304, 851642353, 0.53601885, 0.050239883, -0.8403041, -0.06363228, 0.03972585, 0.022179637, 0.053625107
305, 851659020, 0.53603023, 0.049614333, -0.84033537, -0.06361406, 0.010110832, -0.19305925, 0.07335091
306, 851675687, 0.53607696, 0.049184732, -0.8403425, -0.0634605, -0.0455126, -0.3368724, 0.13171482
307, 851692354, 0.5361259, 0.04890004, -0.8403404, -0.0632935, -0.09435689, -0.36462665, 0.16927433
308, 851709021, 0.5361747, 0.04875389, -0.84032845, -0.06315128, -0.11906267, -0.39015517, 0.15220833
309, 851725688, 0.53621525, 0.04876471, -0.8403025, -0.063143045, -0.13184492, -0.42520764, 0.15947914
310, 851742355, 0.53632504, 0.049111985, -0.84022, -0.06304004, -0.08884953, -0.6666374, 0.13725471
311, 851759022, 0.5364556, 0.049771722, -0.8401142, -0.06282248, -0.0041658343, -0.8621234, 0.049962044
312, 851775689, 0.53660053, 0.051036794, -0.83999795, -0.06211839, -0.009798808, -1.0226469, 0.0022192001
313, 851792356, 0.53676397, 0.053063944, -0.83985305, -0.060956106, -0.05119028, -0.65012646, 0.045666695
314, 851809023, 0.53681606, 0.055385824, -0.83974755, -0.05987784, -0.041669074, -0.15765938, 0.051869392
315, 851825690, 0.53666717, 0.057440165, -0.8397763, -0.058866557, -0.13532548, 0.21606322, 0.14342499
316, 851842357, 0.53628474, 0.05900481, -0.8399431, -0.058420144, -0.1442946, 0.4614609, -0.08986664
317, 851859024, 0.53587216, 0.060271714, -0.8401378, -0.058112204, -0.21898788, 0.24733521, 0.017185211
318, 851875691, 0.5354452, 0.061472066, -0.8403605, -0.0575689, -0.28373986, 0.17378697, 0.11627865
319, 851892358, 0.5349646, 0.06267624, -0.8406279, -0.05682879, -0.13586906, 0.0662795, 0.017644882
320, 851909025, 0.53448594, 0.06394968, -0.8409119, -0.055700604, -0.024590895, 0.2639566, -0.057634354
321, 851925692, 0.53395385, 0.06495774, -0.8412422, -0.054640487, -0.04259889, 0.48096842, 0.08207512
322, 851942359, 0.53345585, 0.06564592, -0.8415544, -0.053869024, -0.052420046, 0.43096745, 0.10267544
323, 851959026, 0.5330151, 0.0661815, -0.84184474, -0.053035375, 0.032065615, 0.43336496, -0.02186966
324, 851975693, 0.53251344, 0.06631864, -0.84220165, -0.052226856, 0.17881349, 0.44087073, -0.16559505
325, 851992360, 0.5319259, 0.06623136, -0.8426179, -0.05160944, -0.038667742, 0.17898285, -0.38306332
326, 852009027, 0.53145784, 0.06645274, -0.8429511, -0.050698046, -0.617923, -0.14378364, -0.32618713
327, 852025694, 0.5311404, 0.0672755, -0.8431828, -0.049059972, -0.82365686, 0.06724362, -0.07488155
328, 852042361, 0.53047615, 0.06777396, -0.84366095, -0.04730952, -0.75063205, 0.7318269, -0.5044584
329, 852059028, 0.52940565, 0.067288525, -0.84441704, -0.046495903, -1.0908688, 0.62652045, -0.53735447
330, 852075695, 0.5283394, 0.066823184, -0.845136, -0.04623265, -1.7603142, -0.63382554, 0.35310364
331, 852092362, 0.5270273, 0.0672485, -0.84598255, -0.04509527, -1.6045172, -0.70364225, 0.07091236
332, 852109029, 0.52529764, 0.06769086, -0.8470817, -0.04396827, -1.025258, 0.0015422953, -0.4042492
333, 852125696, 0.5232863, 0.06775599, -0.848348, -0.043434404, -0.5251115, -0.053657386, 0.12333965
334, 852142363, 0.520994, 0.06778203, -0.8497656, -0.043237537, -0.09633315, -0.27714428, 0.3571272
335, 852159030, 0.5185979, 0.06837977, -0.8512079, -0.042728446, 0.30629367, -0.51966786, 0.26233768
336, 852175697, 0.51622576, 0.06948015, -0.85263, -0.041301012, 0.72803086, 0.08043337, 0.06763172
337, 852192364, 0.51391345, 0.070304185, -0.8540117, -0.04017981, 0.94101816, 0.5562664, 0.38403225
338, 852209031, 0.5116627, 0.07061171, -0.8553653, -0.03957109, 1.0866988, 0.51715755, 0.49829102
339, 852225698, 0.50938565, 0.07055245, -0.856748, -0.039137367, 1.3300105, 0.3665762, 0.22226524
340, 852242365, 0.50742286, 0.07034089, -0.8579413, -0.03887404, 1.4203538, 0.055728428, 0.6945181
341, 852259032, 0.50582486, 0.07023204, -0.8589059, -0.038592696, 1.5655417, -0.10376688, 0.8562603
342, 852275699, 0.50454795, 0.0701947, -0.85966086, -0.038568057, 1.5404079, -0.111743405, 0.72132206
343, 852292366, 0.50364697, 0.07006753, -0.8601891, -0.038793214, 1.3876791, 0.06458404, 0.71561146
344, 852309033, 0.50302845, 0.06947879, -0.86055505, -0.039751388, 1.2177353, 0.112210765, 0.8865404
345, 852325700, 0.50265235, 0.06835012, -0.8607698, -0.04176391, 1.0031753, -0.034076896, 1.0432072
346, 852342367, 0.502684, 0.06751802, -0.8607262, -0.04359763, 1.2905035, -0.5431254, 0.59582996
347, 852359034, 0.5031545, 0.06677671, -0.86042875, -0.045158762, 1.6182256, -0.40346208, 0.3715334
348, 852375701, 0.504005, 0.06591602, -0.8598794, -0.047346424, 1.2586671, -0.24709527, 0.8995447
349, 852392368, 0.5050662, 0.06520547, -0.85916704, -0.04988636, 1.0287572, -0.44787806, 0.83794117
350, 852409035, 0.5064715, 0.06469035, -0.85822684, -0.052430093, 1.0237617, -0.6583844, 0.63274384
351, 852425702, 0.5082918, 0.06428293, -0.857012, -0.055118736, 0.9202878, -0.5526185, 0.6995125
352, 852442369, 0.5103234, 0.063810386, -0.8556323, -0.058239326, 0.8457683, -0.5290901, 0.5649271
353, 852459036, 0.5125371, 0.06341518, -0.8540825, -0.061867412, 0.7228713, -0.74261516, 0.46475792
354, 852475703, 0.51508105, 0.06368265, -0.85228443, -0.065174356, 0.7900222, -1.0082036, 0.22601986
355, 852492370, 0.5179838, 0.0646867, -0.85022765, -0.067982085, 0.7309987, -0.8300907, 0.09280968
356, 852509037, 0.5210076, 0.06584496, -0.8480506, -0.070894435, 0.5149287, -0.46367136, 0.14622784
357, 852525704, 0.5240377, 0.06705263, -0.8458198, -0.074011005, 0.19461273, -0.41944712, 0.15060902
358, 852542371, 0.5271803, 0.06838696, -0.84348106, -0.077098146, -0.020331632, -0.5871358, 0.23111916
359, 852559038, 0.5306024, 0.070051424, -0.8409361, -0.07987779, -0.17779875, -0.7064089, 0.2732544
360, 852575705, 0.5341898, 0.07217326, -0.83824825, -0.08229507, 0.24801266, -0.720059, 0.062259674
361, 852592372, 0.5378403, 0.074557014, -0.83548754, -0.08443668, 0.45332316, -0.7722022, -0.15137005
362, 852609039, 0.541461, 0.07709262, -0.832694, -0.08659009, 0.11093887, -0.29873806, -0.15538883
363, 852625706, 0.54511327, 0.0798065, -0.8298192, -0.08878487, -0.11282487, -0.28203198, -0.068948746
364, 852642373, 0.54883796, 0.08293258, -0.8269012, -0.09018677, -0.07268462, 0.30974784, -0.2674446
365, 852659040, 0.5523388, 0.08541149, -0.8241151, -0.09198488, -0.19649471, 0.8316298, -0.2632141
366, 852675707, 0.55560726, 0.08710182, -0.8214318, -0.09467874, -0.24479362, 0.35238728, -0.044992447
367, 852692374, 0.55887395, 0.08884973, -0.8187476, -0.09704709, -0.22769712, -0.0783236, -0.1280632
368, 852709041, 0.56210315, 0.09066105, -0.8160768, -0.09919517, -0.01457528, 0.24639721, -0.28479767
369, 852725708, 0.5651402, 0.092158854, -0.8135009, -0.10168492, -0.3554905, 0.3410697, -0.12358761
370, 852742375, 0.5679746, 0.0935076, -0.8110567, -0.104155585, -0.6457066, 0.21595944, -0.2558775
371, 852759042, 0.5706003, 0.095173754, -0.8087895, -0.10591087, -1.0532838, 0.49764293, -0.2751093
372, 852775709, 0.5728929, 0.09672279, -0.8068033, -0.10727209, -1.2456015, 1.0461841, -0.43652058
373, 852792376, 0.5748787, 0.097675845, -0.8050527, -0.10892441, -0.9989809, 1.0432757, -0.24988937
374, 852809043, 0.5765406, 0.0981828, -0.80359906, -0.11040855, -0.96744496, 1.1037606, -0.3131895
375, 852825710, 0.5777057, 0.09790037, -0.80253124, -0.11232005, -1.1337672, 0.91115, -0.22926807
376, 852842377, 0.57869875, 0.09769365, -0.801598, -0.11403679, -1.0852997, 0.08577388, -0.1641674
377, 852859044, 0.5796005, 0.09793929, -0.8007784, -0.11500309, -0.92425334, -0.1297501, -0.16303062
378, 852875711, 0.5804644, 0.09867927, -0.7999761, -0.11559365, -0.33356985, -0.24207102, 0.21181679
379, 852892378, 0.58134717, 0.099583216, -0.7991662, -0.11598431, 0.022408068, -0.071437985, 0.058709145
380, 852909045, 0.58220685, 0.10027562, -0.79836136, -0.11661565, 0.30220696, 0.060896832, 0.2142849
381, 852925712, 0.5830848, 0.1007409, -0.79754543, -0.11740886, 0.30095705, 0.20506917, 0.1682024
382, 852942379, 0.58392704, 0.100958146, -0.79677916, -0.11823658, 0.043269426, 0.367985, 2.7561188E-4
383, 852959046, 0.5847576, 0.10102582, -0.79603004, -0.11911506, -0.15879925, 0.09893516, 0.20626926
384, 852975713, 0.58566886, 0.10139434, -0.7952227, -0.11971773, -0.12123477, -0.16587953, 0.15398788
385, 852992380, 0.5865779, 0.10205784, -0.7944356, -0.11992877, -0.17920732, 0.015539068, 0.056624413
386, 853009047, 0.5874463, 0.10262388, -0.79368407, -0.120171554, -0.41544563, 0.23371318, 0.017749786
387, 853025714, 0.5881566, 0.10311497, -0.7930654, -0.12036015, -0.7171717, 0.14247118, -0.09198761
388, 853042381, 0.58873564, 0.103835724, -0.7925639, -0.12021323, -0.8168205, 0.17113963, -0.124988556
389, 853059048, 0.58912134, 0.10455389, -0.7922432, -0.119814806, -0.8485482, 0.3449381, -0.1578083
390, 853075715, 0.5892345, 0.10500432, -0.7921494, -0.119483836, -0.9413633, 0.3578022, -0.12791634
391, 853092382, 0.58909154, 0.10509207, -0.7922602, -0.11937602, -0.8862333, 0.25135523, -0.057318687
392, 853109049, 0.58882445, 0.10514145, -0.79246485, -0.1192923, -0.60070896, 0.03860415, 0.052381516
393, 853125716, 0.58852005, 0.10529878, -0.7927017, -0.11908185, -0.020603424, 0.06957897, 0.11738396
394, 853142383, 0.58818007, 0.10517873, -0.79297143, -0.119072564, 0.38331085, 0.23868987, 0.09790802
395, 853159050, 0.5878541, 0.104815885, -0.7932245, -0.119315594, 0.39809534, 0.06313699, 0.17106819
396, 853175717, 0.5875769, 0.10454245, -0.7934512, -0.11941405, 0.16423419, -0.053280402, 0.047122
397, 853192384, 0.5873728, 0.10446638, -0.7936233, -0.11934066, -0.021677181, -0.15007308, 0.122366905
398, 853209051, 0.5872365, 0.104653694, -0.7937521, -0.118991226, 0.06466722, -0.17451054, 0.053362846
399, 853225718, 0.58712274, 0.104835875, -0.7938624, -0.118654065, 0.1804733, -0.04779629, 0.07793617
400, 853242385, 0.5870844, 0.10505379, -0.79391474, -0.118300654, 0.23476191, -0.08631031, 0.20766163
401, 853259052, 0.5871075, 0.1053674, -0.79392046, -0.117868155, 0.26656958, -0.05653978, 0.17466354
402, 853275719, 0.58718306, 0.10565213, -0.7938828, -0.117490575, 0.2586036, -0.069868304, 0.1692648
403, 853292386, 0.5872962, 0.10582473, -0.7938123, -0.11724578, 0.22397697, -0.052490845, 0.13805294
404, 853309053, 0.5874291, 0.10586029, -0.79371667, -0.117194846, 0.17561929, -0.010607108, 0.15665436
405, 853325720, 0.58755666, 0.10580403, -0.7936161, -0.11728784, 0.0866819, -0.007849999, 0.10755825
406, 853342387, 0.5876845, 0.10570513, -0.79350936, -0.11745867, 0.014236881, -0.06104759, 0.122564316
407, 853359054, 0.5878201, 0.10565817, -0.79339635, -0.1175857, -0.02399814, -0.07602033, 0.12541962
408, 853375721, 0.5879627, 0.10567702, -0.7932769, -0.1176605, -0.01202902, -0.12924877, 0.13842678
409, 853392388, 0.5881278, 0.10579346, -0.79314077, -0.117648885, 0.018120196, -0.080292724, 0.10804844
410, 853409055, 0.5882874, 0.10597067, -0.7930135, -0.11754989, -0.028166208, 0.06686686, 0.10786438
411, 853425722, 0.58840483, 0.1059767, -0.7929215, -0.117578186, -0.067517005, 0.12051729, 0.0796957
412, 853442389, 0.58852005, 0.1060572, -0.79282504, -0.11757841, -0.05413618, -0.09984687, 0.14694977
413, 853459056, 0.58868074, 0.10625829, -0.7926953, -0.11746804, 0.06144103, -0.079798035, 0.17890835
414, 853475723, 0.58884597, 0.10635217, -0.7925636, -0.11744232, 0.14873894, -0.005874591, 0.16315174
415, 853492390, 0.5890437, 0.10641717, -0.7924011, -0.11749006, 0.092410535, 0.045898218, 0.17952156
416, 853509057, 0.58921164, 0.10647214, -0.79225904, -0.11755462, -0.0055762012, 0.03598536, 0.09205532
417, 853525724, 0.5893857, 0.106552854, -0.7921149, -0.11758074, -0.07352101, 0.0027492093, 0.12252998
418, 853542391, 0.58951676, 0.106619015, -0.7920082, -0.11758282, -0.1509754, 0.055683505, 0.06525898
419, 853559058, 0.58961856, 0.10657788, -0.79192704, -0.11765559, -0.24217942, 0.026768694, 0.12502289
420, 853575725, 0.5897083, 0.106603555, -0.79185534, -0.117665485, -0.1964509, -0.098137334, 0.112342834
421, 853592392, 0.5898369, 0.10678817, -0.7917537, -0.11753712, -0.019335477, -0.09600893, 0.15023041
422, 853609059, 0.58997387, 0.10698224, -0.7916482, -0.11738367, 0.19943525, -0.0067778067, 0.11023235
423, 853625726, 0.59009403, 0.10699657, -0.79155844, -0.11737205, 0.13503848, 0.20109835, 0.107839584
424, 853642393, 0.5901797, 0.10678847, -0.7914815, -0.117649406, -0.10059558, 0.036952503, 0.19331837
425, 853659060, 0.5903244, 0.10694712, -0.7913628, -0.11757746, -0.12199382, -0.19226177, 0.10484028
426, 853675727, 0.5904768, 0.107181735, -0.7912433, -0.11740256, 0.0070276945, -0.068735205, 0.028570175
427, 853692394, 0.5906145, 0.107217476, -0.79112726, -0.11745977, -0.06582323, -0.057987865, 0.10328865
428, 853709061, 0.59073776, 0.107310206, -0.7910258, -0.11743865, -0.21318486, -0.10815004, -0.0018587112
429, 853725728, 0.5908322, 0.107521735, -0.7909507, -0.11727655, -0.2645808, 0.033887636, 0.045887947
430, 853742395, 0.5908306, 0.10752985, -0.7909587, -0.11722173, -0.16323642, 0.17157614, 0.01312542
431, 853759062, 0.5907701, 0.10728709, -0.7909942, -0.11750909, -0.0118077425, -0.17308067, 0.14653397
432, 853775729, 0.59080416, 0.10749892, -0.79093677, -0.11753208, 0.27732235, -0.36467502, 0.13336277
433, 853792396, 0.59093785, 0.10794725, -0.7907825, -0.117485754, 0.3465698, -0.079768926, 0.1948328
434, 853809063, 0.5910707, 0.10827269, -0.79065263, -0.117392905, -0.22479056, 0.08142365, 0.010155678
435, 853825730, 0.5912154, 0.108684406, -0.79053265, -0.11709138, -0.7687344, -0.061540827, -0.053510666
436, 853842397, 0.5913756, 0.10939011, -0.7904688, -0.11605099, -0.5568517, 0.18120827, 0.0316391
437, 853859064, 0.5913353, 0.109785646, -0.7906147, -0.11488365, -0.031183634, 0.86302334, -0.065006256
438, 853875731, 0.5910191, 0.10955429, -0.7909732, -0.11426305, -0.12179594, 0.66721064, -0.0614233
439, 853892398, 0.5905875, 0.109696865, -0.7914523, -0.11303373, -0.5664918, 0.12762673, -0.17250538
440, 853909065, 0.590047, 0.1101451, -0.79205567, -0.111178145, -0.8326837, 0.19653651, -0.09780693
441, 853925732, 0.58932376, 0.110314555, -0.7928313, -0.109302744, -0.9883868, 0.2360489, 0.08705616
442, 853942399, 0.58847505, 0.11006641, -0.7937442, -0.107484, -0.43903086, 0.5538467, 0.18464851
443, 853959066, 0.58740056, 0.10898439, -0.7948831, -0.10603846, -0.1911228, 1.545909, -0.1897564
444, 853975733, 0.585963, 0.10657159, -0.7963098, -0.105738536, 0.18952066, 1.1623735, -0.019787788
445, 853992400, 0.58473355, 0.10467579, -0.7975727, -0.10491624, 0.07790723, 0.42863515, -0.0055627823
446, 854009067, 0.5835997, 0.1033409, -0.7988245, -0.10301246, -0.009311102, 0.52744275, 0.0762167
447, 854025734, 0.5824384, 0.10181659, -0.8000757, -0.101380885, 0.105731465, 0.3792503, 0.17485523
448, 854042401, 0.58127576, 0.1001372, -0.8013579, -0.09958343, -0.1679606, 0.5334655, -0.011364937
449, 854059068, 0.5798201, 0.097851336, -0.8028576, -0.09825324, -0.20966499, 0.6048676, -0.19992733
450, 854075735, 0.5780427, 0.09518322, -0.8046001, -0.09708562, -0.4471703, 0.24818437, -0.06529236
451, 854092402, 0.57606983, 0.09263169, -0.8064984, -0.09551678, -0.8764475, 0.03872535, 0.020711899
452, 854109069, 0.5742783, 0.09052077, -0.8082123, -0.09382691, -0.4215012, -0.94715226, -0.007943153
453, 854125736, 0.5729225, 0.08942559, -0.809584, -0.09130695, 0.037728094, -1.2459245, 0.060318947
454, 854142403, 0.57145923, 0.08874893, -0.81098324, -0.08868057, 0.06659524, -0.8006901, 0.19344234
455, 854159070, 0.5696199, 0.08805771, -0.81257445, -0.0866141, -0.17784435, -0.1592151, 0.01020813
456, 854175737, 0.5673549, 0.08688707, -0.81447434, -0.08479819, -0.47507396, 0.26736775, -0.15280628
457, 854192404, 0.564748, 0.08500399, -0.8165776, -0.08387645, -0.7526361, 0.057820566, -0.22907734
458, 854209071, 0.5623443, 0.08352996, -0.8185148, -0.08261578, -0.8117776, -0.50315505, 0.058573723
459, 854225738, 0.5602043, 0.08233129, -0.82028925, -0.08073494, -0.36334446, -0.24770927, 0.06060791
460, 854242405, 0.5579947, 0.08051566, -0.82207286, -0.07972179, 0.3366789, -0.5211459, 0.17633247
461, 854259072, 0.5556352, 0.07878015, -0.82392806, -0.07877787, 0.6500159, -0.8358214, 0.056280136
462, 854275739, 0.55317664, 0.07745035, -0.82584196, -0.07734582, 0.7273393, -0.3214387, -0.24363327
463, 854292406, 0.55091596, 0.076253645, -0.82757735, -0.07611192, 0.4497814, -0.3495733, 0.08071327
464, 854309073, 0.54937303, 0.075544834, -0.82875985, -0.075097546, 0.37437525, -1.2277606, 0.92505264
465, 854325740, 0.54816854, 0.075812235, -0.82977945, -0.07232037, 0.89846575, -0.8565458, 0.5357256
466, 854342407, 0.54699916, 0.07572883, -0.8307725, -0.06981854, 1.0727504, 1.0696863, 0.01582241
467, 854359074, 0.5457496, 0.07428875, -0.8317875, -0.06905222, 0.8266394, 1.1318018, 0.27435303
468, 854375741, 0.54453677, 0.07235185, -0.8327978, -0.06850484, 0.473881, 0.49462435, 0.263422
469, 854392408, 0.54348594, 0.070542805, -0.83369595, -0.0678087, 0.26169568, -0.30856133, 0.14213276
470, 854409075, 0.5429975, 0.06938018, -0.8341978, -0.0667399, 0.38117006, -0.721312, 0.54917336
471, 854425742, 0.54274136, 0.06861707, -0.834528, -0.06547188, 0.8137253, -0.49154454, 0.64145374
472, 854442409, 0.5422433, 0.06728617, -0.83502966, -0.06457855, 0.9791441, 0.29957655, 0.120752335
473, 854459076, 0.5416617, 0.065174125, -0.8356, -0.064248025, 0.69399524, 0.68413883, 0.048394203
474, 854475743, 0.54134154, 0.06305247, -0.83597076, -0.064242266, -0.07116116, 0.11574727, 0.2343092
475, 854492410, 0.54165804, 0.06196559, -0.83584404, -0.064278424, -0.23287681, -0.8482016, 0.6276045
476, 854509077, 0.5425126, 0.06175068, -0.8353445, -0.06376986, 0.3996063, -0.80268496, 0.7617569
477, 854525744, 0.54320836, 0.06151009, -0.8349381, -0.06340081, 0.9003772, -0.6967391, 0.17692184
478, 854542411, 0.54378027, 0.061190158, -0.83460957, -0.06313415, 0.827862, -0.7694656, 0.17064762
479, 854559078, 0.54450756, 0.06118684, -0.83418113, -0.06252806, 0.3082838, -0.2967118, 0.40636444
480, 854575745, 0.5453683, 0.06136925, -0.8336555, -0.0618545, 0.29918864, 0.32161275, 0.2817812
481, 854592412, 0.54641294, 0.061443534, -0.8329685, -0.061817594, 0.18353185, 0.30385754, 0.26052952
482, 854609079, 0.54766244, 0.06163104, -0.8321245, -0.061941206, 0.056693614, 0.048269577, 0.38404465
483, 854625746, 0.5491108, 0.06221948, -0.8311573, -0.06151239, 0.24002028, 0.17514333, 0.20145416
484, 854642413, 0.55036813, 0.062401414, -0.8303627, -0.060819104, 0.60126776, 0.4468001, -0.09066582
485, 854659080, 0.5515281, 0.06182342, -0.8296446, -0.060703155, 0.4634443, 0.6008105, 0.012375832
486, 854675747, 0.5527638, 0.06114394, -0.82883763, -0.061171878, 0.11581458, -0.15637878, 0.48624802
487, 854692414, 0.5542897, 0.061067298, -0.82778925, -0.061637245, 0.4709722, -0.8009122, 0.48383045
488, 854709081, 0.556039, 0.061609317, -0.82658076, -0.061559297, 1.0341899, -1.161975, 0.6276846
489, 854725748, 0.5578939, 0.06230556, -0.82525575, -0.061850928, 0.8458083, -0.50552857, 0.63311195
490, 854742415, 0.5600772, 0.062381744, -0.8236324, -0.06365562, 0.497854, 0.1997077, 0.65254784
491, 854759082, 0.56204677, 0.06152176, -0.82215786, -0.06614378, 0.29687974, 0.14961936, 0.2866783
492, 854775749, 0.5635111, 0.060599282, -0.82102454, -0.06856947, 0.1243036, -0.3003894, -0.3472252
493, 854792416, 0.564539, 0.060507953, -0.82024264, -0.06954536, -0.02389577, -0.49714574, -1.0399017
494, 854809083, 0.5656785, 0.060585633, -0.81937027, -0.07049612, -0.5642522, 0.1529386, 0.07522011
495, 854825750, 0.56695235, 0.060669325, -0.8183727, -0.07176589, -0.7435842, -0.061066087, 0.5969887
496, 854842417, 0.56812894, 0.060250044, -0.8174577, -0.07322999, -0.62701327, 0.6145129, -0.024834633
497, 854859084, 0.56934106, 0.05888256, -0.81650996, -0.075468786, -0.5889714, 0.78512055, 0.009480476
498, 854875751, 0.5705961, 0.057630554, -0.81555307, -0.07727996, -0.46016356, 0.5499036, 0.017124176
499, 854892418, 0.5713184, 0.056563355, -0.8150696, -0.0778311, -0.031261414, 0.31505093, -0.9839754
500, 854909085, 0.5716914, 0.05492821, -0.8148398, -0.07866489, -0.17845722, 0.32153594, -0.36956882
501, 854925752, 0.5720496, 0.053696405, -0.81459147, -0.079481095, -0.5742531, -0.05768017, 0.48122692
502, 854942419, 0.5723537, 0.052837163, -0.81439024, -0.07992622, -0.29387125, -0.0578703, 0.22767353
503, 854959086, 0.5725648, 0.051684983, -0.8142615, -0.080478124, -0.03680901, 0.24944544, -0.14740372
504, 854975753, 0.5726291, 0.049861737, -0.81420606, -0.08172269, -0.09253347, 0.37487814, 0.08284664
505, 854992420, 0.5726359, 0.047816068, -0.8141653, -0.08328693, -0.2302626, 0.093139805, 0.28530407
506, 855009087, 0.5727203, 0.046148043, -0.8141115, -0.08416965, -0.16480146, -0.15656054, -0.020053864
507, 855025754, 0.57272094, 0.044692226, -0.81414634, -0.084613025, -0.13201524, -0.17333362, -0.15559006
508, 855042421, 0.5726384, 0.043489117, -0.81422275, -0.085062176, -0.18719527, -0.25438154, 0.051947594
509, 855059088, 0.5725347, 0.042660076, -0.8143105, -0.08534022, -0.21815088, -0.29879674, 0.13110542
510, 855075755, 0.5724195, 0.04197369, -0.8144072, -0.08552836, -0.20144776, -0.29171145, 0.13372707
511, 855092422, 0.5722264, 0.041230038, -0.8145554, -0.08577203, -0.21831003, -0.29932144, 0.11165619
512, 855109089, 0.5719918, 0.04048504, -0.81472933, -0.086041145, -0.20033914, -0.35700667, 0.11749077
513, 855125756, 0.57174635, 0.039899897, -0.8149171, -0.08616497, -0.1795399, -0.22697201, 0.07209301
514, 855142423, 0.57152, 0.039287757, -0.8150977, -0.08624088, -0.11358482, -0.14128028, 0.114920616
515, 855159090, 0.57132024, 0.038684018, -0.8152588, -0.086314395, -0.029484935, -0.23298118, 0.16099453
516, 855175757, 0.5711184, 0.038274292, -0.8154339, -0.086177826, 0.005589165, -0.30553684, 0.07617855
517, 855192424, 0.5709075, 0.038142323, -0.8156199, -0.085873626, -0.0034438877, -0.20982236, 0.050149918
518, 855209091, 0.57066894, 0.038166188, -0.81580335, -0.08570504, -0.017657971, -0.13436805, 0.11878586
519, 855225758, 0.57047135, 0.038333338, -0.8159534, -0.0855164, -0.06157916, -0.23364651, 0.2124033
520, 855242425, 0.57030463, 0.03856595, -0.8160831, -0.085287005, -0.046354353, -0.20214878, 0.16695976
521, 855259092, 0.57008785, 0.03866573, -0.81622845, -0.085299835, 0.011141674, -0.2770338, 0.11539078
522, 855275759, 0.5698262, 0.038766515, -0.81639016, -0.08545418, -0.018016485, -0.43474638, 0.10625553
523, 855292426, 0.5695768, 0.039006554, -0.816551, -0.08547113, -0.03580007, -0.3775426, 0.20572281
524, 855309093, 0.5693575, 0.03956781, -0.8166708, -0.08552921, -0.02805311, -0.37925252, 0.16719341
525, 855325760, 0.5692033, 0.040610805, -0.8167349, -0.08545581, 0.050545122, -0.51214826, -0.0936594
526, 855342427, 0.5689944, 0.041841272, -0.81683016, -0.0853429, -0.009413471, -0.42315152, -0.020255089
527, 855359094, 0.5686976, 0.04314608, -0.81698215, -0.08521676, -0.15918817, -0.2979598, 0.27352238
528, 855375761, 0.5683887, 0.044609275, -0.8171345, -0.08506276, -0.16950776, -0.17623696, 0.21705437
529, 855392428, 0.5680944, 0.04610159, -0.8172766, -0.084868036, -0.08214012, -0.11997448, 0.0614357
530, 855409095, 0.5677695, 0.047543727, -0.81745726, -0.084504396, 0.014041978, -0.0593435, -0.0011177063
531, 855425762, 0.56735533, 0.0490905, -0.81770456, -0.08400819, 0.045215778, 0.043345142, -0.0526886
532, 855442429, 0.56682557, 0.05074696, -0.8180167, -0.08356145, -0.068420894, 0.14610587, 0.0073652267
533, 855459096, 0.5663053, 0.052548874, -0.81833005, -0.08290561, -0.18288456, 0.19743592, 0.16621494
534, 855475763, 0.56582785, 0.054245554, -0.81862944, -0.082110174, -0.1525914, 0.35136393, 0.20691967
535, 855492430, 0.5653177, 0.055561215, -0.8189607, -0.08143809, -0.005611069, 0.2025282, 0.13453197
536, 855509097, 0.5647951, 0.056708977, -0.8193216, -0.08064266, 0.09705916, 0.16683485, 0.0051574707
537, 855525764, 0.5642884, 0.05767875, -0.8196985, -0.079663105, 0.16988727, 0.26977196, 0.035072327
538, 855542431, 0.5637578, 0.058438342, -0.82010305, -0.07869587, 0.09164925, 0.25613022, 0.11085701
539, 855559098, 0.5632147, 0.05917638, -0.82052875, -0.07759014, 0.044007465, 0.06960811, 0.12515163
540, 855575765, 0.5626582, 0.060189206, -0.82096887, -0.07618055, 0.0910261, 0.24786185, -0.08487892
541, 855592432, 0.5620903, 0.06126727, -0.82143515, -0.0744682, 0.025267245, 0.4255115, -0.0452137
542, 855609099, 0.5614969, 0.061879266, -0.8219366, -0.07288808, 0.028832665, 0.6304458, -0.077747345
543, 855625766, 0.56092834, 0.061890647, -0.8224188, -0.0718092, -0.08650443, 0.09499937, -0.062184334
544, 855642433, 0.5605428, 0.061824065, -0.8227767, -0.07076988, -0.06407267, -0.36600187, 0.14944553
545, 855659100, 0.5599084, 0.061681636, -0.8233244, -0.06953488, -0.3531272, -0.37894934, 0.06534195
546, 855675767, 0.55871385, 0.062014055, -0.82426494, -0.0676795, -1.009064, 0.059457127, -0.6695156
547, 855692434, 0.5571729, 0.06249296, -0.8254456, -0.065519705, -1.8357227, 0.82285714, -0.66416264
548, 855709101, 0.5554498, 0.06243712, -0.82673216, -0.06396306, -2.2833145, 1.1918335, -0.28808117
549, 855725768, 0.5538952, 0.06152119, -0.8279136, -0.06304408, -1.8940941, 0.98880297, -0.38013268
550, 855742435, 0.5525668, 0.059843104, -0.82895476, -0.06263293, -1.1204951, -0.09406252, 0.010744095
551, 855759102, 0.55090976, 0.05870441, -0.8301881, -0.061969344, -0.40296614, -0.9964681, 0.602087
552, 855775769, 0.5486102, 0.05844883, -0.8318441, -0.060382433, 0.29347965, -0.22511286, -0.29012108
553, 855792436, 0.5461655, 0.05809898, -0.83356804, -0.05909439, 0.5616809, 0.27136046, -0.22683334
554, 855809103, 0.54389817, 0.057843525, -0.8351434, -0.05800622, 0.6006151, 0.24900945, 0.71440506
555, 855825770, 0.541621, 0.057505064, -0.8367137, -0.05701194, 0.91097665, 0.22453485, 0.37119293
556, 855842437, 0.53951335, 0.05717893, -0.8381682, -0.05594906, 1.1705213, -0.27745655, 0.47342873
557, 855859104, 0.5374828, 0.057033304, -0.8395499, -0.054917242, 1.3052012, -0.30227745, 0.55640316
558, 855875771, 0.53568155, 0.056771122, -0.8407444, -0.05451188, 1.5606358, -0.5006416, 0.8984966
559, 855892438, 0.53423023, 0.056497365, -0.84169024, -0.0544403, 1.8587706, -0.68109137, 0.9489603
560, 855909105, 0.532998, 0.056315027, -0.84246206, -0.05476696, 1.9016458, -0.8942673, 0.71701527
561, 855925772, 0.5323739, 0.056579176, -0.84279203, -0.055483274, 1.613873, -1.0077305, 1.0850477
562, 855942439, 0.5323756, 0.057207394, -0.8427094, -0.05607549, 1.8257937, -0.8457053, 1.207509
563, 855959106, 0.53271323, 0.057615463, -0.842386, -0.05729734, 2.2025244, -0.59768933, 0.9513693
564, 855975773, 0.5334846, 0.05775565, -0.84173816, -0.059459936, 2.0233498, -0.5216576, 0.9594784
565, 855992440, 0.53471106, 0.05793103, -0.84076077, -0.062045857, 1.5677869, -0.57457894, 0.98441887
566, 856009107, 0.53620833, 0.05841061, -0.83957565, -0.06466597, 1.4383396, -0.67061704, 0.52870464
567, 856025774, 0.5381475, 0.058897622, -0.83807033, -0.06757866, 1.1588767, -0.46822432, 0.54708195
568, 856042441, 0.5406106, 0.05951909, -0.8361599, -0.07095389, 0.55948555, -0.31649864, 0.90812683
569, 856059108, 0.54306704, 0.060751263, -0.8342324, -0.07378361, 1.0176442, -0.9111696, -0.024787903
570, 856075775, 0.5455346, 0.061818082, -0.8323003, -0.076464735, 0.9805556, -0.32647133, -0.53879356
571, 856092442, 0.54835033, 0.062793784, -0.830024, -0.08018204, 0.042538986, -0.4784131, 0.6005745
572, 856109109, 0.5513141, 0.064695396, -0.8276324, -0.08301757, -0.26707205, -0.6668195, 0.2301035
573, 856125776, 0.55420893, 0.0668086, -0.8252893, -0.08536347, -0.01883499, -0.45564315, -0.4736042
574, 856142443, 0.55734056, 0.068939194, -0.8227368, -0.087882996, -0.25483605, -0.26840004, -0.080472946
575, 856159110, 0.56068003, 0.07139832, -0.81998503, -0.09036042, -0.5160141, -0.030506529, 0.28738403
576, 856175777, 0.56374013, 0.07387519, -0.81739926, -0.0927273, -0.4463044, -0.17702249, -0.30151844
577, 856192444, 0.566575, 0.076225564, -0.81499237, -0.09471076, -0.14338277, -0.12937169, -0.4955597
578, 856209111, 0.5696223, 0.07865529, -0.81236994, -0.09694947, -0.23383702, -0.040029716, 0.09389019
579, 856225778, 0.57289, 0.081527025, -0.8095452, -0.098930724, -0.050527785, -0.017067058, 0.13188648
580, 856242445, 0.5762799, 0.08421832, -0.806568, -0.10127773, -0.45865574, 0.13923365, 0.047818184
581, 856259112, 0.5795028, 0.087025255, -0.8037035, -0.10326794, -0.48477277, -0.26832396, -0.20519066
582, 856275779, 0.58226323, 0.09019441, -0.8012237, -0.10428438, -0.019923497, 0.32548112, -0.70522213
583, 856292446, 0.58468354, 0.09260004, -0.7989767, -0.105862625, -0.07996489, 0.88881516, -0.03809738
584, 856309113, 0.58694756, 0.094112076, -0.7968403, -0.10807926, -0.25076544, 0.6569086, 0.103936195
585, 856325780, 0.5889799, 0.09516792, -0.7949025, -0.11034432, -0.18849696, 0.88450897, -6.0272217E-4
586, 856342447, 0.5910317, 0.09574291, -0.7929543, -0.11286423, -0.6079758, 0.6662975, -0.14881802
587, 856359114, 0.59335047, 0.09636948, -0.79078937, -0.115328, -0.87905145, -0.17712429, -0.16839123
588, 856375781, 0.59563094, 0.09777692, -0.7886862, -0.11678069, -0.8639129, -0.5010072, -0.23890305
589, 856392448, 0.59763473, 0.09992168, -0.78685653, -0.11706977, -0.5411481, 0.48173848, -0.03247547
590, 856409115, 0.5992618, 0.10155697, -0.7853635, -0.11736995, -0.29172465, 1.3665808, -0.07685566
591, 856425782, 0.6004395, 0.10175906, -0.78426355, -0.11852575, -0.7717469, 1.5252591, -0.21393776
592, 856442449, 0.6011752, 0.101117104, -0.7835423, -0.12010654, -1.274694, 1.1400522, -0.20462513
593, 856459116, 0.60168, 0.1006441, -0.7830235, -0.12135324, -1.3789086, 0.34549984, -0.048083305
594, 856475783, 0.60218114, 0.1008802, -0.78251404, -0.121954985, -0.84829646, -0.632362, 0.04149151
595, 856492450, 0.6028056, 0.10210924, -0.7819305, -0.12158844, -0.15446924, -0.66537803, 0.055300713
596, 856509117, 0.6035074, 0.1034428, -0.7813134, -0.12094594, 0.40895808, 0.022548042, 0.20866394
597, 856525784, 0.60419667, 0.10370758, -0.78070164, -0.121227555, 0.6494848, 0.3815062, 0.31522465
598, 856542451, 0.60487396, 0.10352051, -0.7800849, -0.1219778, 0.3943095, 0.114252165, 0.22665882
599, 856559118, 0.6056735, 0.1042034, -0.77938676, -0.1218926, 0.1950848, -0.11485526, 0.003660202
600, 856575785, 0.6065774, 0.1057521, -0.77862865, -0.12090462, -0.17130747, 0.21038587, -0.012552261
601, 856592452, 0.6073248, 0.10720806, -0.7780089, -0.11985612, -0.6758884, 0.39823332, -0.009033203
602, 856609119, 0.60775894, 0.107960545, -0.7776659, -0.11920332, -1.0725936, 0.3468559, -0.07826328
603, 856625786, 0.6077751, 0.10789595, -0.77767533, -0.119118504, -1.3852127, 0.20978428, -0.055975914
604, 856642453, 0.6074586, 0.107373774, -0.7779574, -0.119362995, -1.4894675, 0.076077946, -0.034787178
605, 856659120, 0.60690814, 0.10696019, -0.7784154, -0.119547546, -1.3048486, 0.016417641, -0.015724182
606, 856675787, 0.6061698, 0.10692134, -0.779023, -0.119370684, -0.7576754, 0.0054801465, -0.10018158
607, 856692454, 0.6052755, 0.10667337, -0.77975684, -0.11933897, -0.3443208, 0.1327886, 0.044792175
608, 856709121, 0.6042985, 0.106130406, -0.78054994, -0.11959043, -0.09546059, -0.0057554585, 0.08192921
609, 856725788, 0.60336566, 0.10556363, -0.7812982, -0.11991422, 0.21946469, -0.19109078, 0.16722488
610, 856742455, 0.60252815, 0.1051449, -0.78196514, -0.120146655, 0.47729045, -0.22897002, 0.07246113
611, 856759122, 0.60182256, 0.104973175, -0.7825301, -0.12015406, 0.60664546, -0.16693284, 0.19407082
612, 856775789, 0.601246, 0.10497007, -0.78299034, -0.12004514, 0.47794226, -0.08248933, 0.15643692
613, 856792456, 0.6007462, 0.105151504, -0.7833924, -0.119766556, 0.2085291, -0.11492779, 0.11470318
614, 856809123, 0.60031193, 0.10544374, -0.78374875, -0.11935255, -0.017889082, -0.046058476, 0.09949589
615, 856825790, 0.5998983, 0.105714284, -0.78408396, -0.118991666, -0.12514803, -0.12308786, 0.14724922
616, 856842457, 0.59953296, 0.10610273, -0.7843702, -0.118600965, 0.031872947, -0.16444296, 0.14647675
617, 856859124, 0.59917665, 0.106341414, -0.78463835, -0.11841293, 0.26851013, 0.010925705, 0.15529346
618, 856875791, 0.59884447, 0.106235445, -0.78487647, -0.11861167, 0.41005105, 0.10506662, 0.21129513
619, 856892458, 0.5985254, 0.10586209, -0.7850894, -0.11914456, 0.36535203, -0.040075816, 0.09336567
620, 856909125, 0.5983273, 0.10581892, -0.7852089, -0.11939096, 0.25513825, -0.17797013, 0.18342018
621, 856925792, 0.598206, 0.10593933, -0.78527594, -0.11944969, 0.20548083, 0.073664285, 0.14661789
622, 856942459, 0.598105, 0.10597516, -0.78532714, -0.11958752, 0.11689594, 0.010408719, 0.12418938
623, 856959126, 0.5980349, 0.10601132, -0.7853632, -0.11966915, 0.10485127, -0.020964844, 0.1440258
624, 856975793, 0.59795916, 0.10597118, -0.78540605, -0.1198025, 0.01658466, 0.04682725, 0.11588383
625, 856992460, 0.5978925, 0.10599453, -0.7854395, -0.119894154, -0.041121468, -0.055245474, 0.13761044
626, 857009127, 0.5978782, 0.10625514, -0.785434, -0.119771525, 0.031945366, -0.032435976, 0.14001083
627, 857025794, 0.5978862, 0.106547736, -0.7854139, -0.119602405, 0.10649633, -0.0066706324, 0.11404896
628, 857042461, 0.5979192, 0.10683737, -0.78537726, -0.11941931, 0.13359056, 0.065887205, 0.15122223
629, 857059128, 0.59793496, 0.1069873, -0.7853567, -0.11934194, 0.07196386, 0.12004952, 0.11585331
630, 857075795, 0.5979377, 0.10705537, -0.7853482, -0.11932333, -0.047107592, 0.04618627, 0.100296974
631, 857092462, 0.5979366, 0.10715495, -0.78534305, -0.11927328, -0.123722464, -0.017065493, 0.13313103
632, 857109129, 0.597924, 0.10723592, -0.78535056, -0.11921443, -0.07275302, 0.007767634, 0.08476353
633, 857125796, 0.5979081, 0.10731621, -0.7853641, -0.11913231, -0.041718245, -0.014752135, 0.13548565
634, 857142463, 0.59789973, 0.10750998, -0.785373, -0.118941724, -0.02054397, -0.06588307, 0.13300705
635, 857159130, 0.5979221, 0.10783302, -0.78536767, -0.11857082, -0.07743741, 0.017494805, 0.118979454
636, 857175797, 0.59792274, 0.108087964, -0.7853781, -0.11826572, -0.024854194, 0.06240415, 0.12250137
637, 857192464, 0.5979011, 0.1082541, -0.7854061, -0.11803794, 0.020197973, 0.036917634, 0.11255932
638, 857209131, 0.5978768, 0.10828167, -0.78543466, -0.1179447, 0.06343387, 0.0033889033, 0.14535427
639, 857225798, 0.5978812, 0.10828395, -0.7854379, -0.11789935, 0.12841982, -0.026621288, 0.17380905
640, 857242465, 0.5979142, 0.10828804, -0.785415, -0.117880605, 0.13518153, -0.06403417, 0.12264252
641, 857259132, 0.5979832, 0.108389765, -0.78537035, -0.11773452, 0.11875869, 0.046857983, 0.08904648
642, 857275799, 0.5980223, 0.10829546, -0.7853494, -0.117762454, -0.025748245, 0.15216538, 0.10872078
643, 857292466, 0.5980618, 0.108102106, -0.7853208, -0.1179306, -0.09514142, -0.02866537, 0.17553616
644, 857309133, 0.59814316, 0.10806997, -0.78525525, -0.11798257, 0.106810585, -0.17326556, 0.13437176
645, 857325800, 0.59825957, 0.10801427, -0.7851646, -0.11804695, 0.24987362, 0.019180037, 0.11809254
646, 857342467, 0.5983986, 0.107769184, -0.7850486, -0.11833833, 0.26148915, -0.11076117, 0.19153118
647, 857359134, 0.5985947, 0.107570946, -0.78488296, -0.11862502, 0.2452862, -0.107479796, 0.20043564
648, 857375801, 0.59886783, 0.107357554, -0.7846504, -0.118977435, 0.3039508, -0.11261253, 0.16035652
649, 857392468, 0.59919643, 0.10705877, -0.7843731, -0.119420305, 0.36275393, -0.025175828, 0.11875343
650, 857409135, 0.5995476, 0.10657304, -0.78407943, -0.12001943, 0.12008412, 0.054222677, 0.12393379
651, 857425802, 0.5998885, 0.10601567, -0.7837791, -0.120768234, -0.1566039, -0.124183126, 0.10733795
652, 857442469, 0.6002598, 0.105822764, -0.7834618, -0.12115137, -0.27935678, -0.16923234, 0.07040596
653, 857459136, 0.600613, 0.105653726, -0.7831639, -0.121472836, -0.25846636, -0.0316439, -0.021446228
654, 857475803, 0.6009003, 0.10525161, -0.7829227, -0.121955685, -0.30170226, -0.0021174499, 0.018328667
655, 857492470, 0.6010821, 0.10472574, -0.7827571, -0.122573696, -0.44661957, -0.1198068, -0.0150642395
656, 857509137, 0.6012216, 0.10454158, -0.7826073, -0.123002194, -0.52455586, -0.24359839, 0.1185627
657, 857525804, 0.6013332, 0.1049008, -0.78248, -0.122961044, -0.39795855, -0.17126998, 0.08931255
658, 857542471, 0.6014297, 0.10545761, -0.78237075, -0.12270748, -0.19501863, 0.069822766, 0.022368431
659, 857559138, 0.6014701, 0.105996795, -0.78228873, -0.122568585, -0.28270411, -0.07925965, 0.06714535
660, 857575805, 0.60153174, 0.106928505, -0.7822074, -0.12197368, -0.5174942, -0.09986212, -0.13439655
661, 857592472, 0.60150456, 0.10783628, -0.7822441, -0.121071786, -0.8512053, 0.30005336, -0.20435333
662, 857609139, 0.6010894, 0.10827276, -0.7826711, -0.1199789, -1.3243152, 0.86500865, -0.11377239
663, 857625806, 0.60006785, 0.108012855, -0.78362983, -0.11906384, -1.448372, 1.0791541, -0.09292412
664, 857642473, 0.5985691, 0.10756073, -0.78500295, -0.11796697, -1.1648968, 0.53857034, -0.06569481
665, 857659140, 0.5968432, 0.10732619, -0.7866006, -0.11627095, -0.7184788, 0.42404872, -0.11746693
666, 857675807, 0.594961, 0.10712091, -0.78835, -0.11424144, -0.28563526, 0.39880753, -0.17110825
667, 857692474, 0.59300435, 0.106831655, -0.7901995, -0.111883864, 0.108613886, 0.67255443, -0.05575657
668, 857709141, 0.5909442, 0.1057527, -0.7921416, -0.110059716, 0.14259054, 0.76035607, 0.18488598
669, 857725808, 0.5887977, 0.10439685, -0.7941413, -0.108435534, -0.3448094, 0.5346247, -0.038723946
670, 857742475, 0.5865611, 0.10315538, -0.7962276, -0.10642728, -0.756755, 0.3046571, -0.010601997
671, 857759142, 0.5844086, 0.10207144, -0.79825115, -0.1041317, -0.29941615, 0.09472217, 0.11454487
672, 857775809, 0.5824841, 0.101106346, -0.80010533, -0.10159518, -0.10376991, 0.51101065, -0.23371029
673, 857792476, 0.58059543, 0.09962831, -0.801933, -0.09943318, -0.02032135, 0.8423046, 0.015442848
674, 857809143, 0.578425, 0.097558685, -0.8039538, -0.09780293, -0.262313, 0.4923102, 0.0441761
675, 857825810, 0.5762397, 0.09571481, -0.80597574, -0.095863715, -0.31905937, -0.0073218374, -0.08326626
676, 857842477, 0.57418895, 0.094326526, -0.80785674, -0.09368627, -0.15577154, -0.5741504, 0.06606197
677, 857859144, 0.5721752, 0.09342754, -0.8096536, -0.09136844, 0.2452554, -0.8274156, 0.13114834
678, 857875811, 0.5702527, 0.09254566, -0.8113409, -0.089294545, 0.3529462, -0.9908479, 0.11173344
679, 857892478, 0.5685174, 0.09174118, -0.81284577, -0.08748509, 0.43044037, -0.9103606, 0.44633865
680, 857909145, 0.5667386, 0.090976715, -0.8143826, -0.085508436, 0.7155003, -0.20982765, 0.3811922
681, 857925812, 0.5645857, 0.08941694, -0.8161906, -0.084146984, 0.5757346, 0.8752729, -0.056096077
682, 857942479, 0.5622268, 0.08693571, -0.8181144, -0.08385892, 0.11656201, 1.0990279, -0.044813156
683, 857959146, 0.5599998, 0.08418311, -0.81991446, -0.083988175, 0.083978735, 0.36747378, -0.022629738
684, 857975813, 0.5581857, 0.08156694, -0.821434, -0.08379844, 0.56293434, -0.67716193, 0.31693172
685, 857992480, 0.5565347, 0.0796071, -0.82283527, -0.08290997, 0.6452555, -1.1554815, 0.25851822
686, 858009147, 0.5550933, 0.07816807, -0.8240437, -0.08193472, 0.78181344, -1.2246855, 0.21088219
687, 858025814, 0.55372524, 0.07719272, -0.82520837, -0.080380194, 0.25851196, -0.58283305, 0.11160374
688, 858042481, 0.5525926, 0.07613358, -0.82616174, -0.07938519, 0.3821173, 0.38681284, 0.24053574
689, 858059148, 0.5515794, 0.07429734, -0.82706666, -0.07874756, 0.73257357, 0.5782413, 0.23988533
690, 858075815, 0.550569, 0.07195625, -0.8279508, -0.07870086, 1.2281277, 0.32247913, 0.43296242
691, 858092482, 0.5496925, 0.069977194, -0.828704, -0.07868457, 0.7608368, -0.8071157, 0.3561964
692, 858109149, 0.54924446, 0.06930016, -0.82918435, -0.077342175, 0.45853907, -0.79587036, 0.22841835
693, 858125816, 0.5490014, 0.06895863, -0.8296044, -0.07482606, 0.40662864, 0.3632758, -0.056793213
694, 858142483, 0.5486656, 0.06734507, -0.8300671, -0.07361823, 0.090626456, 1.3756852, -0.01471138
695, 858159150, 0.54845905, 0.06448861, -0.8303775, -0.07421042, 0.1028848, 0.23686008, 0.52164555
696, 858175817, 0.5481841, 0.061973132, -0.8307419, -0.07430696, 0.25579494, -1.0871048, 0.34929848
697, 858192484, 0.5480314, 0.06048254, -0.83100104, -0.07376213, 0.21630779, -1.3398832, 0.19033241
698, 858209151, 0.5481224, 0.05994786, -0.8311092, -0.072288595, 0.013729507, -0.82527816, 0.36396503
699, 858225818, 0.5483436, 0.05962805, -0.83113784, -0.0705263, -0.141747, 0.48516273, -0.064795494
700, 858242485, 0.54890364, 0.058494385, -0.83087975, -0.07015975, 0.11037427, 0.60215324, 0.34484005
701, 858259152, 0.5496099, 0.057086453, -0.8305166, -0.07009003, 0.61062396, -0.39311087, 0.67210007
702, 858275819, 0.55030704, 0.05623954, -0.8301487, -0.06966137, 0.9755961, -0.8078889, 0.3679104
703, 858292486, 0.5510566, 0.05627326, -0.82972634, -0.06873549, 0.6699242, -0.6514513, 0.3172722
704, 858309153, 0.5518926, 0.05664453, -0.82926494, -0.067273304, 0.09449323, 0.21372862, 0.0071878433
705, 858325820, 0.5530159, 0.05653324, -0.82857627, -0.06662359, -0.20934492, 0.5427328, 0.3591175
706, 858342487, 0.55438423, 0.056101833, -0.82769126, -0.06661842, -0.08092823, -0.18183187, 0.557065
707, 858359154, 0.5555844, 0.055740673, -0.826927, -0.066416234, 0.44640902, -0.63605565, 0.09754753
708, 858375821, 0.5566536, 0.05561752, -0.82623184, -0.066215225, 0.65402794, -0.76131356, 0.18283558
709, 858392488, 0.5575857, 0.05611938, -0.8256041, -0.065778784, 0.43646225, -0.5392972, 0.30088615
710, 858409155, 0.5586152, 0.056758557, -0.82485586, -0.06588253, 0.45084932, -0.21160986, 0.35452557
711, 858425822, 0.5597991, 0.057122223, -0.82396704, -0.066638015, 0.5943415, -0.17233469, 0.5869703
712, 858442489, 0.561323, 0.057178326, -0.8228028, -0.06814004, 0.3929264, -0.15733853, 0.7176428
713, 858459156, 0.56362987, 0.05752369, -0.82102454, -0.07022397, 0.10323974, -0.3919808, 0.7688379
714, 858475823, 0.5658648, 0.05847747, -0.81937945, -0.07067602, 1.2911432, -0.61387247, 0.013030052
715, 858492490, 0.5671381, 0.058417775, -0.818461, -0.07115884, 1.3408804, 0.9878735, -0.8752527
716, 858509157, 0.568393, 0.05734253, -0.81744856, -0.07361556, 0.5736169, 0.44892, 0.3837061
717, 858525824, 0.5698877, 0.056693353, -0.81628376, -0.07546413, -0.18651888, 0.14054503, 0.1738615
718, 858542491, 0.5713158, 0.05585207, -0.8152046, -0.0769428, -0.5702535, 0.9541415, -0.14965725
719, 858559158, 0.57282966, 0.054438844, -0.8140469, -0.07893384, -1.2232904, 0.85795134, 0.010403633
720, 858575825, 0.574486, 0.052800205, -0.81278694, -0.08096533, -1.1597824, 0.69585854, -0.005042076
721, 858592492, 0.5759942, 0.050828453, -0.8116665, -0.08273406, -0.58993024, 0.42128992, -0.09816551
722, 858609159, 0.57692564, 0.048237212, -0.8109819, -0.08449053, -0.31579518, 0.24483475, -0.3849411
723, 858625826, 0.5774516, 0.045375034, -0.8105933, -0.086195126, -0.40375784, -0.0015766325, -0.43111897
724, 858642493, 0.57797545, 0.042800467, -0.81021833, -0.087515235, -0.5680376, -0.21175066, -7.1144104E-4
725, 858659160, 0.57840943, 0.040764038, -0.8099134, -0.08843882, -0.5854229, -0.32463843, 0.16722202
726, 858675827, 0.57867754, 0.039135013, -0.80972356, -0.08915479, -0.3729327, -0.34555015, -0.007914543
727, 858692494, 0.57883877, 0.037760492, -0.8096017, -0.08980651, -0.22541773, -0.40170217, 0.0015163422
728, 858709161, 0.5789747, 0.036647554, -0.8094901, -0.09039449, -0.14379705, -0.43213978, 0.09288406
729, 858725828, 0.57913554, 0.03578743, -0.80937254, -0.090760306, 0.017879695, -0.3308314, 0.15892982
730, 858742495, 0.57928, 0.034950387, -0.80928206, -0.09097268, 0.11584632, -0.16782773, 0.10066414
731, 858759162, 0.579347, 0.034021873, -0.8092312, -0.09134914, 0.120857924, -0.1572607, 0.11370373
732, 858775829, 0.57936144, 0.033257183, -0.8092096, -0.091729864, 0.033371825, -0.19477575, 0.13062191
733, 858792496, 0.5793899, 0.032775447, -0.80918, -0.09198396, -0.049746685, -0.21669197, 0.13023186
734, 858809163, 0.5794611, 0.032534808, -0.8091258, -0.09209836, -0.089224584, -0.18009382, 0.14664078
735, 858825830, 0.5795696, 0.03234808, -0.80904907, -0.092155546, -0.09362287, -0.18816108, 0.15010452
736, 858842497, 0.5797207, 0.0321118, -0.80894774, -0.09217635, -0.05404722, -0.17498955, 0.13997841
737, 858859164, 0.57980335, 0.031725872, -0.80889887, -0.0922195, -0.11287941, -0.15398452, 0.092689514
738, 858875831, 0.5797669, 0.03127287, -0.8089277, -0.09235106, -0.20536505, -0.2104819, 0.07866573
739, 858892498, 0.57967633, 0.031026555, -0.8089952, -0.092410356, -0.26236844, -0.36381572, 0.08927441
740, 858909165, 0.5795668, 0.031150926, -0.80907404, -0.092365675, -0.24735643, -0.32717204, 0.06776047
741, 858925832, 0.57941896, 0.031480737, -0.8091645, -0.09238933, -0.24438952, -0.28071067, 0.060382843
742, 858942499, 0.57923216, 0.031902794, -0.8092822, -0.09238355, -0.21981114, -0.2738824, 0.13006878
743, 858959166, 0.5790048, 0.032363746, -0.80943304, -0.09232679, -0.22236589, -0.19353484, 0.16172504
744, 858975833, 0.5786854, 0.03268168, -0.8096331, -0.09246371, -0.15140276, -0.14437428, 0.08797264
745, 858992500, 0.57830507, 0.0329842, -0.8098726, -0.092638545, -0.1488355, -0.3160006, 0.058815956
746, 859009167, 0.57790244, 0.033484437, -0.8101314, -0.09270963, -0.14396201, -0.35109258, 0.12171364
747, 859025834, 0.577502, 0.03426978, -0.81037176, -0.09281607, -0.06191756, -0.26846576, 0.13608742
748, 859042501, 0.57714796, 0.03527839, -0.8105744, -0.09286944, 0.011061209, -0.2884343, 0.11789513
749, 859059168, 0.57682776, 0.03641762, -0.81075776, -0.09281933, 0.09396976, -0.22312485, 0.105547905
750, 859075835, 0.5765489, 0.037683688, -0.8109143, -0.09267953, 0.11850388, -0.122114435, 0.07380867
751, 859092502, 0.57628655, 0.038954068, -0.81105137, -0.09258651, 0.19244769, 0.051993154, 0.10408306
752, 859109169, 0.57597524, 0.039914656, -0.81118804, -0.09291793, 0.25046504, 0.17553371, 0.13492489
753, 859125836, 0.57566553, 0.040615503, -0.81131995, -0.09338091, 0.21946156, 0.041810013, 0.21136951
754, 859142503, 0.5754015, 0.041494913, -0.8114387, -0.09358798, 0.18180409, -0.08489818, 0.16775799
755, 859159170, 0.57523465, 0.04299397, -0.8115259, -0.093180515, 0.16855514, -0.2023843, 0.030344963
756, 859175837, 0.57524085, 0.04516397, -0.81155956, -0.09181091, 0.24461123, -0.04463847, 0.07722759
757, 859192504, 0.575356, 0.047412124, -0.8115391, -0.09012155, 0.28589943, 0.34813985, 0.2140131
758, 859209171, 0.5754083, 0.049284086, -0.81156445, -0.08854143, 0.20805837, 0.33783025, 0.10033035
759, 859225838, 0.57533175, 0.050737023, -0.81170017, -0.08696184, 0.230023, 0.2978479, -0.15631676
760, 859242505, 0.5751087, 0.05175337, -0.81194067, -0.0855814, 0.057429865, 0.41444936, 0.07028389
761, 859259172, 0.5748268, 0.052473765, -0.81220293, -0.084542274, -0.15250558, 0.37019247, 0.2565241
762, 859275839, 0.57456696, 0.05313871, -0.81246305, -0.08338595, -0.25940824, 0.17472461, 0.067858696
763, 859292506, 0.57427317, 0.053757068, -0.81280094, -0.08170359, -0.21654695, 0.21699856, -0.14056396
764, 859309173, 0.5738305, 0.054148845, -0.8132581, -0.07998799, -0.36507487, 0.36593333, -0.058612823
765, 859325840, 0.57311434, 0.054309476, -0.8139032, -0.07843525, -0.38090318, 0.33062232, -0.12132263
766, 859342507, 0.5721186, 0.054406937, -0.81479317, -0.07637064, -0.5829669, 0.5512606, -0.41125965
767, 859359174, 0.5707722, 0.05393458, -0.81595814, -0.074315585, -0.90419304, 1.0676736, -0.4389372
768, 859375841, 0.56900656, 0.05243465, -0.81735975, -0.073523276, -1.5040078, 0.8178457, -0.45068264
769, 859392508, 0.56711406, 0.050530717, -0.8187713, -0.07376858, -2.0375082, -0.029446825, -0.469182
770, 859409175, 0.56528556, 0.049156345, -0.82011235, -0.07383697, -2.4132433, -0.5749036, -0.47635365
771, 859425842, 0.5634413, 0.048196565, -0.8214681, -0.073495366, -1.9273057, -0.88230854, -0.16609764
772, 859442509, 0.5608492, 0.047242653, -0.82334805, -0.072900064, -1.6082544, -0.30785972, -0.10991573
773, 859459176, 0.5576046, 0.046163194, -0.8255729, -0.073318966, -1.58298, -0.63119084, -0.22546864
774, 859475843, 0.55439025, 0.046458136, -0.8278033, -0.07235572, -1.2646327, -1.0829055, -0.00356102
775, 859492510, 0.5509757, 0.04785746, -0.8301748, -0.070323884, -0.50751525, -0.039570592, -0.080046654
776, 859509177, 0.5473232, 0.048944157, -0.8326513, -0.06880329, 0.49858186, 0.87579715, -0.03950882
777, 859525844, 0.54365945, 0.04919973, -0.83511674, -0.067778915, 0.9962947, 1.1851876, 0.29166698
778, 859542511, 0.54006803, 0.048980955, -0.83751535, -0.067049846, 1.2048372, 0.7140191, 0.48985863
779, 859559178, 0.53655905, 0.048654623, -0.83985996, -0.06612736, 1.3278157, -0.05769674, 0.3588133
780, 859575845, 0.5333072, 0.04858351, -0.84204143, -0.06472585, 1.6287056, -0.34612826, 0.3288679
781, 859592512, 0.5303128, 0.048599064, -0.84403086, -0.063392244, 1.5782695, -0.13029237, 0.6335869
782, 859609179, 0.52757394, 0.048351593, -0.8457999, -0.06285162, 1.6407079, -0.30103686, 0.81901836
783, 859625846, 0.52515143, 0.047892284, -0.8473277, -0.06291719, 1.7936469, -0.77461547, 0.8607359
784, 859642513, 0.523083, 0.047629457, -0.8486051, -0.06312801, 1.8189062, -0.90649414, 0.8613081
785, 859659180, 0.52147955, 0.047735617, -0.84955955, -0.063476324, 1.5986737, -0.7856718, 0.9144554
786, 859675847, 0.5203567, 0.047979783, -0.8501885, -0.064083435, 1.3360156, -0.57955235, 0.87139606
787, 859692514, 0.5197003, 0.048166893, -0.85050887, -0.0650123, 1.1862284, -0.32692683, 0.87079716
788, 859709181, 0.519333, 0.048330218, -0.85062546, -0.06628591, 1.0823083, -0.19310795, 0.7071705
789, 859725848, 0.5192043, 0.04868588, -0.85059357, -0.067433655, 1.1786464, -0.2437002, 0.24335766
790, 859742515, 0.51945406, 0.04897903, -0.850328, -0.06863711, 0.96824515, -0.005227647, 0.358325
791, 859759182, 0.5199156, 0.04911678, -0.84991103, -0.07019027, 0.73981583, -0.014959945, 0.5103388
792, 859775849, 0.52051306, 0.049130708, -0.8493922, -0.072009616, 0.6107339, -0.21992134, 0.41014004
793, 859792516, 0.52135164, 0.049090177, -0.8487117, -0.07396703, 0.48423904, -0.3368239, 0.42072105
794, 859809183, 0.5223704, 0.049076967, -0.8478845, -0.07624143, 0.40130052, -0.40332723, 0.4872551
795, 859825850, 0.5234762, 0.049222004, -0.84698117, -0.07856844, 0.44418103, -0.5976844, 0.04668045
796, 859842517, 0.5248379, 0.04954116, -0.8458775, -0.081131026, 0.3746761, -0.5511909, 0.1410408
797, 859859184, 0.5264163, 0.05016769, -0.84462225, -0.083561346, 0.3109499, -0.5914914, 0.28513432
798, 859875851, 0.528084, 0.051114824, -0.84330076, -0.08578204, 0.35081923, -0.59694666, 0.33684635
799, 859892518, 0.52981913, 0.052309748, -0.84190184, -0.08807294, 0.3647204, -0.73625994, 0.20683002
800, 859909185, 0.531875, 0.053911198, -0.8402839, -0.09014307, 0.32309246, -0.8127713, 0.25347328
801, 859925852, 0.53428036, 0.05595318, -0.83841825, -0.09202712, 0.33056048, -0.87179303, 0.49334717
802, 859942519, 0.53690594, 0.0584437, -0.8364168, -0.09340077, 0.6089977, -0.5670906, 0.2793846
803, 859959186, 0.5396727, 0.0609265, -0.83429784, -0.09480996, 0.7676807, -0.015203928, 0.13244057
804, 859975853, 0.54249316, 0.06309819, -0.8320895, -0.09668255, 0.7611479, 0.1405226, 0.06796646
805, 859992520, 0.5454788, 0.06532173, -0.82977355, -0.09829531, 0.565068, 0.09018066, 0.2288456
806, 860009187, 0.548598, 0.06761662, -0.82735795, -0.09973616, 0.572574, 0.5549375, 0.103549
807, 860025854, 0.55167115, 0.06933764, -0.82494116, -0.101605274, 0.525352, 0.8145151, -0.12531567
808, 860042521, 0.554597, 0.070201665, -0.82258695, -0.104137756, 0.16072325, 0.6788256, -0.17787266
809, 860059188, 0.55742306, 0.070548, -0.8202686, -0.10706161, -0.09971986, 0.14889732, 0.04299736
810, 860075855, 0.5602185, 0.070918046, -0.8179775, -0.10972229, -0.32105535, 0.036386486, -0.1402874
811, 860092522, 0.56283814, 0.071151905, -0.815763, -0.11261451, -0.3251416, -0.11123223, -0.15491104
812, 860109189, 0.5653365, 0.071523055, -0.8136146, -0.11537155, -0.5221665, -0.22215804, -0.29116344
813, 860125856, 0.5677758, 0.07235683, -0.81151223, -0.11765793, -0.81981736, -0.26755297, -0.12269211
814, 860142523, 0.5701742, 0.07399322, -0.8094474, -0.11925311, -0.67312986, -0.09942091, -0.055488586
815, 860159190, 0.5725165, 0.07589519, -0.8074715, -0.12022745, -0.5038876, 0.27985153, -0.2578478
816, 860175857, 0.57471985, 0.07756397, -0.80557215, -0.121387124, -0.21355322, 0.5178067, 0.026565552
817, 860192524, 0.5767912, 0.07891747, -0.80378115, -0.12255522, -0.21374097, 0.5047338, -0.033483505
818, 860209191, 0.5786542, 0.0799222, -0.8021608, -0.12373379, -0.3059441, 0.8185192, -0.037983894
819, 860225858, 0.5802867, 0.08045441, -0.80072105, -0.1250617, -0.6516243, 0.81561273, -0.18256855
820, 860242525, 0.5817363, 0.080723815, -0.7994516, -0.12626864, -0.8514369, 0.69714135, -0.1853714
821, 860259192, 0.58300537, 0.080961294, -0.79833764, -0.12730785, -0.9274804, 0.32359484, -0.08713722
822, 860275859, 0.5840966, 0.08131831, -0.7973754, -0.1281062, -0.82658625, 0.08691229, -0.05056286
823, 860292526, 0.5850631, 0.081699185, -0.7965162, -0.1287968, -0.662985, 0.048054166, -0.09797478
824, 860309193, 0.5859306, 0.0822011, -0.7957438, -0.12930813, -0.5573345, 0.05992103, -0.057001114
825, 860325860, 0.5867026, 0.082943276, -0.79506934, -0.12948251, -0.44315913, 0.15376551, -0.014461517
826, 860342527, 0.58737475, 0.08367276, -0.79448986, -0.12952168, -0.3973211, 0.17991261, 0.0074243546
827, 860359194, 0.5879578, 0.08446795, -0.79399836, -0.12937395, -0.54260945, 0.099009536, 5.8078766E-4
828, 860375861, 0.5884535, 0.085257106, -0.79358745, -0.12912415, -0.5790434, 0.027719853, 0.054540634
829, 860392528, 0.5888976, 0.08624984, -0.79323727, -0.12859076, -0.5051697, -0.07819913, 0.0019245148
830, 860409195, 0.5892998, 0.0874009, -0.7929454, -0.12776846, -0.25500458, 0.081497855, -0.025040627
831, 860425862, 0.58961195, 0.0884658, -0.7927207, -0.12698732, -0.11069032, 0.18400358, 0.065060616
832, 860442529, 0.5898299, 0.08937693, -0.79256827, -0.126286, -0.16413763, 0.18321927, 0.010595322
833, 860459196, 0.58991426, 0.09005228, -0.7925078, -0.12579046, -0.31645277, 0.13368103, -0.028492928
834, 860475863, 0.58983904, 0.09050508, -0.7925666, -0.12544785, -0.5599505, 0.084784836, -0.013114929
835, 860492530, 0.58965445, 0.09078068, -0.7927096, -0.12521252, -0.59435624, 0.04836407, 0.076566696
836, 860509197, 0.5893849, 0.09093516, -0.79290605, -0.1251248, -0.27580827, -0.021413993, 0.10330582
837, 860525864, 0.5890162, 0.09086633, -0.7931719, -0.12522644, 0.02351229, 0.10038328, 0.03963089
838, 860542531, 0.58859545, 0.09055404, -0.7934662, -0.125566, 0.056363262, 0.090170935, 0.12399769
839, 860559198, 0.5882235, 0.09036419, -0.79371667, -0.12586284, 0.053054824, -0.12288787, 0.18060684
840, 860575865, 0.5879478, 0.09049078, -0.79390734, -0.12585807, 0.25711188, -0.18291189, 0.13124847
841, 860592532, 0.58773893, 0.09065824, -0.79405123, -0.12580498, 0.36108026, -0.075938195, 0.13267708
842, 860609199, 0.58757246, 0.09076389, -0.79416376, -0.12579647, 0.18878038, -0.12088486, 0.1154356
843, 860625866, 0.58748, 0.0911116, -0.7942319, -0.12554754, -0.033441115, -0.14176041, 0.1760807
844, 860642533, 0.58746517, 0.09171936, -0.7942452, -0.12508789, 0.032927036, -0.08208424, 0.16128731
845, 860659200, 0.587484, 0.092294626, -0.79422784, -0.124685794, 0.25479, -0.022653876, 0.15407181
846, 860675867, 0.58754003, 0.092697725, -0.79416996, -0.12449174, 0.3811504, -0.024749255, 0.18979836
847, 860692534, 0.58765304, 0.092920616, -0.79406154, -0.12448333, 0.4298087, 0.07436192, 0.18041325
848, 860709201, 0.5877806, 0.09295896, -0.7939334, -0.124669984, 0.2898677, 0.09657341, 0.17688465
849, 860725868, 0.5879264, 0.0930416, -0.7937973, -0.1247872, -0.0072015873, -2.9749575E-4, 0.07397938
850, 860742535, 0.5880726, 0.0932514, -0.79367054, -0.1247482, -0.26189148, 0.034334887, 0.07113075
851, 860759202, 0.58815783, 0.093397595, -0.79359597, -0.124711186, -0.34793323, 0.07430112, 0.08567238
852, 860775869, 0.58818465, 0.09349729, -0.7935686, -0.12468405, -0.2177557, 0.04634027, 0.093937874
853, 860792536, 0.588163, 0.09349374, -0.79357946, -0.12472011, -0.09757101, 0.074068956, 0.06291485
854, 860809203, 0.58811796, 0.09345709, -0.79361355, -0.124743134, -0.005147056, 0.08217588, 0.10940838
855, 860825870, 0.5880646, 0.09335225, -0.7936497, -0.124843374, 0.09118936, -0.01975632, 0.17034435
856, 860842537, 0.5880639, 0.093345635, -0.79364556, -0.12487736, 0.22577536, -0.09220753, 0.15576458
857, 860859204, 0.5880965, 0.09319199, -0.79361004, -0.1250637, 0.26990306, 0.0024133252, 0.15782928
858, 860875871, 0.5881499, 0.09292817, -0.7935519, -0.1253782, 0.11780518, -0.033573154, 0.17551231
859, 860892538, 0.5882285, 0.09270354, -0.79347706, -0.12564875, -0.07383393, 0.027018748, 0.10256767
860, 860909205, 0.58828276, 0.09248858, -0.7934198, -0.1259138, -0.14353824, 0.030829534, 0.0664587
861, 860925872, 0.58833617, 0.09237482, -0.79337484, -0.12603185, -0.09475295, -0.034389816, 0.12435913
862, 860942539, 0.5884059, 0.09220277, -0.7933125, -0.12622468, 0.13484223, -0.02329167, 0.16177082
863, 860959206, 0.58848166, 0.09197058, -0.7932402, -0.12649468, 0.25643998, -0.06603931, 0.11494827
864, 860975873, 0.5886042, 0.091726586, -0.7931266, -0.12681444, 0.22740744, -0.049789578, 0.17646408
865, 860992540, 0.58876264, 0.09151198, -0.79298973, -0.12708913, 0.10789194, 0.0035939207, 0.116456985
866, 861009207, 0.5889114, 0.09126119, -0.79286987, -0.12732722, -0.10801666, 0.052579913, 0.04891777
867, 861025874, 0.5890405, 0.090965904, -0.7927663, -0.12758557, -0.25487092, 0.06358329, 0.13875294
868, 861042541, 0.589159, 0.09080143, -0.79267436, -0.12772712, -0.19086084, -0.08082485, 0.109835625
869, 861059208, 0.58931315, 0.09089026, -0.7925597, -0.12766469, 0.10065906, -0.15188828, 0.13198853
870, 861075875, 0.5895164, 0.09099712, -0.7924105, -0.12757613, 0.26391962, -0.05208422, 0.0944128
871, 861092542, 0.5897398, 0.09104741, -0.7922456, -0.12753195, 0.16272414, 0.009520702, 0.11476517
872, 861109209, 0.5899998, 0.0910164, -0.792048, -0.12757836, 0.03760697, -0.017619018, 0.11915302
873, 861125876, 0.5903313, 0.09112655, -0.79179186, -0.12755658, 0.009803725, -0.28263128, 0.15253639
874, 861142543, 0.5907225, 0.091533795, -0.7915066, -0.12722437, 0.05592741, -0.15575925, 0.005768776
875, 861159210, 0.5910577, 0.09160993, -0.79126257, -0.12713052, -0.07286254, 0.21257323, 0.037984848
876, 861175877, 0.5913168, 0.091376446, -0.79106516, -0.12732248, -0.31960565, -0.030355519, 0.21319771
877, 861192544, 0.5915929, 0.09143961, -0.79087156, -0.12719677, -0.24303725, -0.12303002, 0.0749321
878, 861209211, 0.5917823, 0.09151366, -0.79075444, -0.12699029, -0.37467477, 0.19398303, -0.080628395
879, 861225878, 0.59189636, 0.09150046, -0.79072535, -0.12664887, -0.8555101, 0.2157508, -0.021830559
880, 861242545, 0.5918671, 0.09156567, -0.7908592, -0.12590007, -1.0230572, 0.50897336, -0.11553478
881, 861259212, 0.59160733, 0.09135967, -0.79120916, -0.12506945, -0.6409502, 0.74239635, -0.12717152
882, 861275879, 0.5910148, 0.09074071, -0.7918683, -0.12414707, -0.8771726, 0.76024276, -0.23386478
883, 861292546, 0.59022284, 0.08996711, -0.79271054, -0.123098105, -0.53058577, 0.50105655, 0.17022896
884, 861309213, 0.58935446, 0.0890055, -0.79369617, -0.121597655, -0.26393974, 0.5959441, -0.11356926
885, 861325880, 0.58824885, 0.08729555, -0.79486674, -0.12054087, -0.068466045, 0.89689165, 0.07240105
886, 861342547, 0.5870939, 0.085317574, -0.7960066, -0.12006301, 0.4046197, 0.49741092, 0.24099064
887, 861359214, 0.58622175, 0.08361438, -0.79696256, -0.119178645, 0.9950104, 0.3640349, 0.044909477
888, 861375881, 0.58529425, 0.08174833, -0.7979802, -0.11821837, 0.8660908, 0.77833384, -0.16917706
889, 861392548, 0.58422756, 0.07971774, -0.79905194, -0.11764103, 0.21405612, 0.44188237, 0.19708633
890, 861409215, 0.5831347, 0.07814201, -0.80024385, -0.11600702, -0.7949755, 0.3925296, 0.034692764
891, 861425882, 0.5819016, 0.076455355, -0.80156064, -0.11421852, -0.93407404, 0.4557237, -0.0027503967
892, 861442549, 0.5806793, 0.074693084, -0.80286545, -0.11242625, -0.44848457, 0.013603641, -0.14087296
893, 861459216, 0.57927656, 0.07289489, -0.8042768, -0.11074191, -0.48591402, 0.15245089, -0.3857355
894, 861475883, 0.5775549, 0.07105722, -0.8058612, -0.10940324, -1.187266, -0.23795214, -0.14302444
895, 861492550, 0.5757657, 0.06996519, -0.8075437, -0.10710899, -1.5392814, -0.446206, 0.0022125244
896, 861509217, 0.57398504, 0.06917882, -0.80928063, -0.104021646, -1.0697356, -0.22065887, -0.17252731
897, 861525884, 0.5722183, 0.06795758, -0.81092685, -0.101713926, -0.35243702, -0.5871083, 0.05615616
898, 861542551, 0.5705696, 0.06692454, -0.8124468, -0.09950994, 0.526137, -0.7893092, 0.11929321
899, 861559218, 0.56877476, 0.06575575, -0.8139923, -0.09791961, 0.583954, -0.2542988, 0.13052082
900, 861575885, 0.56661123, 0.064399466, -0.8157722, -0.09654225, -0.23769218, -0.0011786676, 0.063388824
901, 861592552, 0.5643932, 0.063377686, -0.8175679, -0.09500803, -0.37871855, -0.12553175, 0.082084656
902, 861609219, 0.5623171, 0.062421013, -0.81932575, -0.09278228, 0.006483664, 0.08124928, 0.071502686
903, 861625886, 0.56012946, 0.06060177, -0.8211631, -0.09095925, 0.4854934, 0.64164436, 0.14762878
904, 861642553, 0.55780506, 0.05778774, -0.8230201, -0.09028824, 0.74404645, 0.44111323, -0.028802872
905, 861659220, 0.55557775, 0.054805633, -0.82476985, -0.08991321, 0.61847913, -0.12760396, 6.456375E-4
906, 861675887, 0.5537057, 0.052344114, -0.8263028, -0.08884754, 0.5932432, -0.0919427, 0.089645386
907, 861692554, 0.5520132, 0.050196595, -0.8277464, -0.0871647, 0.33307752, 0.26471624, 0.11802578
908, 861709221, 0.550382, 0.047847793, -0.82910186, -0.08591005, 0.30601874, 0.05400498, 0.034326553
909, 861725888, 0.54938585, 0.04547803, -0.8300171, -0.08472838, 0.59864366, -0.6806848, 0.58173466
910, 861742555, 0.5487153, 0.043343257, -0.8307362, -0.08312993, 1.0868117, -0.90221065, 0.651247
911, 861759222, 0.54803413, 0.041257996, -0.8314006, -0.082033694, 1.3193773, -0.906901, 0.38486004
912, 861775889, 0.54757196, 0.039570533, -0.831878, -0.08110723, 0.94239277, -0.6744306, 0.4662466
913, 861792556, 0.54754466, 0.038389478, -0.83203036, -0.08029397, 0.69967824, -0.33480322, 0.4803381
914, 861809223, 0.54812104, 0.037358582, -0.83178496, -0.07938392, 1.0117288, -0.31254673, 0.58784676
915, 861825890, 0.5488179, 0.035971522, -0.83146214, -0.07858757, 1.6318547, -0.3419871, 0.5602102
916, 861842557, 0.549463, 0.034321155, -0.8311203, -0.078433625, 1.477557, -0.58401173, 0.5651417
917, 861859224, 0.5502674, 0.033364546, -0.83065, -0.078188956, 0.7358149, -0.5361852, 0.44105244
918, 861875891, 0.5515221, 0.032852132, -0.82992655, -0.077242464, 0.40096122, 0.2961422, 0.22452164
919, 861892558, 0.553025, 0.031760186, -0.8290264, -0.07661602, 0.37419242, 0.5905884, 0.2117176
920, 861909225, 0.5545453, 0.03017188, -0.8280489, -0.0768404, 0.14308986, -0.47457382, 0.38127136
921, 861925892, 0.55631655, 0.029361466, -0.8268908, -0.07682099, -0.10829829, -1.1245245, 0.50961876
922, 861942559, 0.558218, 0.029559772, -0.8256522, -0.07627332, -0.32912105, -0.79244643, 0.33251095
923, 861959226, 0.5599166, 0.029961256, -0.82453066, -0.07579711, -0.42236617, -0.2506476, -0.057089806
924, 861975893, 0.56153893, 0.030121302, -0.82342464, -0.07575538, -0.68619776, -0.15803693, -0.010970116
925, 861992560, 0.5632695, 0.030338828, -0.8222413, -0.07567396, -0.35526088, -0.741736, 0.26384258
926, 862009227, 0.5649287, 0.031104809, -0.82113004, -0.075057074, 0.3261081, -0.8119192, 0.49309158
927, 862025894, 0.5663756, 0.032291, -0.8201275, -0.074612156, 0.9951534, -0.5130051, 0.18186188
928, 862042561, 0.56783736, 0.033495575, -0.81903845, -0.074934274, 1.0881804, -0.1686546, 0.28819466
929, 862059228, 0.5693845, 0.034759507, -0.81785566, -0.07553566, 0.8618995, 0.086215876, 0.57688713
930, 862075895, 0.57117236, 0.03573773, -0.81645024, -0.07677402, 0.23893803, 0.44886068, 0.64868546
931, 862092562, 0.573379, 0.036684453, -0.8147123, -0.078325786, 0.37386075, 0.34564257, 0.36278248
932, 862109229, 0.575226, 0.03731714, -0.81331795, -0.07897271, 0.84681505, 0.45617884, -0.34605503
933, 862125896, 0.57652986, 0.03660374, -0.81231534, -0.080109954, 0.77901685, 1.1520722, -0.568141
934, 862142563, 0.5777612, 0.034794495, -0.81132066, -0.08209938, -0.015747828, 0.8901709, 0.10304546
935, 862159230, 0.5789781, 0.03280729, -0.81035393, -0.08387431, -0.53188884, 0.65892357, 0.12546825
936, 862175897, 0.5801632, 0.030758645, -0.8093918, -0.0857306, -0.8793952, 0.7739696, -0.07701683
937, 862192564, 0.5816236, 0.028516715, -0.8081755, -0.088054396, -1.2857945, 0.5984865, -0.09488678
938, 862209231, 0.58366287, 0.026490588, -0.8065388, -0.09017403, -1.0970038, 0.07218939, 0.11116314
939, 862225898, 0.585701, 0.02496499, -0.8050736, -0.09048682, -0.27272782, -0.2994607, -0.37027645
940, 862242565, 0.58673656, 0.022448268, -0.80438745, -0.09053847, -0.027186776, 0.37521774, -0.728817
941, 862259232, 0.5869396, 0.019107474, -0.804124, -0.09231191, -0.72100675, -0.06790167, 0.014544487
942, 862275899, 0.5871946, 0.01690166, -0.803823, -0.09373245, -1.134554, -0.7853611, 0.29311275
943, 862292566, 0.5875266, 0.015713967, -0.8035238, -0.09442066, -0.9399149, -0.7158201, 0.17498684
944, 862309233, 0.5876728, 0.014743663, -0.80333364, -0.0952832, -0.7118119, -0.64599115, 0.026122093
945, 862325900, 0.58785135, 0.014206699, -0.80310684, -0.09616912, -0.57765585, -0.83867353, 0.07299137
946, 862342567, 0.58814573, 0.014452317, -0.8028901, -0.096142866, -0.18030208, -0.9739966, 0.060399055
947, 862359234, 0.5881174, 0.014795955, -0.8029272, -0.09595409, 0.11292947, -0.5034106, -0.12737465
948, 862375901, 0.5877161, 0.014792994, -0.8031319, -0.09669708, -0.027955659, -0.35333896, 0.113601685
949, 862392568, 0.5873624, 0.015070343, -0.80331343, -0.097294286, -0.2461423, -0.40268734, 0.31192112
950, 862409235, 0.5871677, 0.015892873, -0.80341864, -0.09746863, -0.17488325, -0.30688983, 0.2981825
951, 862425902, 0.58712995, 0.017053522, -0.8034455, -0.09727937, -0.008064794, -0.08171873, 0.17805862
952, 862442569, 0.58713824, 0.01801874, -0.80343276, -0.09716027, 0.22038825, 0.11683901, 0.107860565
953, 862459236, 0.5870712, 0.018467575, -0.80343044, -0.097499356, 0.24898985, 0.1816852, 0.10453892
954, 862475903, 0.58706653, 0.018956386, -0.8034283, -0.09745089, 0.20033199, 0.1074082, -0.037160873
955, 862492570, 0.5870398, 0.019548519, -0.80348253, -0.09704699, 0.06203334, 0.373251, 0.043070793
956, 862509237, 0.586916, 0.019802049, -0.803561, -0.09709555, 0.03558639, 0.50409406, 0.2786007
957, 862525904, 0.5868537, 0.01988144, -0.80357903, -0.097305514, 0.07686655, 0.23652336, 0.25535965
958, 862542571, 0.5869195, 0.019946096, -0.8035219, -0.0973673, 0.16444296, 0.019586287, 0.08559036
959, 862559238, 0.5870195, 0.019862138, -0.8034533, -0.097346194, 0.15791869, -0.0111536365, -0.025074005
960, 862575905, 0.58715683, 0.019959372, -0.8033974, -0.09695958, 0.11816638, -0.043965816, -0.023197174
961, 862592572, 0.5872146, 0.019959476, -0.8034121, -0.09648824, 0.14687975, 0.21379964, 0.012891769
962, 862609239, 0.5871488, 0.019704329, -0.8034687, -0.09646849, 0.041769207, 0.2415944, 0.24701118
963, 862625906, 0.58705723, 0.01945026, -0.8035191, -0.096657574, -0.04652601, -0.018129205, 0.20106697
964, 862642573, 0.5869878, 0.019249514, -0.8035608, -0.09677404, -0.097909406, -0.18933749, 0.088282585
965, 862659240, 0.58700156, 0.019305972, -0.80357957, -0.096522875, -0.14939606, -0.4099547, 0.15790176
966, 862675907, 0.5870975, 0.01985699, -0.8035759, -0.09585551, -0.2307664, -0.49052098, 0.19541454
967, 862692574, 0.58718216, 0.020788457, -0.8035933, -0.09499073, -0.17806248, -0.50965744, 0.03361702
968, 862709241, 0.5871726, 0.021783164, -0.80367035, -0.09416963, -0.20074548, -0.43475607, -0.03194046
969, 862725908, 0.58701366, 0.02291549, -0.8038293, -0.09353398, -0.35296854, -0.51257354, 0.18887901
970, 862742575, 0.5867061, 0.024163146, -0.80407727, -0.0930179, -0.42096922, -0.67862624, 0.17709637
971, 862759242, 0.5864302, 0.02581652, -0.80433035, -0.09211968, -0.41366035, -0.70299226, 0.056054115
972, 862775909, 0.5861492, 0.027770033, -0.8045944, -0.09102814, -0.34306154, -0.5127475, 0.07740021
973, 862792576, 0.5857124, 0.02996412, -0.8049558, -0.089942224, -0.37226933, -0.55941296, 0.046871185
974, 862809243, 0.5851184, 0.032521214, -0.8054573, -0.08841722, -0.3030013, -0.39241186, -0.13506031
975, 862825910, 0.5843719, 0.035074573, -0.80606997, -0.08677834, -0.35957333, -0.07825231, 0.054117203
976, 862842577, 0.5834657, 0.037494887, -0.80677265, -0.085321054, -0.39669624, 0.005623518, 0.0959034
977, 862859244, 0.5824027, 0.039817415, -0.8076041, -0.083652176, -0.25089106, 0.092557944, -0.22416306
978, 862875911, 0.5811045, 0.04163231, -0.808602, -0.08214175, -0.44703487, 0.3390398, -0.20091534
979, 862892578, 0.57955295, 0.043340016, -0.809709, -0.08131042, -0.83808327, -0.026100585, -0.14225578
980, 862909245, 0.577836, 0.045497376, -0.8109437, -0.08003681, -1.3314286, 0.202097, -0.5930891
981, 862925912, 0.57574046, 0.047050808, -0.8124672, -0.078780465, -1.7206837, 0.78293914, -0.6196461
982, 862942579, 0.5732956, 0.04778728, -0.8141642, -0.07864911, -2.144728, 0.9538729, 0.0023536682
983, 862959246, 0.5703861, 0.048161685, -0.8162228, -0.0782364, -1.749975, 0.46241117, -0.436306
984, 862975913, 0.56701607, 0.047978662, -0.8186869, -0.07709009, -1.5341722, 1.112597, -0.91657543
985, 862992580, 0.5636477, 0.0473509, -0.8210648, -0.07689135, -1.2116119, 0.26898614, 0.10952568
986, 863009247, 0.5600161, 0.047706753, -0.82362694, -0.07579538, -0.9159963, -0.03270777, -0.008610725
987, 863025914, 0.55618215, 0.048489254, -0.8263763, -0.07357213, 0.030281534, 1.4755249, -0.6339884
988, 863042581, 0.55242413, 0.048122596, -0.8290533, -0.07199009, 0.82183075, 1.8483216, 0.01836586
989, 863059248, 0.5485726, 0.046737418, -0.8317656, -0.07106321, 1.4386921, 1.1110384, 0.31894302
990, 863075915, 0.5448208, 0.045033723, -0.8344209, -0.069886796, 1.7387497, 0.6097345, 0.07949448
991, 863092582, 0.5413055, 0.04345739, -0.8369042, -0.06849396, 1.5876243, 0.09248867, 0.49027824
992, 863109249, 0.5379656, 0.042069584, -0.8392436, -0.06703571, 1.2161934, -0.27074906, 0.60186386
993, 863125916, 0.5348566, 0.040785953, -0.8413954, -0.06571983, 1.3818389, -0.39499444, 0.6739006
994, 863142583, 0.5321185, 0.039212607, -0.84325653, -0.06504785, 1.7914457, -0.63743347, 0.7720871
995, 863159250, 0.5297559, 0.037381765, -0.8448056, -0.065306984, 1.9674416, -1.2199214, 1.1109037
996, 863175917, 0.5280232, 0.036031984, -0.8458721, -0.06628567, 1.6967074, -1.5746073, 1.4300089
997, 863192584, 0.52692086, 0.035603665, -0.84651405, -0.06708828, 1.8918322, -1.5384074, 1.2884474
998, 863209251, 0.52607226, 0.035415683, -0.8469726, -0.0680528, 2.063159, -0.8352111, 0.7423153
999, 863225918, 0.52554756, 0.03503604, -0.8471443, -0.07013462, 1.7411321, -0.74695575, 0.8602028
1000, 863242585, 0.5255371, 0.034864046, -0.8469575, -0.07251523, 1.3737571, -0.8880569, 1.0699997
1001, 863259252, 0.5260363, 0.034919374, -0.846428, -0.07500922, 1.2534437, -0.59820515, 1.0198002
1002, 863275919, 0.5268736, 0.034963053, -0.8456259, -0.07809503, 1.2662451, -0.5832455, 0.8621683
1003, 863292586, 0.52816916, 0.035150185, -0.8444738, -0.08164597, 0.950289, -0.9022563, 0.7616949
1004, 863309253, 0.5299062, 0.036055584, -0.8430426, -0.0847279, 0.9873336, -1.3131893, 0.4679613
1005, 863325920, 0.5318736, 0.037465498, -0.84145826, -0.08749194, 1.0639726, -0.8855942, 0.16087246
1006, 863342587, 0.5338126, 0.03870253, -0.8397943, -0.09106012, 0.8634663, -0.61315536, 0.1994648
1007, 863359254, 0.5359551, 0.039916083, -0.8378893, -0.09539816, 0.3707499, -0.9047487, 0.5892229
1008, 863375921, 0.53864247, 0.041715235, -0.8356262, -0.09926346, 0.26716146, -1.0226195, 0.55409145
1009, 863392588, 0.54198885, 0.04398159, -0.8328955, -0.10295193, 0.035626624, -0.74319607, 0.5797701
1010, 863409255, 0.54574996, 0.04688923, -0.8298387, -0.10642572, 0.1755654, -1.3278083, 0.33999252
1011, 863425922, 0.5496718, 0.05084736, -0.82671165, -0.1087365, 0.97176856, -1.5291364, -0.24248219
1012, 863442589, 0.5535805, 0.05560881, -0.8235368, -0.11065079, 1.2012292, -0.519705, -0.4141159
1013, 863459256, 0.55743086, 0.06015884, -0.82031614, -0.11284284, 0.77504414, 0.45275563, -0.3259182
1014, 863475923, 0.56124556, 0.06393698, -0.81702137, -0.11572433, 0.2913925, 0.9338858, 0.12820625
1015, 863492590, 0.56511766, 0.0670915, -0.81365854, -0.11874672, 0.30540898, 0.86925286, -0.008686066
1016, 863509257, 0.56912434, 0.06957498, -0.81019646, -0.12181464, 0.43186593, 1.0592871, -0.17123508
1017, 863525924, 0.57313293, 0.071220614, -0.8066678, -0.12543322, 0.53524065, 0.870782, -0.13963223
1018, 863542591, 0.57698494, 0.07223614, -0.8031991, -0.1293905, 0.2742316, 0.30498427, -0.23707008
1019, 863559258, 0.5806591, 0.07319026, -0.7998533, -0.13309097, -0.2559693, 0.068498336, -0.3303728
1020, 863575925, 0.5842587, 0.07462051, -0.79657996, -0.13613974, -0.76933515, 0.35882196, -0.27863407
1021, 863592592, 0.5876126, 0.07594266, -0.7934972, -0.13894723, -1.0570773, 0.6359937, -0.38651657
1022, 863609259, 0.59070456, 0.07692011, -0.790574, -0.14193177, -1.181937, 0.4463382, -0.23720837
1023, 863625926, 0.5937078, 0.07852316, -0.7877794, -0.1440457, -1.2590185, 0.44967583, -0.24589062
1024, 863642593, 0.59652334, 0.08034331, -0.7852732, -0.14508916, -1.2115953, 1.609545, -0.44662666
1025, 863659260, 0.59883094, 0.0809604, -0.78319705, -0.146456, -1.5032333, 2.2810507, -0.28750896
1026, 863675927, 0.6005303, 0.081063434, -0.7816673, -0.14760889, -2.0412045, 1.7204137, -0.29505348
1027, 863692594, 0.60167223, 0.08162007, -0.78070784, -0.14773037, -2.3285422, 0.9109099, -0.4010067
1028, 863709261, 0.602325, 0.082545504, -0.78023714, -0.14704143, -2.240978, 0.56208485, -0.2885065
1029, 863725928, 0.60243225, 0.0831626, -0.7802327, -0.14627522, -2.1424012, 0.5475118, -0.15733719
1030, 863742595, 0.6019767, 0.08312389, -0.7806782, -0.14579473, -1.8713752, 0.43543458, -0.06624222
1031, 863759262, 0.6010759, 0.08276379, -0.78148264, -0.14540665, -1.5215738, 0.35774416, -0.13317966
1032, 863775929, 0.5998339, 0.082225844, -0.78254265, -0.14513993, -1.1483935, 0.05837214, -0.048462868
1033, 863792596, 0.5985621, 0.082194485, -0.7836506, -0.14442803, -0.6756484, -0.3727409, 0.0877409
1034, 863809263, 0.59738433, 0.08261251, -0.78471786, -0.14326714, 0.1492767, -0.3438842, 0.06569195
1035, 863825930, 0.5962849, 0.08296293, -0.7857174, -0.14216052, 0.6926894, -0.20728855, 0.029715538
1036, 863842597, 0.59531534, 0.0832593, -0.7866062, -0.14113185, 0.9237348, -0.03679934, 0.23783112
1037, 863859264, 0.59440005, 0.08321812, -0.78742415, -0.14045177, 0.849866, 0.16047531, 0.1382637
1038, 863875931, 0.5935732, 0.08302547, -0.7881531, -0.13997358, 0.4210081, -0.19013822, 0.23971748
1039, 863892598, 0.59292513, 0.08331142, -0.7887669, -0.13908994, 0.034326226, -0.4572977, 0.12033939
1040, 863909265, 0.5923918, 0.083984114, -0.78930366, -0.13790739, -0.04731814, -0.4266082, 0.11972332
1041, 863925932, 0.5919273, 0.084844016, -0.78978044, -0.13664065, 0.052124564, -0.21943776, 0.12446785
1042, 863942599, 0.59145784, 0.08550382, -0.7902337, -0.13563858, 0.2098818, 0.023299772, 0.17358494
1043, 863959266, 0.5909562, 0.08585447, -0.7906682, -0.13506964, 0.26103228, -0.03964578, 0.23355961
1044, 863975933, 0.59050786, 0.0860255, -0.79104733, -0.13470174, 0.30137905, -0.10765563, 0.23644447
1045, 863992600, 0.5901014, 0.08606086, -0.7913761, -0.1345288, 0.30143493, -0.098662585, 0.12910938
1046, 864009267, 0.58973217, 0.086036034, -0.7916739, -0.13441174, 0.21315652, 0.032055076, 0.094135284
1047, 864025934, 0.58937645, 0.086036935, -0.79195625, -0.13430804, 0.0380428, -0.039505634, 0.11681938
1048, 864042601, 0.5890602, 0.08619328, -0.79221356, -0.13407624, -0.015244477, -0.15385796, 0.14770126
1049, 864059268, 0.58879304, 0.08645236, -0.79244035, -0.1337433, 0.02674109, -0.19409217, 0.094753265
1050, 864075935, 0.58854526, 0.086812615, -0.79265535, -0.13332538, 0.06796627, -0.07019134, 0.1183815
1051, 864092602, 0.5882865, 0.08703308, -0.79287827, -0.13299754, 0.046454933, 0.1463027, 0.12275314
1052, 864109269, 0.58802456, 0.08720214, -0.7930809, -0.13283737, 0.067816064, -0.08169494, 0.20033455
1053, 864125936, 0.58784246, 0.08750526, -0.7932278, -0.13256696, 0.29045552, -0.14185815, 0.1290884
1054, 864142603, 0.58771956, 0.087604925, -0.7933184, -0.13250342, 0.45292354, -0.051576175, 0.21502113
1055, 864159270, 0.5876568, 0.08757093, -0.7933543, -0.13258989, 0.42532995, -0.018298894, 0.16737175
1056, 864175937, 0.58761114, 0.087495804, -0.7933734, -0.1327266, 0.16642506, 0.08809629, 0.123373985
1057, 864192604, 0.5875699, 0.087441295, -0.79338527, -0.13287537, -0.16335578, 0.021773292, 0.10522461
1058, 864209271, 0.5875283, 0.08754567, -0.7934131, -0.13282318, -0.23691793, -0.046273272, 0.099472046
1059, 864225938, 0.58746976, 0.08761819, -0.7934606, -0.13275029, -0.112679586, 0.044362962, 0.031347275
1060, 864242605, 0.5873591, 0.08757541, -0.79353803, -0.13280663, -0.044483103, -0.0410448, 0.114097595
1061, 864259272, 0.5873063, 0.08776974, -0.7935764, -0.1326818, 0.071887575, -0.14271079, 0.15994453
1062, 864275939, 0.58726406, 0.08795394, -0.79361236, -0.1325323, 0.20690908, 0.075424, 0.07078457
1063, 864292606, 0.587203, 0.08788887, -0.79364884, -0.13262662, 0.12440449, 0.061001014, 0.19400406
1064, 864309273, 0.5871902, 0.087907895, -0.79365265, -0.13264805, 0.005346877, -0.07780766, 0.20256615
1065, 864325940, 0.5871979, 0.0880464, -0.79365045, -0.1325349, 0.010764384, -0.048567243, 0.09171581
1066, 864342607, 0.5872134, 0.08823668, -0.7936435, -0.13238144, -0.01605717, 0.003994456, 0.0929451
1067, 864359274, 0.5872221, 0.088399984, -0.79364264, -0.13223937, -0.031149212, -0.01689121, 0.11323357
1068, 864375941, 0.58721495, 0.088597775, -0.79365563, -0.13206095, -0.053374894, -0.0054838345, 0.1240139
1069, 864392608, 0.58716583, 0.08872599, -0.7936981, -0.13193801, -0.08135156, 0.011085013, 0.09248352
1070, 864409275, 0.58708805, 0.08883212, -0.79376566, -0.13180532, -0.16947691, -0.01745843, 0.08925152
1071, 864425942, 0.58698463, 0.08893055, -0.79384804, -0.13170384, -0.15947425, -0.019057553, 0.14330101
1072, 864442609, 0.5868384, 0.08899279, -0.7939649, -0.13160866, -0.1326147, 0.0200414, 0.096678734
1073, 864459276, 0.5866484, 0.088959835, -0.7941032, -0.13164385, -0.08668816, -0.005701704, 0.11226463
1074, 864475943, 0.58644253, 0.088875756, -0.79425436, -0.13170597, -0.06776823, -0.0020113932, 0.0784626
1075, 864492610, 0.5862298, 0.0888427, -0.7944106, -0.13173336, -0.031016, -0.020964062, 0.131917
1076, 864509277, 0.5860246, 0.08884155, -0.79456496, -0.13171512, -0.015004871, 0.04528719, 0.13631248
1077, 864525944, 0.58580196, 0.08876488, -0.79472446, -0.13179567, 0.008099662, -0.058089398, 0.13313484
1078, 864542611, 0.5856541, 0.08884888, -0.79483205, -0.13174728, 0.11167557, -0.1729007, 0.19860268
1079, 864559278, 0.58553797, 0.08891377, -0.79491854, -0.13169825, 0.23587233, -0.0066289473, 0.05776882
1080, 864575945, 0.58542156, 0.08885637, -0.79500043, -0.13175961, 0.11486125, 0.07042578, 0.12508774
1081, 864592612, 0.5852946, 0.088733, -0.79508555, -0.13189282, -0.1355083, 0.008028027, 0.10533047
1082, 864609279, 0.585211, 0.08889391, -0.7951452, -0.13179585, -0.14775816, -0.19865781, 0.098962784
1083, 864625946, 0.58515275, 0.089150235, -0.7951963, -0.13157254, 0.025561389, -0.06562027, 0.07105923
1084, 864642613, 0.5850513, 0.08914628, -0.7952744, -0.13155563, 0.01791814, 0.07829039, 0.096180916
1085, 864659280, 0.58490336, 0.08897676, -0.79537594, -0.13171344, -0.15898879, 0.13332872, 0.059462547
1086, 864675947, 0.5847212, 0.088881314, -0.7955101, -0.13177676, -0.3058426, 0.012026003, 0.07380962
1087, 864692614, 0.58455914, 0.08903906, -0.79563844, -0.13161533, -0.19738743, -0.1407401, 0.1083107
1088, 864709281, 0.5844295, 0.08925821, -0.79575753, -0.13132128, 0.05535164, -0.055891424, 0.0667963
1089, 864725948, 0.5842711, 0.08916776, -0.7958874, -0.13129999, 0.242723, 0.14998093, 0.14173412
1090, 864742615, 0.58412296, 0.08874787, -0.7959895, -0.13162486, 0.27913684, -0.01871988, 0.18591404
1091, 864759282, 0.5841171, 0.08848656, -0.7959976, -0.13177818, 0.5195398, -0.10391274, 0.2643566
1092, 864775949, 0.5842099, 0.08828962, -0.7959232, -0.13194789, 0.6420986, 9.2484074E-4, 0.20090008
1093, 864792616, 0.5844845, 0.08831247, -0.7957105, -0.13199855, 0.5500958, -0.26263225, 0.30317497
1094, 864809283, 0.5850471, 0.088823944, -0.7953382, -0.1314058, 0.53773683, -0.0767819, 0.04290676
1095, 864825950, 0.5856274, 0.08894592, -0.7949714, -0.13095713, 0.36878833, 0.4708601, 0.06537628
1096, 864842617, 0.58607286, 0.08830154, -0.79471976, -0.13092722, -0.23976503, 0.50286305, 0.10244274
1097, 864859284, 0.58647186, 0.08753835, -0.7945402, -0.13074456, -0.30021545, 0.36614892, 0.20723057
1098, 864875951, 0.58682966, 0.086669475, -0.7943792, -0.13069487, 0.15178154, 0.13691285, -0.0075244904
1099, 864892618, 0.5872111, 0.08594157, -0.7941843, -0.1306462, 0.21152596, -0.42595983, -0.027484894
1100, 864909285, 0.58775043, 0.0858488, -0.79388523, -0.13009964, -0.04056045, -0.36240348, 0.049423218
1101, 864925952, 0.5882236, 0.08572439, -0.793668, -0.1293673, -0.5923697, 0.44364443, 0.12991524
1102, 864942619, 0.5883454, 0.08477171, -0.793721, -0.1291148, -0.8126547, 1.0308431, 0.16761875
1103, 864959286, 0.58819, 0.08303009, -0.7939399, -0.12960862, -0.33902222, 0.87719846, -0.03748989
1104, 864975953, 0.5879904, 0.0810741, -0.79419047, -0.13021503, -0.4124109, 0.14019889, -0.19654655
1105, 864992620, 0.5878078, 0.07974165, -0.79449755, -0.12998916, -0.48111388, -0.11467863, 0.014284134
1106, 865009287, 0.58757764, 0.07891552, -0.79491055, -0.12900566, -0.75296956, 0.5019379, -0.052802086
1107, 865025954, 0.58691174, 0.077694766, -0.7956371, -0.12829639, -1.0212624, 0.9449301, 0.08773136
1108, 865042621, 0.58594394, 0.07631147, -0.79657483, -0.12773113, -0.8841998, 0.24135515, -0.19916916
1109, 865059288, 0.58495396, 0.07539343, -0.7976158, -0.12630881, -0.76129276, 0.0067380774, -0.3816309
1110, 865075955, 0.5838843, 0.074894235, -0.79872465, -0.12453664, -0.6967668, 0.009790594, 0.07224083
1111, 865092622, 0.58275527, 0.07503216, -0.7999349, -0.121945724, -0.762906, 0.26118734, -0.023503304
1112, 865109289, 0.5811925, 0.07510434, -0.8015637, -0.11862, -0.8892691, 1.173173, -0.43624496
1113, 865125956, 0.5789456, 0.07386269, -0.8036262, -0.11641066, -1.136753, 1.0406938, -0.1704073
1114, 865142623, 0.5766131, 0.07240056, -0.8057096, -0.11448808, -1.0891693, -0.2553662, -0.22746658
1115, 865159290, 0.5745947, 0.07162915, -0.80763143, -0.11154477, -0.6897375, -0.62293565, -0.2624445
1116, 865175957, 0.5726558, 0.07107104, -0.8094853, -0.10838813, -0.01702811, -0.055944398, -0.026490211
1117, 865192624, 0.5705126, 0.069784015, -0.811473, -0.1056286, 0.18061098, 0.70335406, 0.056972504
1118, 865209291, 0.5677323, 0.067133, -0.8138682, -0.10388397, 0.09023397, 1.0826553, -0.032813072
1119, 865225958, 0.5645287, 0.063588396, -0.8165018, -0.10290191, -0.2059274, 0.85381085, -0.22088337
1120, 865242625, 0.561398, 0.059950285, -0.81900716, -0.10230175, -0.29287618, -0.2604427, -0.29819298
1121, 865259292, 0.559023, 0.057310127, -0.8209594, -0.10116736, 0.10437384, -1.2974595, 0.1827755
1122, 865275959, 0.557144, 0.05584573, -0.82263756, -0.09869062, 0.50476915, -1.311277, 0.5172062
1123, 865292626, 0.5546781, 0.05427789, -0.8247251, -0.09599458, 0.67705965, -0.023754956, -4.6730042E-4
1124, 865309293, 0.5515098, 0.05147151, -0.82722265, -0.09429019, 0.091548674, 0.5620725, -0.3569498
1125, 865325960, 0.54871136, 0.048286967, -0.8293492, -0.09361823, -0.4972296, -0.47732744, 0.09453583
1126, 865342627, 0.5468488, 0.046295527, -0.8308912, -0.09183261, 0.003382198, -1.0872265, 0.62010956
1127, 865359294, 0.54528224, 0.0448868, -0.83228743, -0.089164734, 1.2575203, -0.54952985, 0.28476238
1128, 865375961, 0.5435926, 0.043066405, -0.83365154, -0.08762345, 1.6418079, -0.48656508, 0.36729813
1129, 865392628, 0.54181856, 0.041480437, -0.835008, -0.086450845, 0.75898385, -0.97298634, 0.44765186
1130, 865409295, 0.5405468, 0.04072595, -0.8360689, -0.08449773, 0.4808488, -1.1355643, 0.3048296
1131, 865425962, 0.5401715, 0.040475324, -0.8365333, -0.08239405, 0.5922713, -0.5651744, 0.8678007
1132, 865442629, 0.5400017, 0.03998238, -0.8368284, -0.08073243, 1.2625885, 0.19086836, 0.73799515
1133, 865459296, 0.5397061, 0.03873855, -0.8371237, -0.08025314, 1.7696309, 0.21066545, 0.4022026
1134, 865475963, 0.53946763, 0.037184104, -0.8373574, -0.0801545, 1.3669891, -0.124737255, 0.4190693
1135, 865492630, 0.539565, 0.036046766, -0.8373826, -0.07975501, 0.62382156, -0.6502547, 0.45506763
1136, 865509297, 0.5402859, 0.03569102, -0.8369888, -0.07916766, 0.22186343, -0.94229865, 0.582963
1137, 865525964, 0.5416881, 0.035936672, -0.83613795, -0.07845931, 0.6969907, -0.48618364, 0.7665758
1138, 865542631, 0.5430611, 0.03577501, -0.83528143, -0.07816632, 1.469937, 0.29706556, 0.5496559
1139, 865559298, 0.5439768, 0.034695674, -0.8346574, -0.07894936, 1.1332024, 0.38420954, 0.013688087
1140, 865575965, 0.54497397, 0.033703823, -0.83398515, -0.07960154, 0.21284379, -0.009271541, 0.20582771
1141, 865592632, 0.54621786, 0.033165026, -0.8332129, -0.07938782, -0.19499092, -0.2368496, 0.14678955
1142, 865609299, 0.5478813, 0.032844327, -0.83213925, -0.079319455, 0.00970985, -0.32493252, 0.43794537
1143, 865625966, 0.5497516, 0.032611657, -0.83089274, -0.07954377, 0.20952462, -0.46944416, 0.47740746
1144, 865642633, 0.5516097, 0.032527152, -0.8296601, -0.079582356, 0.56206805, -0.3803207, -0.06312466
1145, 865659300, 0.5534105, 0.032226034, -0.82841635, -0.08015412, 0.2526054, -0.58768284, 0.33485126
1146, 865675967, 0.5550736, 0.032358803, -0.8272467, -0.08068027, -0.10170465, -1.0583333, 0.300951
1147, 865692634, 0.556643, 0.03322109, -0.8261697, -0.08055354, -0.29112786, -1.0928186, 0.0912714
1148, 865709301, 0.558177, 0.03477824, -0.82510936, -0.08014762, -0.7013287, -0.56441724, 0.19577122
1149, 865725968, 0.559808, 0.03659613, -0.8239471, -0.07991904, -0.5775132, -0.2299933, 0.26168537
1150, 865742635, 0.5614426, 0.038334608, -0.82275677, -0.0798998, 0.20345816, -0.1840566, 0.21143913
1151, 865759302, 0.56278944, 0.03962475, -0.82171416, -0.080524184, 0.48797706, -0.03919322, -0.0014877319
1152, 865775969, 0.564095, 0.040895164, -0.8206512, -0.08158691, 0.14152393, -0.016029064, 0.35095787
1153, 865792636, 0.5655164, 0.04239483, -0.8195, -0.08254508, 0.024058934, 0.29902077, 0.401721
1154, 865809303, 0.56704795, 0.04379789, -0.8182652, -0.0835499, 0.2749576, 0.78122234, 0.01861763
1155, 865825970, 0.5684086, 0.044629388, -0.81711036, -0.085152656, 0.7372043, 0.2725967, -0.029535294
1156, 865842637, 0.56973237, 0.045347974, -0.8159539, -0.08699431, 0.49342138, 0.13181092, -0.16320324
1157, 865859304, 0.5712047, 0.045998786, -0.81473845, -0.088378355, 0.26619008, 0.24220085, 0.056788445
1158, 865875971, 0.5726897, 0.04607365, -0.81356496, -0.089533, -0.06207223, 0.97426236, 0.22855568
1159, 865892638, 0.5740731, 0.044955, -0.8124102, -0.091699675, -0.3256946, 1.4329449, -0.040777206
1160, 865909305, 0.57544804, 0.042934977, -0.8111956, -0.09475398, -0.6587588, 1.1599023, -0.14606476
1161, 865925972, 0.5768381, 0.040799573, -0.80995494, -0.09780907, -0.7716852, 0.19678748, 0.039697647
1162, 865942639, 0.5779742, 0.03939305, -0.80905646, -0.09910582, -0.09303012, -0.5489317, -0.38980103
1163, 865959306, 0.5787369, 0.03786347, -0.8084715, -0.10002066, 0.16189222, -0.10046724, -0.39461613
1164, 865975973, 0.5793898, 0.036048837, -0.8078747, -0.1017176, -0.23346241, -0.14035639, 0.255538
1165, 865992640, 0.5801134, 0.03439961, -0.8072246, -0.103313215, -0.34238878, -0.06098502, 0.3480978
1166, 866009307, 0.58072066, 0.032258913, -0.8066109, -0.1053647, -0.26477927, 0.38947338, 0.16434288
1167, 866025974, 0.58118004, 0.029707218, -0.8060064, -0.10817146, -0.25992763, 0.16713218, 0.096488
1168, 866042641, 0.58166385, 0.027607968, -0.805382, -0.11074669, -0.2574704, -0.4327013, 0.030942917
1169, 866059308, 0.58223534, 0.026644843, -0.8048306, -0.111981794, -0.058427628, -0.66936916, -0.26675034
1170, 866075975, 0.58272153, 0.02602357, -0.80442697, -0.11249854, -0.056589905, -0.10700521, -0.27341843
1171, 866092642, 0.5830973, 0.025182625, -0.80404735, -0.11345246, -0.18802178, 0.18786989, 0.28683853
1172, 866109309, 0.5834226, 0.024185412, -0.80368423, -0.114564426, -0.2967416, 0.1791725, 0.26937485
1173, 866125976, 0.58374035, 0.023168774, -0.8033551, -0.11546063, -0.24287142, 0.014656206, 0.07241726
1174, 866142643, 0.5840802, 0.022305045, -0.80305535, -0.11599631, -0.24153927, -0.08375668, 0.063705444
1175, 866159310, 0.58446455, 0.021839058, -0.80277026, -0.11612245, -0.21796626, -0.0739052, 0.10663414
1176, 866175977, 0.5848952, 0.021610884, -0.8024624, -0.116124794, -0.052698545, -0.17160003, 0.13085651
1177, 866192644, 0.5852886, 0.021486038, -0.8022018, -0.115965, 0.023844361, -0.23773414, -0.0060453415
1178, 866209311, 0.5855411, 0.021287646, -0.8020535, -0.11575207, -0.12243369, -0.09666699, -0.06825733
